DATE,TIME,ax,ay,az,gx,gy,gz,ma,mg,label
05/08/2020, 15:29:16,1.7108682,-1.6127625,9.638289,-0.09646778,0.068382226,0.02075889,9.920922155188697,0.12005453981538372,jump
05/08/2020, 15:29:16,1.7108682,-1.6127625,9.638289,-0.0061055557,0.03174889,0.01099,9.920922155188697,0.034147474129205886,jump
05/08/2020, 15:29:16,1.6630118,-1.6797615,9.640682,-0.0061055557,0.03174889,0.01099,9.926225903207182,0.034147474129205886,jump
05/08/2020, 15:29:16,1.6630118,-1.6797615,9.640682,0.048844445,0.015874445,0.0024422223,9.926225903207182,0.05141733485637955,jump
05/08/2020, 15:29:16,1.7467605,-1.6247265,9.674182,0.048844445,0.015874445,0.0024422223,9.963970327317089,0.05141733485637955,jump
05/08/2020, 15:29:16,1.7467605,-1.6247265,9.674182,0.054950003,0.028085556,-0.0061055557,9.963970327317089,0.062012732910641806,jump
05/08/2020, 15:29:16,1.8544376,-1.5218352,9.710074,0.054950003,0.028085556,-0.0061055557,10.002023120752808,0.062012732910641806,jump
05/08/2020, 15:29:16,1.8544376,-1.5218352,9.710074,0.046402223,0.054950003,-0.015874445,10.002023120752808,0.07365233966984124,jump
05/08/2020, 15:29:16,1.8568304,-1.4404793,9.717253,0.046402223,0.054950003,-0.015874445,9.997389668140844,0.07365233966984124,jump
05/08/2020, 15:29:16,1.8568304,-1.4404793,9.717253,0.037854444,0.06349778,-0.017095556,9.997389668140844,0.07587611803101042,jump
05/08/2020, 15:29:16,1.8257236,-1.3782659,9.734002,0.037854444,0.06349778,-0.017095556,9.999184004516106,0.07587611803101042,jump
05/08/2020, 15:29:16,1.8257236,-1.3782659,9.734002,0.03297,0.058613338,0.009768889,9.999184004516106,0.06795568735264382,jump
05/08/2020, 15:29:16,1.7012969,-1.3830515,9.755538,0.03297,0.058613338,0.009768889,9.998888144789051,0.06795568735264382,jump
05/08/2020, 15:29:16,1.7012969,-1.3830515,9.755538,0.17339778,0.070824444,0.008547778,9.998888144789051,0.18749921692025756,jump
05/08/2020, 15:29:16,1.7659031,-1.5098711,9.753145,0.17339778,0.070824444,0.008547778,10.026064345926775,0.18749921692025756,jump
05/08/2020, 15:29:16,1.7659031,-1.5098711,9.753145,0.21491556,0.05372889,-0.048844445,10.026064345926775,0.22685076771086723,jump
05/08/2020, 15:29:16,1.9166509,-1.4668003,9.9756775,0.21491556,0.05372889,-0.048844445,10.2634884538574,0.22685076771086723,jump
05/08/2020, 15:29:16,1.9166509,-1.4668003,9.9756775,0.20636779,0.06349778,-0.12577444,10.2634884538574,0.24987765781516394,jump
05/08/2020, 15:29:16,1.9238294,-1.375873,9.8632145,0.20636779,0.06349778,-0.12577444,10.142837189833603,0.24987765781516394,jump
05/08/2020, 15:29:16,1.9238294,-1.375873,9.8632145,0.13798556,0.12211112,-0.14653334,10.142837189833603,0.23542123796942988,jump
05/08/2020, 15:29:17,-0.46899325,-4.3645086,8.719446,0.09524667,-0.08669889,0.05250778,9.762050602294067,0.13908879588305337,jump
05/08/2020, 15:29:17,-0.46899325,-4.3645086,8.719446,0.042738892,-0.06349778,0.047623336,9.762050602294067,0.09014745337828757,jump
05/08/2020, 15:29:17,-0.44506502,-4.4195433,8.772088,0.042738892,-0.06349778,0.047623336,9.83259753716035,0.09014745337828757,jump
05/08/2020, 15:29:17,-0.44506502,-4.4195433,8.772088,0.039075557,-0.05372889,0.034191113,9.83259753716035,0.0747176348488146,jump
05/08/2020, 15:29:17,-0.46660042,-4.534399,8.776874,0.039075557,-0.05372889,0.034191113,9.88999497100672,0.0747176348488146,jump
05/08/2020, 15:29:17,-0.46660042,-4.534399,8.776874,0.08669889,-0.051286668,0.014653334,9.88999497100672,0.1017926321582355,jump
05/08/2020, 15:29:17,-0.552742,-4.625326,8.807981,0.08669889,-0.051286668,0.014653334,9.96391925529175,0.1017926321582355,jump
05/08/2020, 15:29:17,-0.552742,-4.625326,8.807981,0.16729222,-0.06349778,-0.008547778,9.96391925529175,0.1791416212652329,jump
05/08/2020, 15:29:17,-0.59581286,-4.65404,8.841479,0.16729222,-0.06349778,-0.008547778,10.009337451355405,0.1791416212652329,jump
05/08/2020, 15:29:17,-0.59581286,-4.65404,8.841479,0.24178001,-0.08425667,-0.019537779,10.009337451355405,0.25678490234728385,jump
05/08/2020, 15:29:17,-0.634098,-4.575077,8.851051,0.24178001,-0.08425667,-0.019537779,9.983712736149588,0.25678490234728385,jump
05/08/2020, 15:29:17,-0.634098,-4.575077,8.851051,0.27841336,-0.09402556,-0.017095556,9.983712736149588,0.29435872735536023,jump
05/08/2020, 15:29:17,-0.5694918,-4.4985065,8.839087,0.27841336,-0.09402556,-0.017095556,9.934300820373439,0.29435872735536023,jump
05/08/2020, 15:29:17,-0.5694918,-4.4985065,8.839087,0.26376,-0.07937223,-0.024422223,9.934300820373439,0.2765243809501963,jump
05/08/2020, 15:29:17,-0.5240282,-4.4004006,8.839087,0.26376,-0.07937223,-0.024422223,9.887749088960662,0.2765243809501963,jump
05/08/2020, 15:29:17,-0.5240282,-4.4004006,8.839087,0.20148334,-0.058613338,-0.026864445,9.887749088960662,0.2115484759140384,jump
05/08/2020, 15:29:17,-0.51206404,-4.3334017,8.874979,0.20148334,-0.058613338,-0.026864445,9.889683123919806,0.2115484759140384,jump
05/08/2020, 15:29:17,-0.51206404,-4.3334017,8.874979,0.117226675,-0.03297,-0.03052778,9.889683123919806,0.12554305879947056,jump
05/08/2020, 15:29:17,-0.552742,-4.2687955,8.841479,0.117226675,-0.03297,-0.03052778,9.833610471192326,0.12554305879947056,jump
05/08/2020, 15:29:17,-0.552742,-4.2687955,8.841479,0.026864445,-0.0024422223,-0.026864445,9.833610471192326,0.03807047731070399,jump
05/08/2020, 15:29:18,-0.6053841,-4.57747,8.839087,0.081814446,-0.0061055557,-0.02075889,9.972420501493428,0.08462749440828739,jump
05/08/2020, 15:29:18,-0.5982057,-4.601398,8.834301,0.081814446,-0.0061055557,-0.02075889,9.97875681553353,0.08462749440828739,jump
05/08/2020, 15:29:18,-0.5982057,-4.601398,8.834301,0.12211112,-0.008547778,-0.02198,9.97875681553353,0.12436764211754256,jump
05/08/2020, 15:29:18,-0.61734825,-4.6061835,8.7984085,0.12211112,-0.008547778,-0.02198,9.950378779083252,0.12436764211754256,jump
05/08/2020, 15:29:18,-0.61734825,-4.6061835,8.7984085,0.14409111,-0.015874445,-0.03052778,9.950378779083252,0.14814247402090458,jump
05/08/2020, 15:29:18,-0.6436693,-4.5678983,8.836694,0.14409111,-0.015874445,-0.03052778,9.968307854787621,0.14814247402090458,jump
05/08/2020, 15:29:18,-0.6436693,-4.5678983,8.836694,0.14897557,-0.02075889,-0.025643334,9.968307854787621,0.15258516094266028,jump
05/08/2020, 15:29:18,-0.6436693,-4.5798626,8.786445,0.14897557,-0.02075889,-0.025643334,9.929303167699615,0.15258516094266028,jump
05/08/2020, 15:29:18,-0.6436693,-4.5798626,8.786445,0.13554333,-0.019537779,-0.02198,9.929303167699615,0.13869693556698517,jump
05/08/2020, 15:29:18,-0.64606214,-4.634897,8.729017,0.13554333,-0.019537779,-0.02198,9.904312743444404,0.13869693556698517,jump
05/08/2020, 15:29:18,-0.64606214,-4.634897,8.729017,0.11478445,-0.019537779,-0.029306669,9.904312743444404,0.1200669623043639,jump
05/08/2020, 15:29:18,-0.65324056,-4.6468616,8.733803,0.11478445,-0.019537779,-0.029306669,9.914603209146554,0.1200669623043639,jump
05/08/2020, 15:29:18,-0.65324056,-4.6468616,8.733803,0.117226675,-0.013432222,-0.03174889,9.914603209146554,0.12219046623358076,jump
05/08/2020, 15:29:18,-0.6939186,-4.7042894,8.738588,0.117226675,-0.013432222,-0.03174889,9.948607347788135,0.12219046623358076,jump
05/08/2020, 15:29:18,-0.6939186,-4.7042894,8.738588,0.106236674,-0.028085556,-0.035412222,9.948607347788135,0.11545152578500399,jump
05/08/2020, 15:29:18,-0.74416786,-4.6803613,8.853444,0.106236674,-0.028085556,-0.035412222,10.042063525896435,0.11545152578500399,jump
05/08/2020, 15:29:18,-0.74416786,-4.6803613,8.853444,0.07937223,-0.04396,-0.036633335,10.042063525896435,0.09784903373361811,jump
05/08/2020, 15:29:18,-0.7537391,-4.610969,8.846265,0.07937223,-0.04396,-0.036633335,10.00427708517584,0.09784903373361811,jump
05/08/2020, 15:29:18,-0.7537391,-4.610969,8.846265,0.029306669,-0.037854444,-0.02198,10.00427708517584,0.052677891119995976,jump
05/08/2020, 15:29:18,-0.7465607,-4.510471,8.855837,0.029306669,-0.037854444,-0.02198,9.96632063246927,0.052677891119995976,jump
05/08/2020, 15:29:19,-0.9236295,-4.682754,8.659625,-0.017095556,0.034191113,-0.014653334,9.887890723355023,0.04093910680665245,jump
05/08/2020, 15:29:19,-0.9236295,-4.682754,8.659625,-0.036633335,0.045181114,-0.017095556,9.887890723355023,0.060626663864840113,jump
05/08/2020, 15:29:19,-0.94755775,-4.668397,8.645268,-0.036633335,0.045181114,-0.017095556,9.870788325615992,0.060626663864840113,jump
05/08/2020, 15:29:19,-0.94755775,-4.668397,8.645268,-0.04396,0.047623336,-0.028085556,9.870788325615992,0.07063471049681733,jump
05/08/2020, 15:29:19,-0.96909314,-4.668397,8.616554,-0.04396,0.047623336,-0.028085556,9.847744864796965,0.07063471049681733,jump
05/08/2020, 15:29:19,-0.96909314,-4.668397,8.616554,-0.039075557,0.059834447,-0.035412222,9.847744864796965,0.0797564145522092,jump
05/08/2020, 15:29:19,-0.95712906,-4.6612186,8.6141615,-0.039075557,0.059834447,-0.035412222,9.841078877809064,0.0797564145522092,jump
05/08/2020, 15:29:19,-0.95712906,-4.6612186,8.6141615,-0.02198,0.057392225,-0.042738892,9.841078877809064,0.07485720261069854,jump
05/08/2020, 15:29:19,-0.93320084,-4.627719,8.60459,-0.02198,0.057392225,-0.042738892,9.814561756909837,0.07485720261069854,jump
05/08/2020, 15:29:19,-0.93320084,-4.627719,8.60459,-0.0048844446,0.054950003,-0.06227667,9.814561756909837,0.0831970195724433,jump
05/08/2020, 15:29:19,-0.9212367,-4.5822554,8.556734,-0.0048844446,0.054950003,-0.06227667,9.750048177569772,0.0831970195724433,jump
05/08/2020, 15:29:19,-0.9212367,-4.5822554,8.556734,0.008547778,0.05250778,-0.07204556,9.750048177569772,0.08955832645533651,jump
05/08/2020, 15:29:19,-0.9451649,-4.510471,8.530413,0.008547778,0.05250778,-0.07204556,9.695649774784584,0.08955832645533651,jump
05/08/2020, 15:29:19,-0.9451649,-4.510471,8.530413,0.014653334,0.05006556,-0.08059334,9.695649774784584,0.09600295211832159,jump
05/08/2020, 15:29:19,-0.9212367,-4.429115,8.520842,0.014653334,0.05006556,-0.08059334,9.647304114058313,0.09600295211832159,jump
05/08/2020, 15:29:19,-0.9212367,-4.429115,8.520842,0.0,0.05372889,-0.102573335,9.647304114058313,0.11579327559770246,jump
05/08/2020, 15:29:19,-0.8542377,-4.369294,8.556734,0.0,0.05372889,-0.102573335,9.6456286328745,0.11579327559770246,jump
05/08/2020, 15:29:19,-0.8542377,-4.369294,8.556734,-0.024422223,0.059834447,-0.12089001,9.6456286328745,0.13708026712756397,jump
05/08/2020, 15:29:19,-0.8135597,-4.3118663,8.568698,-0.024422223,0.059834447,-0.12089001,9.626871478024212,0.13708026712756397,jump
05/08/2020, 15:29:19,-0.8135597,-4.3118663,8.568698,-0.05617111,0.06960334,-0.14164889,9.626871478024212,0.16752380789662377,jump
05/08/2020, 15:29:20,8.212168,-3.6466618,3.6921253,-1.1222012,0.36999667,0.06349778,9.714403242086933,1.1833279531655843,jump
05/08/2020, 15:29:20,8.300702,-3.6753755,3.7016966,-1.1222012,0.36999667,0.06349778,9.80370328122847,1.1833279531655843,jump
05/08/2020, 15:29:20,8.300702,-3.6753755,3.7016966,-1.0916734,0.37366003,0.089141116,9.80370328122847,1.157289380784387,jump
05/08/2020, 15:29:20,8.427522,-3.6897326,3.7280176,-1.0916734,0.37366003,0.089141116,9.926498042747722,1.157289380784387,jump
05/08/2020, 15:29:20,8.427522,-3.6897326,3.7280176,-1.053819,0.39930335,0.11966889,9.926498042747722,1.1332687975737938,jump
05/08/2020, 15:29:20,8.496913,-3.6586258,3.7256248,-1.053819,0.39930335,0.11966889,9.97313155331342,1.1332687975737938,jump
05/08/2020, 15:29:20,8.496913,-3.6586258,3.7256248,-1.0135223,0.4261678,0.14409111,9.97313155331342,1.1088771877779935,jump
05/08/2020, 15:29:20,8.4682,-3.6370904,3.7543387,-1.0135223,0.4261678,0.14409111,9.951577410249948,1.1088771877779935,jump
05/08/2020, 15:29:20,8.4682,-3.6370904,3.7543387,-0.9610145,0.4493689,0.16851334,9.951577410249948,1.0741871515525343,jump
05/08/2020, 15:29:20,8.382058,-3.6586258,3.737589,-0.9610145,0.4493689,0.16851334,9.879980385739822,1.0741871515525343,jump
05/08/2020, 15:29:20,8.382058,-3.6586258,3.737589,-0.90362227,0.44692668,0.19537778,9.879980385739822,1.0268637416966546,jump
05/08/2020, 15:29:20,8.243274,-3.6753755,3.7280176,-0.90362227,0.44692668,0.19537778,9.765145244499987,1.0268637416966546,jump
05/08/2020, 15:29:20,8.243274,-3.6753755,3.7280176,-0.83890337,0.41395667,0.21247335,9.765145244499987,0.959303867295487,jump
05/08/2020, 15:29:20,8.190632,-3.656233,3.6801612,-0.83890337,0.41395667,0.21247335,9.695260563090722,0.959303867295487,jump
05/08/2020, 15:29:20,8.190632,-3.656233,3.6801612,-0.7570889,0.34801668,0.2295689,9.695260563090722,0.8642922481536125,jump
05/08/2020, 15:29:20,8.240881,-3.641876,3.6897326,-0.7570889,0.34801668,0.2295689,9.735990246058504,0.8642922481536125,jump
05/08/2020, 15:29:20,8.240881,-3.641876,3.6897326,-0.6679478,0.30649891,0.2515489,9.735990246058504,0.7767707055665243,jump
05/08/2020, 15:29:20,8.346166,-3.6514473,3.7088752,-0.6679478,0.30649891,0.2515489,9.836020721149266,0.7767707055665243,jump
05/08/2020, 15:29:20,8.346166,-3.6514473,3.7088752,-0.5922389,0.30405667,0.26864445,9.836020721149266,0.7178908141725157,jump
05/08/2020, 15:29:20,8.453842,-3.6131623,3.7328033,-0.5922389,0.30405667,0.26864445,9.922510256184783,0.7178908141725157,jump
05/08/2020, 15:29:21,7.6331043,-4.536792,2.8761728,0.03052778,0.08425667,-0.13676445,9.33376297867637,0.16351038898076506,jump
05/08/2020, 15:29:21,7.6331043,-4.536792,2.8761728,0.025643334,0.117226675,-0.16240779,9.33376297867637,0.20193058900631156,jump
05/08/2020, 15:29:21,7.7479596,-4.5966125,2.8402805,0.025643334,0.117226675,-0.16240779,9.44600009155192,0.20193058900631156,jump
05/08/2020, 15:29:21,7.7479596,-4.5966125,2.8402805,0.012211111,0.14287001,-0.18927222,9.44600009155192,0.23745510273911272,jump
05/08/2020, 15:29:21,7.8604226,-4.685147,2.8642087,0.012211111,0.14287001,-0.18927222,9.58856275532795,0.23745510273911272,jump
05/08/2020, 15:29:21,7.8604226,-4.685147,2.8642087,0.0012211112,0.15996556,-0.21980001,9.58856275532795,0.27185017194343947,jump
05/08/2020, 15:29:21,7.9393854,-4.8239303,2.8689942,0.0012211112,0.15996556,-0.21980001,9.722925067460542,0.27185017194343947,jump
05/08/2020, 15:29:21,7.9393854,-4.8239303,2.8689942,0.0012211112,0.16362889,-0.24666445,9.722925067460542,0.2960054996134837,jump
05/08/2020, 15:29:21,8.003992,-4.9698925,2.902494,0.0012211112,0.16362889,-0.24666445,9.858407166412508,0.2960054996134837,jump
05/08/2020, 15:29:21,8.003992,-4.9698925,2.902494,0.0024422223,0.16607112,-0.27475002,9.858407166412508,0.3210500834113885,jump
05/08/2020, 15:29:21,8.066205,-5.005785,2.9192436,0.0024422223,0.16607112,-0.27475002,9.931944920110157,0.3210500834113885,jump
05/08/2020, 15:29:21,8.066205,-5.005785,2.9192436,0.0,0.17217667,-0.29062447,9.931944920110157,0.3377978527989598,jump
05/08/2020, 15:29:21,8.135597,-4.979464,2.9048867,0.0,0.17217667,-0.29062447,9.971026597580565,0.3377978527989598,jump
05/08/2020, 15:29:21,8.135597,-4.979464,2.9048867,-0.028085556,0.19415668,-0.30039334,9.971026597580565,0.3587781682215829,jump
05/08/2020, 15:29:21,8.140383,-4.941179,2.926422,-0.028085556,0.19415668,-0.30039334,9.962179777972652,0.3587781682215829,jump
05/08/2020, 15:29:21,8.140383,-4.941179,2.926422,-0.06105556,0.22102112,-0.30283555,9.962179777972652,0.3798519286289322,jump
05/08/2020, 15:29:21,8.142776,-4.912465,2.9048867,-0.06105556,0.22102112,-0.30283555,9.943614715410703,0.3798519286289322,jump
05/08/2020, 15:29:21,8.142776,-4.912465,2.9048867,-0.09646778,0.23689556,-0.30283555,9.943614715410703,0.39640246193790013,jump
05/08/2020, 15:29:21,8.080562,-4.9316072,2.8905299,-0.09646778,0.23689556,-0.30283555,9.898049775150382,0.39640246193790013,jump
05/08/2020, 15:29:21,8.080562,-4.9316072,2.8905299,-0.13676445,0.23201112,-0.29917222,9.898049775150382,0.4025390614149348,jump
05/08/2020, 15:29:22,-1.0289137,2.036292,-0.4019942,-0.71801335,-0.97933114,-2.1894524,2.316624318214839,2.5036642133677676,jump
05/08/2020, 15:29:22,-0.96909314,1.7778672,-0.38524446,-0.71801335,-0.97933114,-2.1894524,2.0611566142449114,2.5036642133677676,jump
05/08/2020, 15:29:22,-0.96909314,1.7778672,-0.38524446,-0.7119078,-1.2443123,-2.5460167,2.0611566142449114,2.921870426467212,jump
05/08/2020, 15:29:22,-0.8422736,1.5816557,-0.30149564,-0.7119078,-1.2443123,-2.5460167,1.8171294146025083,2.921870426467212,jump
05/08/2020, 15:29:22,-0.8422736,1.5816557,-0.30149564,-0.6935911,-1.4970822,-2.8928123,1.8171294146025083,3.3302682441510876,jump
05/08/2020, 15:29:22,-0.5694918,1.524228,-0.22492532,-0.6935911,-1.4970822,-2.8928123,1.642614757390696,3.3302682441510876,jump
05/08/2020, 15:29:22,-0.5694918,1.524228,-0.22492532,-0.6996967,-1.7486312,-3.2383869,1.642614757390696,3.7462562946722993,jump
05/08/2020, 15:29:22,-0.22492532,1.4668003,-0.033499517,-0.6996967,-1.7486312,-3.2383869,1.4843236955895338,3.7462562946722993,jump
05/08/2020, 15:29:22,-0.22492532,1.4668003,-0.033499517,-0.73999333,-2.0038433,-3.5741923,1.4843236955895338,4.163871831490881,jump
05/08/2020, 15:29:22,0.1794617,1.2179468,0.21296121,-0.73999333,-2.0038433,-3.5741923,1.2493811706923863,4.163871831490881,jump
05/08/2020, 15:29:22,0.1794617,1.2179468,0.21296121,-0.83524,-2.2724879,-3.8819125,1.2493811706923863,4.575048792236479,jump
05/08/2020, 15:29:22,0.74416786,0.71306115,0.49052864,-0.83524,-2.2724879,-3.8819125,1.141429090748887,4.575048792236479,jump
05/08/2020, 15:29:22,0.74416786,0.71306115,0.49052864,-0.9952056,-2.5545645,-4.1615467,1.141429090748887,4.983443067474063,jump
05/08/2020, 15:29:22,1.3878372,-0.10049855,0.80877405,-0.9952056,-2.5545645,-4.1615467,1.609443209229064,4.983443067474063,jump
05/08/2020, 15:29:22,1.3878372,-0.10049855,0.80877405,-1.174709,-2.8073347,-4.402106,1.609443209229064,5.351598321539603,jump
05/08/2020, 15:29:22,2.1415763,-1.0217353,1.3375878,-1.174709,-2.8073347,-4.402106,2.7238636646049987,5.351598321539603,jump
05/08/2020, 15:29:22,2.1415763,-1.0217353,1.3375878,-1.2614079,-3.0002701,-4.6109157,2.7238636646049987,5.643874010246891,jump
05/08/2020, 15:29:22,2.8785655,-2.1535404,2.0051854,-1.2614079,-3.0002701,-4.6109157,4.116387264701795,5.643874010246891,jump
05/08/2020, 15:29:22,2.8785655,-2.1535404,2.0051854,-1.2662922,-3.1321502,-4.7647758,4.116387264701795,5.840971550710547,jump
05/08/2020, 15:29:22,3.5653057,-3.3834512,2.5411777,-1.2662922,-3.1321502,-4.7647758,5.533238774966296,5.840971550710547,jump
05/08/2020, 15:29:23,7.585248,-3.385844,1.564906,0.48478112,0.05006556,0.3370267,8.45274259956033,0.5925422158220285,jump
05/08/2020, 15:29:23,7.585248,-3.385844,1.564906,0.5189722,0.034191113,0.24910668,8.45274259956033,0.5766761058183099,jump
05/08/2020, 15:29:23,7.4536424,-3.3379877,1.5984055,0.5189722,0.034191113,0.24910668,8.321889584817393,0.5766761058183099,jump
05/08/2020, 15:29:23,7.4536424,-3.3379877,1.5984055,0.5238567,-0.054950003,0.17217667,8.321889584817393,0.554157154092928,jump
05/08/2020, 15:29:23,7.372287,-3.249453,1.5744773,0.5238567,-0.054950003,0.17217667,8.209052117380468,0.554157154092928,jump
05/08/2020, 15:29:23,7.372287,-3.249453,1.5744773,0.49821335,-0.19904111,0.09280445,8.209052117380468,0.5444690744238585,jump
05/08/2020, 15:29:23,7.470392,-3.2327034,1.6199409,0.49821335,-0.19904111,0.09280445,8.299478299936043,0.5444690744238585,jump
05/08/2020, 15:29:23,7.470392,-3.2327034,1.6199409,0.46280113,-0.32115224,0.014653334,8.299478299936043,0.5635054269016552,jump
05/08/2020, 15:29:23,7.776674,-3.2733815,1.6845472,0.46280113,-0.32115224,0.014653334,8.60403282045199,0.5635054269016552,jump
05/08/2020, 15:29:23,7.776674,-3.2733815,1.6845472,0.4481478,-0.35412225,-0.06594,8.60403282045199,0.5749670479981487,jump
05/08/2020, 15:29:23,8.133204,-3.4049866,1.7706888,0.4481478,-0.35412225,-0.06594,8.993235646892701,0.5749670479981487,jump
05/08/2020, 15:29:23,8.133204,-3.4049866,1.7706888,0.46524334,-0.31260446,-0.14897557,8.993235646892701,0.5799712328060799,jump
05/08/2020, 15:29:23,8.353344,-3.5700915,1.9142581,0.46524334,-0.31260446,-0.14897557,9.283765009530763,0.5799712328060799,jump
05/08/2020, 15:29:23,8.353344,-3.5700915,1.9142581,0.5104245,-0.23811668,-0.23933779,9.283765009530763,0.6119765479004047,jump
05/08/2020, 15:29:23,8.374879,-3.6873398,2.0027926,0.5104245,-0.23811668,-0.23933779,9.367296790965698,0.6119765479004047,jump
05/08/2020, 15:29:23,8.374879,-3.6873398,2.0027926,0.58979666,-0.21003112,-0.31993112,9.367296790965698,0.7030854119038144,jump
05/08/2020, 15:29:23,8.185846,-3.804588,2.0697916,0.58979666,-0.21003112,-0.31993112,9.261047870236212,0.7030854119038144,jump
05/08/2020, 15:29:23,8.185846,-3.804588,2.0697916,0.7106867,-0.2625389,-0.3834289,9.261047870236212,0.8491289442699013,jump
05/08/2020, 15:29:23,7.9561353,-3.9338005,2.1343977,0.7106867,-0.2625389,-0.3834289,9.128555650642891,0.8491289442699013,jump
05/08/2020, 15:29:23,7.9561353,-3.9338005,2.1343977,0.8621045,-0.3858711,-0.4273889,9.128555650642891,1.036716894527566,jump
05/08/2020, 15:29:24,8.721839,-2.5507488,2.6273193,-1.0525978,0.019537779,0.036633335,9.45936579008962,1.0534162391075301,jump
05/08/2020, 15:29:24,8.721839,-2.5507488,2.6273193,-1.075799,-0.014653334,0.018316668,9.45936579008962,1.0760546844080197,jump
05/08/2020, 15:29:24,8.71466,-2.644069,2.6416762,-1.075799,-0.014653334,0.018316668,9.482343974629819,1.0760546844080197,jump
05/08/2020, 15:29:24,8.71466,-2.644069,2.6416762,-1.0782411,-0.03297,-0.018316668,9.482343974629819,1.078900557131861,jump
05/08/2020, 15:29:24,8.748159,-2.7637103,2.6536403,-1.0782411,-0.03297,-0.018316668,9.550402825270517,1.078900557131861,jump
05/08/2020, 15:29:24,8.748159,-2.7637103,2.6536403,-1.05504,-0.04029667,-0.047623336,9.550402825270517,1.0568827793672408,jump
05/08/2020, 15:29:24,8.803194,-2.8283165,2.6751757,-1.05504,-0.04029667,-0.047623336,9.625599420409733,1.0568827793672408,jump
05/08/2020, 15:29:24,8.803194,-2.8283165,2.6751757,-1.0049745,-0.045181114,-0.08059334,9.625599420409733,1.0092127297720015,jump
05/08/2020, 15:29:24,8.85823,-2.9455647,2.684747,-1.0049745,-0.045181114,-0.08059334,9.713518946938734,1.0092127297720015,jump
05/08/2020, 15:29:24,8.85823,-2.9455647,2.684747,-0.93903446,-0.05006556,-0.12699556,9.713518946938734,0.9489047128482497,jump
05/08/2020, 15:29:24,8.925228,-3.0532417,2.6632116,-0.93903446,-0.05006556,-0.12699556,9.801769124815237,0.9489047128482497,jump
05/08/2020, 15:29:24,8.925228,-3.0532417,2.6632116,-0.8547778,-0.05617111,-0.17339778,9.801769124815237,0.8739949045874305,jump
05/08/2020, 15:29:24,8.956335,-3.1106694,2.6225336,-0.8547778,-0.05617111,-0.17339778,9.83716849887732,0.8739949045874305,jump
05/08/2020, 15:29:24,8.956335,-3.1106694,2.6225336,-0.7558678,-0.046402223,-0.21369445,9.83716849887732,0.7868637654627925,jump
05/08/2020, 15:29:24,8.930014,-3.17049,2.6225336,-0.7558678,-0.046402223,-0.21369445,9.832336100215256,0.7868637654627925,jump
05/08/2020, 15:29:24,8.930014,-3.17049,2.6225336,-0.6447467,-0.042738892,-0.2515489,9.832336100215256,0.6933987230086953,jump
05/08/2020, 15:29:24,8.872586,-3.249453,2.5866413,-0.6447467,-0.042738892,-0.2515489,9.796552724500467,0.6933987230086953,jump
05/08/2020, 15:29:24,8.872586,-3.249453,2.5866413,-0.5324045,-0.047623336,-0.2845189,9.796552724500467,0.6055357281427687,jump
05/08/2020, 15:29:24,8.796016,-3.3212378,2.589034,-0.5324045,-0.047623336,-0.2845189,9.752108023361009,0.6055357281427687,jump
05/08/2020, 15:29:24,8.796016,-3.3212378,2.589034,-0.42006224,-0.064718895,-0.31016225,9.752108023361009,0.5261572417950913,jump
05/08/2020, 15:29:25,21.399014,-8.733803,10.597812,-1.2992623,5.921168,4.34105,25.426574753068415,7.4560732015650055,jump
05/08/2020, 15:29:25,21.399014,-8.733803,10.597812,-1.5947711,6.3302402,5.0273147,25.426574753068415,8.239485988143441,jump
05/08/2020, 15:29:25,20.008783,-9.927821,8.7984085,-1.5947711,6.3302402,5.0273147,24.006770628646926,8.239485988143441,jump
05/08/2020, 15:29:25,20.008783,-9.927821,8.7984085,-1.4958612,6.443804,5.425397,24.006770628646926,8.555415806824989,jump
05/08/2020, 15:29:25,18.580267,-11.653047,7.1545396,-1.4958612,6.443804,5.425397,23.06961750764874,8.555415806824989,jump
05/08/2020, 15:29:25,18.580267,-11.653047,7.1545396,-0.92438114,6.448688,5.482789,23.06961750764874,8.514753869051743,jump
05/08/2020, 15:29:25,17.398214,-13.411771,5.8360944,-0.92438114,6.448688,5.482789,22.7295722876216,8.514753869051743,jump
05/08/2020, 15:29:25,17.398214,-13.411771,5.8360944,0.008547778,6.426708,5.3704467,22.7295722876216,8.375222336865486,jump
05/08/2020, 15:29:25,16.508083,-14.565111,4.7114677,0.008547778,6.426708,5.3704467,22.51348944699543,8.375222336865486,jump
05/08/2020, 15:29:25,16.508083,-14.565111,4.7114677,0.90362227,6.46212,5.215366,22.51348944699543,8.353177249306384,jump
05/08/2020, 15:29:25,15.895521,-14.313865,4.4051867,0.90362227,6.46212,5.215366,21.839413577284088,8.353177249306384,jump
05/08/2020, 15:29:25,15.895521,-14.313865,4.4051867,1.5215045,6.553704,5.0370836,21.839413577284088,8.404654708110085,jump
05/08/2020, 15:29:25,15.409778,-12.7393875,4.6707897,1.5215045,6.553704,5.0370836,20.53215813634833,8.404654708110085,jump
05/08/2020, 15:29:25,15.409778,-12.7393875,4.6707897,1.7950335,6.6501713,4.8685703,20.53215813634833,8.435040023178823,jump
05/08/2020, 15:29:25,14.91207,-11.112268,5.477171,1.7950335,6.6501713,4.8685703,19.386896385885073,8.435040023178823,jump
05/08/2020, 15:29:25,14.91207,-11.112268,5.477171,1.6717012,6.8479915,4.8075147,19.386896385885073,8.532395283980343,jump
05/08/2020, 15:29:25,14.407186,-9.750752,6.1710896,1.6717012,6.8479915,4.8075147,18.458778843216134,8.532395283980343,jump
05/08/2020, 15:29:25,14.407186,-9.750752,6.1710896,1.471439,6.950565,4.954048,18.458778843216134,8.661297695652532,jump
05/08/2020, 15:29:25,13.801801,-8.9108715,6.142376,1.471439,6.950565,4.954048,17.53915951764605,8.661297695652532,jump
05/08/2020, 15:29:25,13.801801,-8.9108715,6.142376,1.3737501,6.873635,5.1140137,17.53915951764605,8.676818582896367,jump
05/08/2020, 15:29:26,9.133404,-2.5459633,2.2827528,-2.4751923,0.96223557,-0.4908867,9.75253576061528,2.700637701813979,jump
05/08/2020, 15:29:26,9.133404,-2.5459633,2.2827528,-2.4104733,0.9317078,-0.4713489,9.75253576061528,2.6269052086290374,jump
05/08/2020, 15:29:26,9.662218,-2.210968,2.0075781,-2.4104733,0.9317078,-0.4713489,10.11321946931699,2.6269052086290374,jump
05/08/2020, 15:29:26,9.662218,-2.210968,2.0075781,-2.4507701,1.0965579,-0.22224224,10.11321946931699,2.6940870475601835,jump
05/08/2020, 15:29:26,10.281959,-2.4717858,1.9453648,-2.4507701,1.0965579,-0.22224224,10.752341211802294,2.6940870475601835,jump
05/08/2020, 15:29:26,10.281959,-2.4717858,1.9453648,-2.4300113,1.3590968,0.109900005,10.752341211802294,2.786427248882602,jump
05/08/2020, 15:29:26,10.832308,-3.278167,1.7324036,-2.4300113,1.3590968,0.109900005,11.449301022771236,2.786427248882602,jump
05/08/2020, 15:29:26,10.832308,-3.278167,1.7324036,-2.261498,1.5764545,0.29917222,11.449301022771236,2.77292011448573,jump
05/08/2020, 15:29:26,11.188839,-4.0366917,1.5314065,-2.261498,1.5764545,0.29917222,11.992923029151385,2.77292011448573,jump
05/08/2020, 15:29:26,11.188839,-4.0366917,1.5314065,-1.9501145,1.73642,0.26009667,11.992923029151385,2.624071518687904,jump
05/08/2020, 15:29:26,11.380264,-4.45065,1.3782659,-1.9501145,1.73642,0.26009667,12.297085802962375,2.624071518687904,jump
05/08/2020, 15:29:26,11.380264,-4.45065,1.3782659,-1.6094245,1.8096868,0.15386,12.297085802962375,2.426702757379629,jump
05/08/2020, 15:29:26,11.425728,-4.493721,1.119841,-1.6094245,1.8096868,0.15386,12.328618296085889,2.426702757379629,jump
05/08/2020, 15:29:26,11.425728,-4.493721,1.119841,-1.3871822,1.8072445,0.15019667,12.328618296085889,2.283192155711958,jump
05/08/2020, 15:29:26,11.502298,-4.3525443,0.89013004,-1.3871822,1.8072445,0.15019667,12.330443661680084,2.283192155711958,jump
05/08/2020, 15:29:26,11.502298,-4.3525443,0.89013004,-1.3481067,1.8218979,0.28085557,12.330443661680084,2.2837651947527986,jump
05/08/2020, 15:29:26,11.662618,-4.2017965,0.74177504,-1.3481067,1.8218979,0.28085557,12.418614074317631,2.2837651947527986,jump
05/08/2020, 15:29:26,11.662618,-4.2017965,0.74177504,-1.4225945,1.9098178,0.46768558,12.418614074317631,2.426913499433972,jump
05/08/2020, 15:29:26,11.815758,-4.0534415,0.70588267,-1.4225945,1.9098178,0.46768558,12.51162618429634,2.426913499433972,jump
05/08/2020, 15:29:26,11.815758,-4.0534415,0.70588267,-1.5239468,2.0392556,0.63009334,12.51162618429634,2.6225931490982006,jump
05/08/2020, 15:29:27,8.922835,-3.7328033,3.1944182,0.042738892,0.40907225,0.22102112,10.186025676340561,0.46692296189669313,jump
05/08/2020, 15:29:27,9.042477,-3.7423747,3.225525,0.042738892,0.40907225,0.22102112,10.304162412343109,0.46692296189669313,jump
05/08/2020, 15:29:27,9.042477,-3.7423747,3.225525,0.07204556,0.47623336,0.24300112,10.304162412343109,0.5394796770845184,jump
05/08/2020, 15:29:27,9.08794,-3.7304106,3.1872396,0.07204556,0.47623336,0.24300112,10.327880566802904,0.5394796770845184,jump
05/08/2020, 15:29:27,9.08794,-3.7304106,3.1872396,0.08669889,0.50554,0.26986557,10.327880566802904,0.5795815988597023,jump
05/08/2020, 15:29:27,9.0233345,-3.682554,3.141776,0.08669889,0.50554,0.26986557,10.239752269228449,0.5795815988597023,jump
05/08/2020, 15:29:27,9.0233345,-3.682554,3.141776,0.08303556,0.5018767,0.2942878,10.239752269228449,0.587690775455106,jump
05/08/2020, 15:29:27,8.980264,-3.6323047,3.0412776,0.08303556,0.5018767,0.2942878,10.153233141815695,0.587690775455106,jump
05/08/2020, 15:29:27,8.980264,-3.6323047,3.0412776,0.070824444,0.48844448,0.3260367,10.153233141815695,0.5915184136153026,jump
05/08/2020, 15:29:27,9.042477,-3.5533416,2.9312077,0.070824444,0.48844448,0.3260367,10.148132788141679,0.5915184136153026,jump
05/08/2020, 15:29:27,9.042477,-3.5533416,2.9312077,0.047623336,0.48356003,0.37488112,10.148132788141679,0.6137052498095643,jump
05/08/2020, 15:29:27,9.171689,-3.4983068,2.8163524,0.047623336,0.48356003,0.37488112,10.212241208989935,0.6137052498095643,jump
05/08/2020, 15:29:27,9.171689,-3.4983068,2.8163524,0.024422223,0.48966557,0.41029334,10.212241208989935,0.6393038704208129,jump
05/08/2020, 15:29:27,9.336794,-3.4576287,2.7589245,0.024422223,0.48966557,0.41029334,10.331630125286093,0.6393038704208129,jump
05/08/2020, 15:29:27,9.336794,-3.4576287,2.7589245,0.0024422223,0.52019334,0.4359367,10.331630125286093,0.6787104470275709,jump
05/08/2020, 15:29:27,9.530613,-3.414558,2.656033,0.0024422223,0.52019334,0.4359367,10.466436858171571,0.6787104470275709,jump
05/08/2020, 15:29:27,9.530613,-3.414558,2.656033,-0.017095556,0.5641534,0.46768558,10.466436858171571,0.7330014246700193,jump
05/08/2020, 15:29:27,9.686146,-3.3786657,2.5794628,-0.017095556,0.5641534,0.46768558,10.577827286319655,0.7330014246700193,jump
05/08/2020, 15:29:27,9.686146,-3.3786657,2.5794628,-0.048844445,0.61299783,0.4908867,10.577827286319655,0.7868429703689751,jump
05/08/2020, 15:29:27,9.736395,-3.3379877,2.524428,-0.048844445,0.61299783,0.4908867,10.59774896406359,0.7868429703689751,jump
05/08/2020, 15:29:28,9.375079,-3.4719856,2.3042881,-0.11966889,0.14164889,0.064718895,10.259460848044505,0.19640159632659382,jump
05/08/2020, 15:29:28,9.346365,-3.4695928,2.292324,-0.11966889,0.14164889,0.064718895,10.229729328516937,0.19640159632659382,jump
05/08/2020, 15:29:28,9.346365,-3.4695928,2.292324,-0.10501556,0.12943779,0.078151114,10.229729328516937,0.18409238446278028,jump
05/08/2020, 15:29:28,9.341579,-3.4911282,2.3018954,-0.10501556,0.12943779,0.078151114,10.234832918793312,0.18409238446278028,jump
05/08/2020, 15:29:28,9.341579,-3.4911282,2.3018954,-0.089141116,0.11234222,0.09402556,10.234832918793312,0.17148679117842217,jump
05/08/2020, 15:29:28,9.346365,-3.4672,2.3401806,-0.089141116,0.11234222,0.09402556,10.239749009377105,0.17148679117842217,jump
05/08/2020, 15:29:28,9.346365,-3.4672,2.3401806,-0.07326667,0.10013112,0.098910004,10.239749009377105,0.15867398770246838,jump
05/08/2020, 15:29:28,9.355937,-3.4193435,2.3808584,-0.07326667,0.10013112,0.098910004,10.241774935193652,0.15867398770246838,jump
05/08/2020, 15:29:28,9.355937,-3.4193435,2.3808584,-0.06594,0.102573335,0.11478445,10.241774935193652,0.16746594433942244,jump
05/08/2020, 15:29:28,9.408579,-3.4049866,2.347359,-0.06594,0.102573335,0.11478445,10.277421091315853,0.16746594433942244,jump
05/08/2020, 15:29:28,9.408579,-3.4049866,2.347359,-0.058613338,0.106236674,0.12699556,10.277421091315853,0.1756406199370263,jump
05/08/2020, 15:29:28,9.430114,-3.3547373,2.347359,-0.058613338,0.106236674,0.12699556,10.28063239157059,0.1756406199370263,jump
05/08/2020, 15:29:28,9.430114,-3.3547373,2.347359,-0.059834447,0.11844778,0.14775445,10.28063239157059,0.19859862528708236,jump
05/08/2020, 15:29:28,9.444471,-3.290131,2.3521447,-0.059834447,0.11844778,0.14775445,10.274024850757394,0.19859862528708236,jump
05/08/2020, 15:29:28,9.444471,-3.290131,2.3521447,-0.06716111,0.1306589,0.16118668,10.274024850757394,0.21809059530428107,jump
05/08/2020, 15:29:28,9.413364,-3.2183464,2.306681,-0.06716111,0.1306589,0.16118668,10.212245573579667,0.21809059530428107,jump
05/08/2020, 15:29:28,9.413364,-3.2183464,2.306681,-0.07448778,0.12821667,0.17339778,10.212245573579667,0.22815506556250453,jump
05/08/2020, 15:29:28,9.387043,-3.158526,2.3258235,-0.07448778,0.12821667,0.17339778,10.173608876503756,0.22815506556250453,jump
05/08/2020, 15:29:28,9.387043,-3.158526,2.3258235,-0.081814446,0.123332225,0.19171445,10.173608876503756,0.24219593676598034,jump
05/08/2020, 15:29:28,9.4229355,-3.1082766,2.347359,-0.081814446,0.123332225,0.19171445,10.196234139622076,0.24219593676598034,jump
05/08/2020, 15:29:29,8.9348,-2.495714,3.5102708,0.059834447,0.117226675,0.089141116,9.918731931499469,0.158960349984015,jump
05/08/2020, 15:29:29,8.920443,-2.4741786,3.5030923,0.059834447,0.117226675,0.089141116,9.897853855225454,0.158960349984015,jump
05/08/2020, 15:29:29,8.920443,-2.4741786,3.5030923,0.037854444,0.11600556,0.11600556,9.897853855225454,0.16836727678599833,jump
05/08/2020, 15:29:29,8.963513,-2.4382863,3.4743786,0.037854444,0.11600556,0.11600556,9.91771741238505,0.16836727678599833,jump
05/08/2020, 15:29:29,8.963513,-2.4382863,3.4743786,0.008547778,0.12699556,0.13798556,9.91771741238505,0.18772573529388414,jump
05/08/2020, 15:29:29,9.032906,-2.3856442,3.4576287,0.008547778,0.12699556,0.13798556,9.961921393111382,0.18772573529388414,jump
05/08/2020, 15:29:29,9.032906,-2.3856442,3.4576287,-0.02198,0.15874445,0.15630223,9.961921393111382,0.22386002073299233,jump
05/08/2020, 15:29:29,9.073584,-2.3856442,3.4791641,-0.02198,0.15874445,0.15630223,10.006288054733343,0.22386002073299233,jump
05/08/2020, 15:29:29,9.073584,-2.3856442,3.4791641,-0.04396,0.20636779,0.16118668,10.006288054733343,0.2655207950936658,jump
05/08/2020, 15:29:29,9.02812,-2.3521447,3.4743786,-0.04396,0.20636779,0.16118668,9.95544287340209,0.2655207950936658,jump
05/08/2020, 15:29:29,9.02812,-2.3521447,3.4743786,-0.05617111,0.23201112,0.16973445,9.95544287340209,0.29290636488207256,jump
05/08/2020, 15:29:29,8.958728,-2.3377876,3.4217365,-0.05617111,0.23201112,0.16973445,9.870781933325349,0.29290636488207256,jump
05/08/2020, 15:29:29,8.958728,-2.3377876,3.4217365,-0.06960334,0.23567446,0.17339778,9.870781933325349,0.3007554883943326,jump
05/08/2020, 15:29:29,8.886943,-2.3377876,3.4360933,-0.06960334,0.23567446,0.17339778,9.810695277503386,0.3007554883943326,jump
05/08/2020, 15:29:29,8.886943,-2.3377876,3.4360933,-0.081814446,0.22712667,0.1746189,9.810695277503386,0.2979461179523684,jump
05/08/2020, 15:29:29,8.829515,-2.3186452,3.4097722,-0.081814446,0.22712667,0.1746189,9.744896362665358,0.2979461179523684,jump
05/08/2020, 15:29:29,8.829515,-2.3186452,3.4097722,-0.09280445,0.21613668,0.17339778,9.744896362665358,0.2922234064964587,jump
05/08/2020, 15:29:29,8.831908,-2.306681,3.4097722,-0.09280445,0.21613668,0.17339778,9.744225260953266,0.2922234064964587,jump
05/08/2020, 15:29:29,8.831908,-2.306681,3.4097722,-0.10013112,0.21369445,0.17950334,9.744225260953266,0.29650127778909585,jump
05/08/2020, 15:29:29,8.855837,-2.2899313,3.3762727,-0.10013112,0.21369445,0.17950334,9.750325593681652,0.29650127778909585,jump
05/08/2020, 15:29:30,8.142776,-3.6921253,4.3094735,-0.35900667,-0.26498112,0.009768889,9.925126940113081,0.4463140339716688,jump
05/08/2020, 15:29:30,8.142776,-3.6921253,4.3094735,-0.2942878,-0.29673,0.018316668,9.925126940113081,0.4183174749479998,jump
05/08/2020, 15:29:30,8.216953,-3.7040894,4.342973,-0.2942878,-0.29673,0.018316668,10.004999548666472,0.4183174749479998,jump
05/08/2020, 15:29:30,8.216953,-3.7040894,4.342973,-0.23079,-0.31016225,0.034191113,10.004999548666472,0.38811554619572397,jump
05/08/2020, 15:29:30,8.240881,-3.682554,4.3812585,-0.23079,-0.31016225,0.034191113,10.033381735300614,0.38811554619572397,jump
05/08/2020, 15:29:30,8.240881,-3.682554,4.3812585,-0.16851334,-0.31504667,0.047623336,10.033381735300614,0.3604429662147168,jump
05/08/2020, 15:29:30,8.250452,-3.6490545,4.388437,-0.16851334,-0.31504667,0.047623336,10.032145101206027,0.3604429662147168,jump
05/08/2020, 15:29:30,8.250452,-3.6490545,4.388437,-0.10379445,-0.34801668,0.06349778,10.032145101206027,0.3686744699613613,jump
05/08/2020, 15:29:30,8.262417,-3.6179478,4.3932223,-0.10379445,-0.34801668,0.06349778,10.032820186524317,0.3686744699613613,jump
05/08/2020, 15:29:30,8.262417,-3.6179478,4.3932223,-0.045181114,-0.39686114,0.06349778,10.032820186524317,0.4044404314674036,jump
05/08/2020, 15:29:30,8.343773,-3.6083765,4.398008,-0.045181114,-0.39686114,0.06349778,10.098584070009332,0.4044404314674036,jump
05/08/2020, 15:29:30,8.343773,-3.6083765,4.398008,0.007326667,-0.4359367,0.06960334,10.098584070009332,0.4415190844962345,jump
05/08/2020, 15:29:30,8.482556,-3.5844483,4.409972,0.007326667,-0.4359367,0.06960334,10.210283381093545,0.4415190844962345,jump
05/08/2020, 15:29:30,8.482556,-3.5844483,4.409972,0.058613338,-0.44082114,0.06960334,10.210283381093545,0.45011490363656376,jump
05/08/2020, 15:29:30,8.669196,-3.5796626,4.4554358,0.058613338,-0.44082114,0.06960334,10.383633916983637,0.45011490363656376,jump
05/08/2020, 15:29:30,8.669196,-3.5796626,4.4554358,0.11966889,-0.42006224,0.07448778,10.383633916983637,0.44308166592222886,jump
05/08/2020, 15:29:30,8.82473,-3.5796626,4.496114,0.11966889,-0.42006224,0.07448778,10.531138651718912,0.44308166592222886,jump
05/08/2020, 15:29:30,8.82473,-3.5796626,4.496114,0.17584,-0.38831335,0.07448778,10.531138651718912,0.43273016701038025,jump
05/08/2020, 15:29:30,8.946764,-3.5700915,4.505685,0.17584,-0.38831335,0.07448778,10.634440988753651,0.43273016701038025,jump
05/08/2020, 15:29:30,8.946764,-3.5700915,4.505685,0.21247335,-0.3614489,0.07204556,10.634440988753651,0.42541838597653264,jump
05/08/2020, 15:29:31,7.7479596,-5.144569,2.7062824,-0.46158,0.098910004,-0.42861003,9.68614638834645,0.6376094792342047,jump
05/08/2020, 15:29:31,7.7479596,-5.144569,2.7062824,-0.40540892,0.10867889,-0.40663,9.68614638834645,0.5843932388948644,jump
05/08/2020, 15:29:31,7.5254273,-5.3072805,2.7230322,-0.40540892,0.10867889,-0.40663,9.602821875139593,0.5843932388948644,jump
05/08/2020, 15:29:31,7.5254273,-5.3072805,2.7230322,-0.30161446,0.098910004,-0.3809867,9.602821875139593,0.49588842668019645,jump
05/08/2020, 15:29:31,7.3028946,-5.5872407,2.7613173,-0.30161446,0.098910004,-0.3809867,9.600750022414063,0.49588842668019645,jump
05/08/2020, 15:29:31,7.3028946,-5.5872407,2.7613173,-0.16485001,0.081814446,-0.35778558,9.600750022414063,0.40234270573443076,jump
05/08/2020, 15:29:31,7.056434,-5.907879,2.8378878,-0.16485001,0.081814446,-0.35778558,9.63067509306582,0.40234270573443076,jump
05/08/2020, 15:29:31,7.056434,-5.907879,2.8378878,0.0,0.068382226,-0.34191114,9.63067509306582,0.3486823117093981,jump
05/08/2020, 15:29:31,6.8458657,-6.1710896,2.8953154,0.0,0.068382226,-0.34191114,9.660801018509419,0.3486823117093981,jump
05/08/2020, 15:29:31,6.8458657,-6.1710896,2.8953154,0.17217667,0.059834447,-0.33580557,9.660801018509419,0.38208682999571414,jump
05/08/2020, 15:29:31,6.6329045,-6.290731,2.969493,0.17217667,0.059834447,-0.33580557,9.611795179898637,0.38208682999571414,jump
05/08/2020, 15:29:31,6.6329045,-6.290731,2.969493,0.34313223,0.045181114,-0.33336335,9.611795179898637,0.48053322951557637,jump
05/08/2020, 15:29:31,6.407979,-6.302695,3.0580273,0.34313223,0.045181114,-0.33336335,9.49408697513456,0.48053322951557637,jump
05/08/2020, 15:29:31,6.407979,-6.302695,3.0580273,0.4908867,0.024422223,-0.31260446,9.49408697513456,0.5824841047372382,jump
05/08/2020, 15:29:31,6.1639113,-6.300302,3.1393833,0.4908867,0.024422223,-0.31260446,9.356459602702696,0.5824841047372382,jump
05/08/2020, 15:29:31,6.1639113,-6.300302,3.1393833,0.61788225,0.0,-0.28085557,9.356459602702696,0.6787181492458407,jump
05/08/2020, 15:29:31,5.907879,-6.3960147,3.17049,0.61788225,0.0,-0.28085557,9.266285325743993,0.6787181492458407,jump
05/08/2020, 15:29:31,5.907879,-6.3960147,3.17049,0.7558678,-0.026864445,-0.23445335,9.266285325743993,0.79184984156193,jump
05/08/2020, 15:29:31,5.6063833,-6.661618,3.2733815,0.7558678,-0.026864445,-0.23445335,9.301812603431461,0.79184984156193,jump
05/08/2020, 15:29:31,5.6063833,-6.661618,3.2733815,0.97933114,-0.04029667,-0.16607112,9.301812603431461,0.9941292224568085,jump
05/08/2020, 15:29:32,19.542183,1.9740787,9.8321085,-2.0783312,-3.6645546,1.1673822,21.965069028281174,4.371636122990659,jump
05/08/2020, 15:29:32,18.479769,0.61016977,9.858429,-2.0783312,-3.6645546,1.1673822,20.953824991508803,4.371636122990659,jump
05/08/2020, 15:29:32,18.479769,0.61016977,9.858429,-2.8024502,-3.3018847,0.9817734,20.953824991508803,4.440726091997038,jump
05/08/2020, 15:29:32,17.584854,-0.81834537,9.731609,-2.8024502,-3.3018847,0.9817734,20.11469622456849,4.440726091997038,jump
05/08/2020, 15:29:32,17.584854,-0.81834537,9.731609,-3.2615879,-2.9343302,0.80471224,20.11469622456849,4.460472061195376,jump
05/08/2020, 15:29:32,16.773687,-2.0673988,9.504292,-3.2615879,-2.9343302,0.80471224,19.389746853802727,4.460472061195376,jump
05/08/2020, 15:29:32,16.773687,-2.0673988,9.504292,-3.4838302,-2.5802078,0.6655056,19.389746853802727,4.386050964504697,jump
05/08/2020, 15:29:32,15.924234,-2.955136,9.190832,-3.4838302,-2.5802078,0.6655056,18.622176710665748,4.386050964504697,jump
05/08/2020, 15:29:32,15.924234,-2.955136,9.190832,-3.525348,-2.2407389,0.5250778,18.622176710665748,4.210070729765265,jump
05/08/2020, 15:29:32,15.110675,-3.5557344,8.9013,-3.525348,-2.2407389,0.5250778,17.894381551542757,4.210070729765265,jump
05/08/2020, 15:29:32,15.110675,-3.5557344,8.9013,-3.4581869,-1.8976067,0.38709223,17.894381551542757,3.963560027595445,jump
05/08/2020, 15:29:32,14.242081,-3.830909,8.62134,-3.4581869,-1.8976067,0.38709223,17.08333182142225,3.963560027595445,jump
05/08/2020, 15:29:32,14.242081,-3.830909,8.62134,-3.3226435,-1.5569167,0.23933779,17.08333182142225,3.6771228128020126,jump
05/08/2020, 15:29:32,13.399807,-3.8572302,8.329415,-3.3226435,-1.5569167,0.23933779,16.242296983785536,3.6771228128020126,jump
05/08/2020, 15:29:32,13.399807,-3.8572302,8.329415,-3.1345923,-1.2528601,0.085477784,16.242296983785536,3.376778591903374,jump
05/08/2020, 15:29:32,12.545569,-3.7280176,8.0614195,-3.1345923,-1.2528601,0.085477784,15.371269017411205,3.376778591903374,jump
05/08/2020, 15:29:32,12.545569,-3.7280176,8.0614195,-2.9123502,-1.0049745,-0.045181114,15.371269017411205,3.081200838211097,jump
05/08/2020, 15:29:32,11.79183,-3.438486,7.8077803,-2.9123502,-1.0049745,-0.045181114,14.55444521668024,3.081200838211097,jump
05/08/2020, 15:29:32,11.79183,-3.438486,7.8077803,-2.6937711,-0.8034911,-0.15141778,14.55444521668024,2.8151248966709796,jump
05/08/2020, 15:29:32,11.160125,-3.0556345,7.539784,-2.6937711,-0.8034911,-0.15141778,13.810634646842885,2.8151248966709796,jump
05/08/2020, 15:29:33,8.114061,-5.515456,4.453043,0.51775116,-1.1490656,-0.9170545,10.774406739581336,1.5586554957706185,jump
05/08/2020, 15:29:33,8.01117,-5.3982077,4.3238306,0.51775116,-1.1490656,-0.9170545,10.58371428467661,1.5586554957706185,jump
05/08/2020, 15:29:33,8.01117,-5.3982077,4.3238306,0.36999667,-1.0843467,-0.89385337,10.58371428467661,1.4531617376857295,jump
05/08/2020, 15:29:33,7.905886,-5.4341,4.182654,0.36999667,-1.0843467,-0.89385337,10.465518349152726,1.4531617376857295,jump
05/08/2020, 15:29:33,7.905886,-5.4341,4.182654,0.20270446,-1.0245123,-0.8584412,10.465518349152726,1.3519008031138473,jump
05/08/2020, 15:29:33,7.8699937,-5.690132,4.0103707,0.20270446,-1.0245123,-0.8584412,10.50702040611656,1.3519008031138473,jump
05/08/2020, 15:29:33,7.8699937,-5.690132,4.0103707,0.047623336,-0.97933114,-0.8327978,10.50702040611656,1.2864329261550884,jump
05/08/2020, 15:29:33,7.9226356,-5.979664,3.8380876,0.047623336,-0.97933114,-0.8327978,10.642154386953589,1.2864329261550884,jump
05/08/2020, 15:29:33,7.9226356,-5.979664,3.8380876,-0.06227667,-0.9329289,-0.8327978,10.642154386953589,1.2521130023893035,jump
05/08/2020, 15:29:33,7.9657063,-6.1854467,3.682554,-0.06227667,-0.9329289,-0.8327978,10.736546605125818,1.2521130023893035,jump
05/08/2020, 15:29:33,7.9657063,-6.1854467,3.682554,-0.12577444,-0.8584412,-0.8535567,10.736546605125818,1.217086474866428,jump
05/08/2020, 15:29:33,8.051848,-6.276374,3.591627,-0.12577444,-0.8584412,-0.8535567,10.822426501350526,1.217086474866428,jump
05/08/2020, 15:29:33,8.051848,-6.276374,3.591627,-0.16118668,-0.7754056,-0.8767578,10.822426501350526,1.1814987131547263,jump
05/08/2020, 15:29:33,8.126026,-6.309873,3.546163,-0.16118668,-0.7754056,-0.8767578,10.882190599470837,1.1814987131547263,jump
05/08/2020, 15:29:33,8.126026,-6.309873,3.546163,-0.18316667,-0.6972545,-0.8853056,10.882190599470837,1.1417004041014644,jump
05/08/2020, 15:29:33,8.123632,-6.343373,3.5006995,-0.18316667,-0.6972545,-0.8853056,10.885158692506208,1.1417004041014644,jump
05/08/2020, 15:29:33,8.123632,-6.343373,3.5006995,-0.19537778,-0.6337567,-0.8645467,10.885158692506208,1.089615094162673,jump
05/08/2020, 15:29:33,8.087741,-6.393622,3.5030923,-0.19537778,-0.6337567,-0.8645467,10.888599987875297,1.089615094162673,jump
05/08/2020, 15:29:33,8.087741,-6.393622,3.5030923,-0.16973445,-0.5836911,-0.8327978,10.888599987875297,1.0310467130679901,jump
05/08/2020, 15:29:33,7.9944205,-6.4438715,3.548556,-0.16973445,-0.5836911,-0.8327978,10.863999714140606,1.0310467130679901,jump
05/08/2020, 15:29:34,8.729017,-4.5248275,1.6558332,1.8035812,-1.1087689,0.10013112,9.970536081108644,2.119504678956475,jump
05/08/2020, 15:29:34,8.867801,-4.4171505,1.7611175,1.8035812,-1.1087689,0.10013112,10.062337834579846,2.119504678956475,jump
05/08/2020, 15:29:34,8.867801,-4.4171505,1.7611175,1.7767167,-1.1014422,0.123332225,10.062337834579846,2.094064961124303,jump
05/08/2020, 15:29:34,8.985049,-4.319045,1.8065811,1.7767167,-1.1014422,0.123332225,10.131584066053671,2.094064961124303,jump
05/08/2020, 15:29:34,8.985049,-4.319045,1.8065811,1.735199,-1.0513767,0.14042778,10.131584066053671,2.0337227957387456,jump
05/08/2020, 15:29:34,9.013762,-4.223332,1.8664017,1.735199,-1.0513767,0.14042778,10.127581237273608,2.0337227957387456,jump
05/08/2020, 15:29:34,9.013762,-4.223332,1.8664017,1.6717012,-1.0049745,0.1526389,10.127581237273608,1.9564910491866092,jump
05/08/2020, 15:29:34,8.898908,-4.1276193,1.8855443,1.6717012,-1.0049745,0.1526389,9.989147895772996,1.9564910491866092,jump
05/08/2020, 15:29:34,8.898908,-4.1276193,1.8855443,1.5947711,-0.97933114,0.15996556,9.989147895772996,1.87829003733923,jump
05/08/2020, 15:29:34,8.702696,-4.0151563,1.8711873,1.5947711,-0.97933114,0.15996556,9.765231020517403,1.87829003733923,jump
05/08/2020, 15:29:34,8.702696,-4.0151563,1.8711873,1.504409,-0.97811,0.15630223,9.765231020517403,1.8012151161030256,jump
05/08/2020, 15:29:34,8.463413,-3.9361932,1.8903298,1.504409,-0.97811,0.15630223,9.523461958135105,1.8012151161030256,jump
05/08/2020, 15:29:34,8.463413,-3.9361932,1.8903298,1.4189311,-0.9976478,0.1526389,9.523461958135105,1.741253959517682,jump
05/08/2020, 15:29:34,8.243274,-3.8644085,1.9190438,1.4189311,-0.9976478,0.1526389,9.304189588521481,1.741253959517682,jump
05/08/2020, 15:29:34,8.243274,-3.8644085,1.9190438,1.32979,-1.0257334,0.15019667,9.304189588521481,1.6861285190588269,jump
05/08/2020, 15:29:34,8.073383,-3.8093736,2.0267208,1.32979,-1.0257334,0.15019667,9.154148940095322,1.6861285190588269,jump
05/08/2020, 15:29:34,8.073383,-3.8093736,2.0267208,1.2504178,-1.064809,0.14775445,9.154148940095322,1.6489979543844642,jump
05/08/2020, 15:29:34,8.013563,-3.749553,2.1487548,1.2504178,-1.064809,0.14775445,9.10458616507702,1.6489979543844642,jump
05/08/2020, 15:29:34,8.013563,-3.749553,2.1487548,1.1820356,-1.1026634,0.14287001,9.10458616507702,1.6228020477230392,jump
05/08/2020, 15:29:34,8.018349,-3.696911,2.3186452,1.1820356,-1.1026634,0.14287001,9.12892015387669,1.6228020477230392,jump
05/08/2020, 15:29:35,8.303095,-3.9170506,3.615555,1.0452712,-0.27719223,0.10013112,9.866960424932687,1.0860265051538636,jump
05/08/2020, 15:29:35,8.303095,-3.9170506,3.615555,1.0867889,-0.34191114,0.22468445,9.866960424932687,1.1612477874329818,jump
05/08/2020, 15:29:35,7.6139617,-3.696911,3.6131623,1.0867889,-0.34191114,0.22468445,9.202961807426643,1.1612477874329818,jump
05/08/2020, 15:29:35,7.6139617,-3.696911,3.6131623,1.1686034,-0.41395667,0.36999667,9.202961807426643,1.293789632674293,jump
05/08/2020, 15:29:35,7.094719,-3.6059837,3.5724843,1.1686034,-0.41395667,0.36999667,8.723577200990432,1.293789632674293,jump
05/08/2020, 15:29:35,7.094719,-3.6059837,3.5724843,1.3468856,-0.50798225,0.5226356,8.723577200990432,1.5314354821307852,jump
05/08/2020, 15:29:35,6.814759,-3.5676985,3.6131623,1.3468856,-0.50798225,0.5226356,8.49849111827254,1.5314354821307852,jump
05/08/2020, 15:29:35,6.814759,-3.5676985,3.6131623,1.625299,-0.60933447,0.61666113,8.49849111827254,1.842052173577623,jump
05/08/2020, 15:29:35,6.7669024,-3.4337006,3.6849468,1.625299,-0.60933447,0.61666113,8.435644670550893,1.842052173577623,jump
05/08/2020, 15:29:35,6.7669024,-3.4337006,3.6849468,1.9598835,-0.6899278,0.64108336,8.435644670550893,2.174426685186594,jump
05/08/2020, 15:29:35,6.9559355,-3.225525,3.7328033,1.9598835,-0.6899278,0.64108336,8.527770522420752,2.174426685186594,jump
05/08/2020, 15:29:35,6.9559355,-3.225525,3.7328033,2.3506389,-0.7228978,0.6056711,8.527770522420752,2.532769598743089,jump
05/08/2020, 15:29:35,7.274181,-2.9718857,3.6777685,2.3506389,-0.7228978,0.6056711,8.67593182431343,2.532769598743089,jump
05/08/2020, 15:29:35,7.274181,-2.9718857,3.6777685,2.7768068,-0.6838223,0.5018767,8.67593182431343,2.90347194153528,jump
05/08/2020, 15:29:35,7.733603,-2.4789643,3.7734814,2.7768068,-0.6838223,0.5018767,8.955056736679294,2.90347194153528,jump
05/08/2020, 15:29:35,7.733603,-2.4789643,3.7734814,3.0698736,-0.56049,0.32115224,8.955056736679294,3.1371024145502973,jump
05/08/2020, 15:29:35,8.200203,-1.4524434,3.95055,3.0698736,-0.56049,0.32115224,9.217362200510905,3.1371024145502973,jump
05/08/2020, 15:29:35,8.200203,-1.4524434,3.95055,3.1065068,-0.43227336,0.11356334,9.217362200510905,3.1384935141138097,jump
05/08/2020, 15:29:35,8.563912,-0.21296121,4.0007997,3.1065068,-0.43227336,0.11356334,9.454752551842263,3.1384935141138097,jump
05/08/2020, 15:29:35,8.563912,-0.21296121,4.0007997,2.9025812,-0.3504589,0.0024422223,9.454752551842263,2.923662960617722,jump
05/08/2020, 15:29:36,10.059426,-3.818945,1.6630118,-1.2162267,0.39808223,0.05006556,10.887699767961742,1.2806964502266545,jump
05/08/2020, 15:29:36,10.059426,-3.818945,1.6630118,-1.1893623,0.42372558,-0.008547778,10.887699767961742,1.2626159663875727,jump
05/08/2020, 15:29:36,10.492527,-4.223332,1.8281165,-1.1893623,0.42372558,-0.008547778,11.457384765325411,1.2626159663875727,jump
05/08/2020, 15:29:36,10.492527,-4.223332,1.8281165,-1.1563922,0.4908867,-0.10501556,11.457384765325411,1.260651009413954,jump
05/08/2020, 15:29:36,10.734202,-4.520042,2.0003998,-1.1563922,0.4908867,-0.10501556,11.81759194910541,1.260651009413954,jump
05/08/2020, 15:29:36,10.734202,-4.520042,2.0003998,-1.0941156,0.57636446,-0.20026223,11.81759194910541,1.2527529401098145,jump
05/08/2020, 15:29:36,10.727024,-4.692325,2.103291,-1.0941156,0.57636446,-0.20026223,11.8958309395068,1.2527529401098145,jump
05/08/2020, 15:29:36,10.727024,-4.692325,2.103291,-1.00009,0.6557367,-0.27475002,11.8958309395068,1.2270526433903781,jump
05/08/2020, 15:29:36,10.475778,-4.8119664,2.2085752,-1.00009,0.6557367,-0.27475002,11.737748605211372,1.2270526433903781,jump
05/08/2020, 15:29:36,10.475778,-4.8119664,2.2085752,-0.8975167,0.6887067,-0.31993112,11.737748605211372,1.1756738963460038,jump
05/08/2020, 15:29:36,10.0163555,-4.766503,2.199004,-0.8975167,0.6887067,-0.31993112,11.30851650689373,1.1756738963460038,jump
05/08/2020, 15:29:36,10.0163555,-4.766503,2.199004,-0.82425004,0.6581789,-0.33336335,11.30851650689373,1.1062182227655026,jump
05/08/2020, 15:29:36,9.542577,-4.668397,2.201397,-0.82425004,0.6581789,-0.33336335,10.849002275221391,1.1062182227655026,jump
05/08/2020, 15:29:36,9.542577,-4.668397,2.201397,-0.77906895,0.5910178,-0.3284789,10.849002275221391,1.0315758977508864,jump
05/08/2020, 15:29:36,9.116654,-4.5152564,2.1870399,-0.77906895,0.5910178,-0.3284789,10.405963246801647,1.0315758977508864,jump
05/08/2020, 15:29:36,9.116654,-4.5152564,2.1870399,-0.75831,0.5018767,-0.30772,10.405963246801647,0.9600030844075509,jump
05/08/2020, 15:29:36,8.822337,-4.3812585,2.172683,-0.75831,0.5018767,-0.30772,10.087101177017676,0.9600030844075509,jump
05/08/2020, 15:29:36,8.822337,-4.3812585,2.172683,-0.7424356,0.41273558,-0.2869611,10.087101177017676,0.896609123443756,jump
05/08/2020, 15:29:36,8.673982,-4.2759743,2.1678972,-0.7424356,0.41273558,-0.2869611,9.91068576420255,0.896609123443756,jump
05/08/2020, 15:29:36,8.673982,-4.2759743,2.1678972,-0.7338878,0.32115224,-0.26742333,9.91068576420255,0.8445385073209026,jump
05/08/2020, 15:29:37,8.953942,-3.9984066,1.8951155,-2.1332812,1.3322322,-0.5030978,9.987582347998462,2.5649247380676674,jump
05/08/2020, 15:29:37,8.953942,-3.9984066,1.8951155,-1.9342401,1.1795933,-0.49455002,9.987582347998462,2.31890165995266,jump
05/08/2020, 15:29:37,8.63809,-4.1611185,2.0721843,-1.9342401,1.1795933,-0.49455002,9.809457490788507,2.31890165995266,jump
05/08/2020, 15:29:37,8.63809,-4.1611185,2.0721843,-1.6839123,0.9915423,-0.47867557,9.809457490788507,2.011926180319892,jump
05/08/2020, 15:29:37,8.458628,-4.254439,2.2851455,-1.6839123,0.9915423,-0.47867557,9.740150039540513,2.011926180319892,jump
05/08/2020, 15:29:37,8.458628,-4.254439,2.2851455,-1.3859612,0.79128003,-0.45059,9.740150039540513,1.6583256095898806,jump
05/08/2020, 15:29:37,8.336594,-4.26401,2.510071,-1.3859612,0.79128003,-0.45059,9.694381404425545,1.6583256095898806,jump
05/08/2020, 15:29:37,8.336594,-4.26401,2.510071,-1.0489345,0.6068922,-0.42861003,9.694381404425545,1.28541364252229,jump
05/08/2020, 15:29:37,8.303095,-4.208975,2.7230322,-1.0489345,0.6068922,-0.42861003,9.699059648579231,1.28541364252229,jump
05/08/2020, 15:29:37,8.303095,-4.208975,2.7230322,-0.6899278,0.42983112,-0.39930335,9.699059648579231,0.9056480244176459,jump
05/08/2020, 15:29:37,8.274381,-4.072584,2.952743,-0.6899278,0.42983112,-0.39930335,9.68349156650756,0.9056480244176459,jump
05/08/2020, 15:29:37,8.274381,-4.072584,2.952743,-0.34313223,0.26864445,-0.3809867,9.68349156650756,0.578844042600552,jump
05/08/2020, 15:29:37,8.269595,-3.8907297,3.0699914,-0.34313223,0.26864445,-0.3809867,9.640997256707887,0.578844042600552,jump
05/08/2020, 15:29:37,8.269595,-3.8907297,3.0699914,-0.023201112,0.123332225,-0.36999667,9.640997256707887,0.3907002211136634,jump
05/08/2020, 15:29:37,8.252846,-3.6466618,3.117848,-0.023201112,0.123332225,-0.36999667,9.546129102220783,0.3907002211136634,jump
05/08/2020, 15:29:37,8.252846,-3.6466618,3.117848,0.24910668,-0.013432222,-0.35168,9.546129102220783,0.4311767504709337,jump
05/08/2020, 15:29:37,8.240881,-3.4049866,3.0915267,0.24910668,-0.013432222,-0.35168,9.437350825669206,0.4311767504709337,jump
05/08/2020, 15:29:37,8.240881,-3.4049866,3.0915267,0.42861003,-0.13432223,-0.34313223,9.437350825669206,0.5652333510802755,jump
05/08/2020, 15:29:37,8.219346,-3.0723844,2.9742785,0.42861003,-0.13432223,-0.34313223,9.265178215737757,0.5652333510802755,jump
05/08/2020, 15:29:37,8.219346,-3.0723844,2.9742785,0.5287411,-0.23323223,-0.33458444,9.265178215737757,0.6677658250524587,jump
05/08/2020, 15:29:38,15.337994,-9.71486,2.2181466,2.746279,-8.807875,-7.290034,18.29078255861469,11.75862652612156,jump
05/08/2020, 15:29:38,15.337994,-9.71486,2.2181466,2.9953856,-9.472159,-6.536608,18.29078255861469,11.892072385061393,jump
05/08/2020, 15:29:38,18.03949,-11.444871,1.9788643,2.9953856,-9.472159,-6.536608,21.455166401123552,11.892072385061393,jump
05/08/2020, 15:29:38,18.03949,-11.444871,1.9788643,2.9135711,-9.754236,-5.8173738,21.455166401123552,11.725009949071334,jump
05/08/2020, 15:29:38,21.537796,-11.966506,1.4548361,2.9135711,-9.754236,-5.8173738,24.68178420492163,11.725009949071334,jump
05/08/2020, 15:29:38,21.537796,-11.966506,1.4548361,2.8744957,-9.541762,-5.548729,24.68178420492163,11.405978583603975,jump
05/08/2020, 15:29:38,24.679573,-11.332408,1.2394822,2.8744957,-9.541762,-5.548729,27.185310599482296,11.405978583603975,jump
05/08/2020, 15:29:38,24.679573,-11.332408,1.2394822,2.9367723,-8.831076,-5.339919,27.185310599482296,10.729737422958936,jump
05/08/2020, 15:29:38,26.478975,-11.255837,2.2061825,2.9367723,-8.831076,-5.339919,28.856494075830682,10.729737422958936,jump
05/08/2020, 15:29:38,26.478975,-11.255837,2.2061825,3.1468034,-8.100851,-4.965038,28.856494075830682,10.008884052030108,jump
05/08/2020, 15:29:38,26.92404,-11.045269,3.8117664,3.1468034,-8.100851,-4.965038,29.350152501862823,10.008884052030108,jump
05/08/2020, 15:29:38,26.92404,-11.045269,3.8117664,3.4667346,-7.7186437,-4.526659,29.350152501862823,9.596163345810844,jump
05/08/2020, 15:29:38,26.85704,-11.009377,5.4436717,3.4667346,-7.7186437,-4.526659,29.532025877558638,9.596163345810844,jump
05/08/2020, 15:29:38,26.85704,-11.009377,5.4436717,3.5522125,-7.3657427,-4.0040236,29.532025877558638,9.105195404962693,jump
05/08/2020, 15:29:38,26.739794,-10.588241,6.869794,3.5522125,-7.3657427,-4.0040236,29.56892759095714,9.105195404962693,jump
05/08/2020, 15:29:38,26.739794,-10.588241,6.869794,3.2127435,-6.793041,-3.492378,29.56892759095714,8.286364350084453,jump
05/08/2020, 15:29:38,26.462225,-9.537791,7.7886376,3.2127435,-6.793041,-3.492378,29.18701231845753,8.286364350084453,jump
05/08/2020, 15:29:38,26.462225,-9.537791,7.7886376,2.49473,-6.0725856,-3.1174967,29.18701231845753,7.267651564699932,jump
05/08/2020, 15:29:38,25.64388,-8.12124,8.188239,2.49473,-6.0725856,-3.1174967,28.11779539574586,7.267651564699932,jump
05/08/2020, 15:29:38,25.64388,-8.12124,8.188239,1.5850023,-5.3899846,-2.9355512,28.11779539574586,6.338897934456264,jump
05/08/2020, 15:29:39,12.763316,-3.3667014,0.95712906,-0.85111445,2.383609,1.779159,13.234538653722975,3.0937670424816033,jump
05/08/2020, 15:29:39,12.763316,-3.3667014,0.95712906,-0.92193896,2.2407389,1.8072445,13.234538653722975,3.0227495663125867,jump
05/08/2020, 15:29:39,12.583855,-3.251846,0.90448695,-0.92193896,2.2407389,1.8072445,13.02866063857305,3.0227495663125867,jump
05/08/2020, 15:29:39,12.583855,-3.251846,0.90448695,-0.9744467,2.13206,1.8499835,13.02866063857305,2.986246011022408,jump
05/08/2020, 15:29:39,12.545569,-3.1537402,0.9212367,-0.9744467,2.13206,1.8499835,12.96865706846726,2.986246011022408,jump
05/08/2020, 15:29:39,12.545569,-3.1537402,0.9212367,-0.9915423,2.108859,1.900049,12.96865706846726,3.006763830024186,jump
05/08/2020, 15:29:39,12.358929,-3.0747771,0.89013004,-0.9915423,2.108859,1.900049,12.766742105866452,3.006763830024186,jump
05/08/2020, 15:29:39,12.358929,-3.0747771,0.89013004,-0.9597934,2.122291,1.954999,12.766742105866452,3.0409445546967198,jump
05/08/2020, 15:29:39,11.949757,-3.050849,0.80159557,-0.9597934,2.122291,1.954999,12.359082416195772,3.0409445546967198,jump
05/08/2020, 15:29:39,11.949757,-3.050849,0.80159557,-0.89263225,2.0819945,1.9977379,12.359082416195772,3.0203394212518675,jump
05/08/2020, 15:29:39,11.351551,-2.9766715,0.7298109,-0.89263225,2.0819945,1.9977379,11.758014640229987,3.0203394212518675,jump
05/08/2020, 15:29:39,11.351551,-2.9766715,0.7298109,-0.79128003,1.9782001,2.0148335,11.758014640229987,2.9323972222298584,jump
05/08/2020, 15:29:39,10.643275,-2.9216363,0.72502524,-0.79128003,1.9782001,2.0148335,11.060783371637507,2.9323972222298584,jump
05/08/2020, 15:29:39,10.643275,-2.9216363,0.72502524,-0.6764956,1.8243401,2.0172756,11.060783371637507,2.8027243646492215,jump
05/08/2020, 15:29:39,9.930214,-2.7996025,0.8279166,-0.6764956,1.8243401,2.0172756,10.350476742612882,2.8027243646492215,jump
05/08/2020, 15:29:39,9.930214,-2.7996025,0.8279166,-0.56659555,1.6301835,1.998959,10.350476742612882,2.6409024016253664,jump
05/08/2020, 15:29:39,9.38465,-2.6751757,0.96909314,-0.56659555,1.6301835,1.998959,9.80649612843499,2.6409024016253664,jump
05/08/2020, 15:29:39,9.38465,-2.6751757,0.96909314,-0.46402225,1.3749712,1.9733156,9.80649612843499,2.449456420985995,jump
05/08/2020, 15:29:39,9.025727,-2.5292134,1.0408778,-0.46402225,1.3749712,1.9733156,9.431017972108718,2.449456420985995,jump
05/08/2020, 15:29:39,9.025727,-2.5292134,1.0408778,-0.37976557,1.1026634,1.9232501,9.431017972108718,2.2492174915012018,jump
05/08/2020, 15:29:40,8.595019,-4.831109,4.668397,1.3676445,-0.34191114,-0.13432223,10.909074303891245,1.4161205093135665,jump
05/08/2020, 15:29:40,8.429914,-4.7377887,4.792824,1.3676445,-0.34191114,-0.13432223,10.792648400347737,1.4161205093135665,jump
05/08/2020, 15:29:40,8.429914,-4.7377887,4.792824,1.3615389,-0.30772,-0.10013112,10.792648400347737,1.3994663208608884,jump
05/08/2020, 15:29:40,8.252846,-4.5798626,4.8909297,1.3615389,-0.30772,-0.10013112,10.63041852010009,1.3994663208608884,jump
05/08/2020, 15:29:40,8.252846,-4.5798626,4.8909297,1.3334534,-0.27719223,-0.08303556,10.63041852010009,1.3644883487776776,jump
05/08/2020, 15:29:40,8.126026,-4.304688,4.9866424,1.3334534,-0.27719223,-0.08303556,10.460843257583992,1.3644883487776776,jump
05/08/2020, 15:29:40,8.126026,-4.304688,4.9866424,1.2809457,-0.2515489,-0.06227667,10.460843257583992,1.3068959431346396,jump
05/08/2020, 15:29:40,7.984849,-4.022335,5.015356,1.2809457,-0.2515489,-0.06227667,10.251379853137054,1.3068959431346396,jump
05/08/2020, 15:29:40,7.984849,-4.022335,5.015356,1.2027946,-0.23323223,-0.04396,10.251379853137054,1.225987148693279,jump
05/08/2020, 15:29:40,7.881958,-3.7088752,5.032106,1.2027946,-0.23323223,-0.04396,10.059975504430458,1.225987148693279,jump
05/08/2020, 15:29:40,7.881958,-3.7088752,5.032106,1.0941156,-0.2283478,-0.029306669,10.059975504430458,1.118074494053506,jump
05/08/2020, 15:29:40,7.9226356,-3.4337006,5.020142,1.0941156,-0.2283478,-0.029306669,9.988006816933565,1.118074494053506,jump
05/08/2020, 15:29:40,7.9226356,-3.4337006,5.020142,0.9610145,-0.21247335,-0.017095556,9.988006816933565,0.9843708998464655,jump
05/08/2020, 15:29:40,8.025527,-3.2135608,4.991428,0.9610145,-0.21247335,-0.017095556,9.982505158577014,0.9843708998464655,jump
05/08/2020, 15:29:40,8.025527,-3.2135608,4.991428,0.7998278,-0.16729222,-0.018316668,9.982505158577014,0.8173412507574825,jump
05/08/2020, 15:29:40,8.190632,-3.0077782,4.87418,0.7998278,-0.16729222,-0.018316668,9.994538958428718,0.8173412507574825,jump
05/08/2020, 15:29:40,8.190632,-3.0077782,4.87418,0.6105556,-0.09036223,-0.012211111,9.994538958428718,0.6173269563806791,jump
05/08/2020, 15:29:40,8.353344,-2.8809586,4.682754,0.6105556,-0.09036223,-0.012211111,10.000323143749991,0.6173269563806791,jump
05/08/2020, 15:29:40,8.353344,-2.8809586,4.682754,0.39686114,0.024422223,-0.015874445,10.000323143749991,0.39792864211704193,jump
05/08/2020, 15:29:40,8.453842,-2.8522446,4.5128636,0.39686114,0.024422223,-0.015874445,9.99843412053178,0.39792864211704193,jump
05/08/2020, 15:29:41,8.4705925,-3.8835511,3.0652058,-0.09036223,0.03052778,-0.16118668,9.809607191963417,0.18729234780332635,jump
05/08/2020, 15:29:41,8.432307,-3.8907297,2.9575288,-0.09036223,0.03052778,-0.16118668,9.746207444743082,0.18729234780332635,jump
05/08/2020, 15:29:41,8.432307,-3.8907297,2.9575288,-0.078151114,-0.025643334,-0.16607112,9.746207444743082,0.1853234823449767,jump
05/08/2020, 15:29:41,8.453842,-3.8811584,2.8163524,-0.078151114,-0.025643334,-0.16607112,9.719191228093237,0.1853234823449767,jump
05/08/2020, 15:29:41,8.453842,-3.8811584,2.8163524,-0.06716111,-0.057392225,-0.16118668,9.719191228093237,0.18380867343044519,jump
05/08/2020, 15:29:41,8.525627,-3.8620157,2.7493532,-0.06716111,-0.057392225,-0.16118668,9.755020572783014,0.18380867343044519,jump
05/08/2020, 15:29:41,8.525627,-3.8620157,2.7493532,-0.051286668,-0.059834447,-0.15996556,9.755020572783014,0.17832404107646743,jump
05/08/2020, 15:29:41,8.578269,-3.8524444,2.7062824,-0.051286668,-0.059834447,-0.15996556,9.785294648558091,0.17832404107646743,jump
05/08/2020, 15:29:41,8.578269,-3.8524444,2.7062824,-0.03297,-0.05372889,-0.15508112,9.785294648558091,0.16740361177594879,jump
05/08/2020, 15:29:41,8.56152,-3.8165522,2.6464617,-0.03297,-0.05372889,-0.15508112,9.740094882563396,0.16740361177594879,jump
05/08/2020, 15:29:41,8.56152,-3.8165522,2.6464617,-0.014653334,-0.058613338,-0.1526389,9.740094882563396,0.16416112974634917,jump
05/08/2020, 15:29:41,8.451449,-3.7878382,2.617748,-0.014653334,-0.058613338,-0.1526389,9.624308804047981,0.16416112974634917,jump
05/08/2020, 15:29:41,8.451449,-3.7878382,2.617748,0.009768889,-0.089141116,-0.15019667,9.624308804047981,0.1749302998458075,jump
05/08/2020, 15:29:41,8.283952,-3.8093736,2.6129622,0.009768889,-0.089141116,-0.15019667,9.484869835952797,0.1749302998458075,jump
05/08/2020, 15:29:41,8.283952,-3.8093736,2.6129622,0.034191113,-0.13188,-0.16729222,9.484869835952797,0.21574998108108714,jump
05/08/2020, 15:29:41,8.142776,-3.749553,2.6201408,0.034191113,-0.13188,-0.16729222,9.339650883508055,0.21574998108108714,jump
05/08/2020, 15:29:41,8.142776,-3.749553,2.6201408,0.051286668,-0.17950334,-0.17828223,9.339650883508055,0.25814012479168946,jump
05/08/2020, 15:29:41,8.023134,-3.6610186,2.6919255,0.051286668,-0.17950334,-0.17828223,9.220640064347347,0.25814012479168946,jump
05/08/2020, 15:29:41,8.023134,-3.6610186,2.6919255,0.08669889,-0.2283478,-0.18683001,9.220640064347347,0.3075140098883218,jump
05/08/2020, 15:29:41,7.9657063,-3.5892339,2.754139,0.08669889,-0.2283478,-0.18683001,9.160805574701165,0.3075140098883218,jump
05/08/2020, 15:29:42,-1.3543376,0.86141616,1.3495519,-0.8621045,1.7413045,2.768259,2.0970356312243625,3.3821034440517255,jump
05/08/2020, 15:29:42,-1.3543376,0.86141616,1.3495519,-0.67283225,1.8353301,2.6534746,2.0970356312243625,3.2957650414851023,jump
05/08/2020, 15:29:42,-1.3208381,0.5814559,1.146162,-0.67283225,1.8353301,2.6534746,1.8429301733340604,3.2957650414851023,jump
05/08/2020, 15:29:42,-1.3208381,0.5814559,1.146162,-0.48600224,1.9281346,2.53869,1.8429301733340604,3.2247245512884457,jump
05/08/2020, 15:29:42,-1.3734802,0.46181476,0.66759753,-0.48600224,1.9281346,2.53869,1.59543323289426,3.2247245512884457,jump
05/08/2020, 15:29:42,-1.3734802,0.46181476,0.66759753,-0.32237336,1.9733156,2.38483,1.59543323289426,3.112123575091326,jump
05/08/2020, 15:29:42,-1.5529419,0.5240282,0.15553348,-0.32237336,1.9733156,2.38483,1.646336782094108,3.112123575091326,jump
05/08/2020, 15:29:42,-1.5529419,0.5240282,0.15553348,-0.17095557,1.9916323,2.1735778,1.646336782094108,2.9530095805892658,jump
05/08/2020, 15:29:42,-1.847259,0.7082755,-0.34456646,-0.17095557,1.9916323,2.1735778,2.0081698648346924,2.9530095805892658,jump
05/08/2020, 15:29:42,-1.847259,0.7082755,-0.34456646,-0.064718895,1.9757578,1.9379034,2.0081698648346924,2.768262482336104,jump
05/08/2020, 15:29:42,-2.1655045,0.90448695,-0.8470592,-0.064718895,1.9757578,1.9379034,2.494998090028213,2.768262482336104,jump
05/08/2020, 15:29:42,-2.1655045,0.90448695,-0.8470592,0.009768889,1.9208078,1.7510734,2.494998090028213,2.5992029734254576,jump
05/08/2020, 15:29:42,-2.495714,1.0863415,-1.3399807,0.009768889,1.9208078,1.7510734,3.0338546941812523,2.5992029734254576,jump
05/08/2020, 15:29:42,-2.495714,1.0863415,-1.3399807,0.008547778,1.8426567,1.6167512,3.0338546941812523,2.4513957898195984,jump
05/08/2020, 15:29:42,-2.7565317,1.2346965,-1.8807586,0.008547778,1.8426567,1.6167512,3.5581168667247867,2.4513957898195984,jump
05/08/2020, 15:29:42,-2.7565317,1.2346965,-1.8807586,-0.014653334,1.7229879,1.5080723,3.5581168667247867,2.28979997436332,jump
05/08/2020, 15:29:42,-2.9120653,1.3208381,-2.5028925,-0.014653334,1.7229879,1.5080723,4.060690609982283,2.28979997436332,jump
05/08/2020, 15:29:42,-2.9120653,1.3208381,-2.5028925,-0.05372889,1.6082034,1.4482379,4.060690609982283,2.1648551933968823,jump
05/08/2020, 15:29:42,-3.0125637,1.2921243,-3.2542388,-0.05372889,1.6082034,1.4482379,4.619003752471598,2.1648551933968823,jump
05/08/2020, 15:29:42,-3.0125637,1.2921243,-3.2542388,-0.11478445,1.4885345,1.3969512,4.619003752471598,2.044598476825183,jump
05/08/2020, 15:29:43,5.276174,-1.7252251,1.7036897,-0.32970002,0.39075556,-0.45181113,5.806631811124522,0.6822941575624556,jump
05/08/2020, 15:29:43,5.276174,-1.7252251,1.7036897,-0.40052447,0.39197668,-0.6435256,5.806631811124522,0.8533409449467886,jump
05/08/2020, 15:29:43,5.319245,-1.8448663,1.550549,-0.40052447,0.39197668,-0.6435256,5.839700314964943,0.8533409449467886,jump
05/08/2020, 15:29:43,5.319245,-1.8448663,1.550549,-0.48722336,0.31382558,-0.8071545,5.839700314964943,0.9936656589745622,jump
05/08/2020, 15:29:43,5.460421,-2.0889342,1.3519448,-0.48722336,0.31382558,-0.8071545,6.000633233618722,0.9936656589745622,jump
05/08/2020, 15:29:43,5.460421,-2.0889342,1.3519448,-0.6191034,0.18194556,-0.9329289,6.000633233618722,1.1343498324546792,jump
05/08/2020, 15:29:43,5.7547383,-2.428715,1.1964114,-0.6191034,0.18194556,-0.9329289,6.359801092117941,1.1343498324546792,jump
05/08/2020, 15:29:43,5.7547383,-2.428715,1.1964114,-0.7815111,0.03297,-1.0232911,6.359801092117941,1.288010621791498,jump
05/08/2020, 15:29:43,6.2524457,-2.8139594,0.99302137,-0.7815111,0.03297,-1.0232911,6.928025398583403,1.288010621791498,jump
05/08/2020, 15:29:43,6.2524457,-2.8139594,0.99302137,-0.96712005,-0.08792,-1.0782411,6.928025398583403,1.4510875272082404,jump
05/08/2020, 15:29:43,6.8650084,-3.266203,0.81595254,-0.96712005,-0.08792,-1.0782411,7.646057795207045,1.4510875272082404,jump
05/08/2020, 15:29:43,6.8650084,-3.266203,0.81595254,-1.1734878,-0.16485001,-1.0977789,7.646057795207045,1.61535372321641,jump
05/08/2020, 15:29:43,7.479964,-3.6634114,0.6269195,-1.1734878,-0.16485001,-1.0977789,8.352452881766327,1.61535372321641,jump
05/08/2020, 15:29:43,7.479964,-3.6634114,0.6269195,-1.3725289,-0.21980001,-1.1014422,8.352452881766327,1.7735057412604158,jump
05/08/2020, 15:29:43,8.015956,-4.0390844,0.2847459,-1.3725289,-0.21980001,-1.1014422,8.980580865904335,1.7735057412604158,jump
05/08/2020, 15:29:43,8.015956,-4.0390844,0.2847459,-1.5361578,-0.31016225,-1.0965579,8.980580865904335,1.9126998402489925,jump
05/08/2020, 15:29:43,8.410771,-4.4004006,-0.0047856453,-1.5361578,-0.31016225,-1.0965579,9.4923455330978,1.9126998402489925,jump
05/08/2020, 15:29:43,8.410771,-4.4004006,-0.0047856453,-1.6216357,-0.44448447,-1.05504,9.4923455330978,1.985038567752736,jump
05/08/2020, 15:29:43,8.635697,-4.8119664,-0.05742774,-1.6216357,-0.44448447,-1.05504,9.886029928224032,1.985038567752736,jump
05/08/2020, 15:29:43,8.635697,-4.8119664,-0.05742774,-1.559359,-0.62643003,-0.9976478,9.886029928224032,1.954307067378101,jump
05/08/2020, 15:29:44,9.195618,-2.672783,3.158526,0.74121445,-0.1965989,-0.14287001,10.083622315224364,0.7800396367722234,jump
05/08/2020, 15:29:44,9.195618,-2.672783,3.158526,0.6667267,-0.15996556,-0.11844778,10.083622315224364,0.6958041109222807,jump
05/08/2020, 15:29:44,9.188439,-2.5387847,3.2159536,0.6667267,-0.15996556,-0.11844778,10.060576697824308,0.6958041109222807,jump
05/08/2020, 15:29:44,9.188439,-2.5387847,3.2159536,0.5482789,-0.12089001,-0.09646778,10.060576697824308,0.5696755291697023,jump
05/08/2020, 15:29:44,9.183653,-2.4071796,3.2183464,0.5482789,-0.12089001,-0.09646778,10.024557199889973,0.5696755291697023,jump
05/08/2020, 15:29:44,9.183653,-2.4071796,3.2183464,0.39197668,-0.08425667,-0.09036223,10.024557199889973,0.41098690984147246,jump
05/08/2020, 15:29:44,9.142975,-2.347359,3.199204,0.39197668,-0.08425667,-0.09036223,9.966894662026418,0.41098690984147246,jump
05/08/2020, 15:29:44,9.142975,-2.347359,3.199204,0.23201112,-0.057392225,-0.08303556,9.966894662026418,0.2530176541459677,jump
05/08/2020, 15:29:44,9.111869,-2.3138595,3.17049,0.23201112,-0.057392225,-0.08303556,9.921295616642638,0.2530176541459677,jump
05/08/2020, 15:29:44,9.111869,-2.3138595,3.17049,0.07693,-0.04151778,-0.08303556,9.921295616642638,0.12056888103249598,jump
05/08/2020, 15:29:44,9.162118,-2.3114667,3.1226335,0.07693,-0.04151778,-0.08303556,9.95178996273533,0.12056888103249598,jump
05/08/2020, 15:29:44,9.162118,-2.3114667,3.1226335,-0.06716111,-0.018316668,-0.081814446,9.95178996273533,0.10742308370824975,jump
05/08/2020, 15:29:44,9.226724,-2.3449662,3.17049,-0.06716111,-0.018316668,-0.081814446,10.034106988742739,0.10742308370824975,jump
05/08/2020, 15:29:44,9.226724,-2.3449662,3.17049,-0.1856089,0.015874445,-0.07570889,10.034106988742739,0.20108330414814346,jump
05/08/2020, 15:29:44,9.312865,-2.428715,3.225525,-0.1856089,0.015874445,-0.07570889,10.150474210657423,0.20108330414814346,jump
05/08/2020, 15:29:44,9.312865,-2.428715,3.225525,-0.2759711,0.05372889,-0.06227667,10.150474210657423,0.28796741687449234,jump
05/08/2020, 15:29:44,9.348758,-2.4717858,3.347559,-0.2759711,0.05372889,-0.06227667,10.233041942957799,0.28796741687449234,jump
05/08/2020, 15:29:44,9.348758,-2.4717858,3.347559,-0.3370267,0.08303556,-0.05250778,10.233041942957799,0.35105406664001354,jump
05/08/2020, 15:29:44,9.363115,-2.5459633,3.4169507,-0.3370267,0.08303556,-0.05250778,10.287147781863215,0.35105406664001354,jump
05/08/2020, 15:29:44,9.363115,-2.5459633,3.4169507,-0.36511225,0.109900005,-0.039075557,10.287147781863215,0.38329083188878227,jump
05/08/2020, 15:29:45,8.800801,-2.5698915,3.158526,-0.74609894,0.48844448,-0.22102112,9.697150681337913,0.9187447756337327,jump
05/08/2020, 15:29:45,8.9013,-2.5531418,3.3355947,-0.74609894,0.48844448,-0.22102112,9.84265585413173,0.9187447756337327,jump
05/08/2020, 15:29:45,8.9013,-2.5531418,3.3355947,-0.77906895,0.56171113,-0.22468445,9.84265585413173,0.9863827457321808,jump
05/08/2020, 15:29:45,8.932407,-2.4885356,3.455236,-0.77906895,0.56171113,-0.22468445,9.895421504809825,0.9863827457321808,jump
05/08/2020, 15:29:45,8.932407,-2.4885356,3.455236,-0.83890337,0.6105556,-0.23445335,9.895421504809825,1.0637224078710916,jump
05/08/2020, 15:29:45,8.898908,-2.3976083,3.5294135,-0.83890337,0.6105556,-0.23445335,9.868933195412817,1.0637224078710916,jump
05/08/2020, 15:29:45,8.898908,-2.3976083,3.5294135,-0.9194967,0.64108336,-0.25399113,9.868933195412817,1.1493361456649664,jump
05/08/2020, 15:29:45,8.879765,-2.3018954,3.5844483,-0.9194967,0.64108336,-0.25399113,9.848716201153595,1.1493361456649664,jump
05/08/2020, 15:29:45,8.879765,-2.3018954,3.5844483,-1.0257334,0.6874856,-0.28574002,9.848716201153595,1.2674433649642252,jump
05/08/2020, 15:29:45,8.894122,-2.2588246,3.5940197,-1.0257334,0.6874856,-0.28574002,9.855185138829096,1.2674433649642252,jump
05/08/2020, 15:29:45,8.894122,-2.2588246,3.5940197,-1.1527289,0.74121445,-0.32115224,9.855185138829096,1.407594252733927,jump
05/08/2020, 15:29:45,8.88455,-2.268396,3.5557344,-1.1527289,0.74121445,-0.32115224,9.834840997226637,1.407594252733927,jump
05/08/2020, 15:29:45,8.88455,-2.268396,3.5557344,-1.2894934,0.79616445,-0.35656446,9.834840997226637,1.5568588207809562,jump
05/08/2020, 15:29:45,8.853444,-2.306681,3.4839497,-1.2894934,0.79616445,-0.35656446,9.789900638928318,1.5568588207809562,jump
05/08/2020, 15:29:45,8.853444,-2.306681,3.4839497,-1.4238156,0.8401245,-0.3858711,9.789900638928318,1.6976326328533227,jump
05/08/2020, 15:29:45,8.803194,-2.3282163,3.4337006,-1.4238156,0.8401245,-0.3858711,9.731758122988031,1.6976326328533227,jump
05/08/2020, 15:29:45,8.803194,-2.3282163,3.4337006,-1.5483689,0.8730945,-0.41029334,9.731758122988031,1.8243028738960245,jump
05/08/2020, 15:29:45,8.803194,-2.3856442,3.4121652,-1.5483689,0.8730945,-0.41029334,9.738089892872512,1.8243028738960245,jump
05/08/2020, 15:29:45,8.803194,-2.3856442,3.4121652,-1.6411734,0.8877478,-0.4261678,9.738089892872512,1.9139397032890417,jump
05/08/2020, 15:29:45,8.841479,-2.4861426,3.4169507,-1.6411734,0.8877478,-0.4261678,9.799398631842466,1.9139397032890417,jump
05/08/2020, 15:29:46,8.58784,-2.792424,3.103491,-0.11844778,0.2185789,0.39808223,9.548836873922486,0.46933577900172346,jump
05/08/2020, 15:29:46,8.58784,-2.792424,3.103491,-0.04151778,0.16729222,0.36755446,9.548836873922486,0.4059639045328103,jump
05/08/2020, 15:29:46,8.539984,-2.766103,3.050849,-0.04151778,0.16729222,0.36755446,9.481050985537014,0.4059639045328103,jump
05/08/2020, 15:29:46,8.539984,-2.766103,3.050849,0.037854444,0.117226675,0.3370267,9.481050985537014,0.3588342779597587,jump
05/08/2020, 15:29:46,8.4347,-2.7397819,3.0197423,0.037854444,0.117226675,0.3370267,9.368533085624529,0.3588342779597587,jump
05/08/2020, 15:29:46,8.4347,-2.7397819,3.0197423,0.10501556,0.064718895,0.29673,9.368533085624529,0.3213495032194824,jump
05/08/2020, 15:29:46,8.305488,-2.7206392,2.9910283,0.10501556,0.064718895,0.29673,9.237383448555027,0.3213495032194824,jump
05/08/2020, 15:29:46,8.305488,-2.7206392,2.9910283,0.16729222,-0.0036633336,0.25277,9.237383448555027,0.30313822581012145,jump
05/08/2020, 15:29:46,8.190632,-2.7038896,3.0005996,0.16729222,-0.0036633336,0.25277,9.132418490302445,0.30313822581012145,jump
05/08/2020, 15:29:46,8.190632,-2.7038896,3.0005996,0.22590557,-0.08303556,0.20026223,9.132418490302445,0.31310252564824625,jump
05/08/2020, 15:29:46,8.126026,-2.684747,2.9862428,0.22590557,-0.08303556,0.20026223,9.06409473068615,0.31310252564824625,jump
05/08/2020, 15:29:46,8.126026,-2.684747,2.9862428,0.2820767,-0.15752333,0.1526389,9.06409473068615,0.35732267051865185,jump
05/08/2020, 15:29:46,8.063812,-2.6632116,3.022135,0.2820767,-0.15752333,0.1526389,9.013937214906651,0.35732267051865185,jump
05/08/2020, 15:29:46,8.063812,-2.6632116,3.022135,0.3370267,-0.2283478,0.09524667,9.013937214906651,0.4180928485867766,jump
05/08/2020, 15:29:46,8.039884,-2.6344976,3.0364919,0.3370267,-0.2283478,0.09524667,8.988914797146801,0.4180928485867766,jump
05/08/2020, 15:29:46,8.039884,-2.6344976,3.0364919,0.37488112,-0.2869611,0.04396,8.988914797146801,0.47414661499524485,jump
05/08/2020, 15:29:46,8.035098,-2.6273193,3.0843484,0.37488112,-0.2869611,0.04396,8.998822883142477,0.47414661499524485,jump
05/08/2020, 15:29:46,8.035098,-2.6273193,3.0843484,0.41273558,-0.34191114,-0.017095556,8.998822883142477,0.5362332924009657,jump
05/08/2020, 15:29:46,8.0614195,-2.603391,3.1082766,0.41273558,-0.34191114,-0.017095556,9.02360858789798,0.5362332924009657,jump
05/08/2020, 15:29:46,8.0614195,-2.603391,3.1082766,0.45059,-0.38831335,-0.07693,9.02360858789798,0.5997806652494083,jump
05/08/2020, 15:29:47,8.719446,-4.5726843,3.5150564,0.12699556,-0.67283225,-0.70458114,10.454367729292445,0.9824793613654852,jump
05/08/2020, 15:29:47,8.719446,-4.5726843,3.5150564,0.15141778,-0.6874856,-0.6899278,10.454367729292445,0.9856795380683762,jump
05/08/2020, 15:29:47,8.781659,-4.5631127,3.615555,0.15141778,-0.6874856,-0.6899278,10.536212467219592,0.9856795380683762,jump
05/08/2020, 15:29:47,8.781659,-4.5631127,3.615555,0.15752333,-0.68626446,-0.6740534,10.536212467219592,0.9747412222168891,jump
05/08/2020, 15:29:47,8.831908,-4.5008993,3.696911,0.15752333,-0.68626446,-0.6740534,10.579595890740515,0.9747412222168891,jump
05/08/2020, 15:29:47,8.831908,-4.5008993,3.696911,0.14287001,-0.67161113,-0.6569578,10.579595890740515,0.9502983255122545,jump
05/08/2020, 15:29:47,8.863015,-4.4602213,3.7854455,0.14287001,-0.67161113,-0.6569578,10.619614363007262,0.9502983255122545,jump
05/08/2020, 15:29:47,8.863015,-4.4602213,3.7854455,0.11234222,-0.65085226,-0.63619894,10.619614363007262,0.9170488165745163,jump
05/08/2020, 15:29:47,8.834301,-4.426722,3.8285162,0.11234222,-0.65085226,-0.63619894,10.597088223224576,0.9170488165745163,jump
05/08/2020, 15:29:47,8.834301,-4.426722,3.8285162,0.07937223,-0.63742,-0.61788225,10.597088223224576,0.8912814831116336,jump
05/08/2020, 15:29:47,8.810373,-4.359723,3.8285162,0.07937223,-0.63742,-0.61788225,10.54928432949739,0.8912814831116336,jump
05/08/2020, 15:29:47,8.810373,-4.359723,3.8285162,0.035412222,-0.63986224,-0.61544,10.54928432949739,0.8885066786507704,jump
05/08/2020, 15:29:47,8.7984085,-4.2951164,3.8141594,0.035412222,-0.63986224,-0.61544,10.507512991048284,0.8885066786507704,jump
05/08/2020, 15:29:47,8.7984085,-4.2951164,3.8141594,-0.015874445,-0.6288723,-0.60445005,10.507512991048284,0.8724059812167714,jump
05/08/2020, 15:29:47,8.815159,-4.1754756,3.792624,-0.015874445,-0.6288723,-0.60445005,10.46544880498608,0.8724059812167714,jump
05/08/2020, 15:29:47,8.815159,-4.1754756,3.792624,-0.08059334,-0.6068922,-0.6056711,10.46544880498608,0.8611915894937734,jump
05/08/2020, 15:29:47,8.810373,-4.082155,3.7088752,-0.08059334,-0.6068922,-0.6056711,10.394345779999481,0.8611915894937734,jump
05/08/2020, 15:29:47,8.810373,-4.082155,3.7088752,-0.16240779,-0.5775856,-0.60445005,10.394345779999481,0.8516696824777715,jump
05/08/2020, 15:29:47,8.815159,-3.9768713,3.6873398,-0.16240779,-0.5775856,-0.60445005,10.349831161593913,0.8516696824777715,jump
05/08/2020, 15:29:47,8.815159,-3.9768713,3.6873398,-0.24666445,-0.53973114,-0.59956557,10.349831161593913,0.8435827919653549,jump
05/08/2020, 15:29:48,10.078569,-10.279566,1.2179468,7.4109235,-3.0735369,-4.632896,14.447505978274982,9.264563702680597,jump
05/08/2020, 15:29:48,10.849058,-9.3511505,2.455036,7.4109235,-3.0735369,-4.632896,14.531802368350114,9.264563702680597,jump
05/08/2020, 15:29:48,10.849058,-9.3511505,2.455036,9.024012,-3.9881492,-4.7916403,14.531802368350114,10.968041572337052,jump
05/08/2020, 15:29:48,11.875579,-7.7503524,3.2685957,9.024012,-3.9881492,-4.7916403,14.552699186696634,10.968041572337052,jump
05/08/2020, 15:29:48,11.875579,-7.7503524,3.2685957,10.206047,-4.7183733,-4.886887,14.552699186696634,12.260020734359939,jump
05/08/2020, 15:29:48,13.138989,-6.192625,3.7710886,10.206047,-4.7183733,-4.886887,15.006757075293201,12.260020734359939,jump
05/08/2020, 15:29:48,13.138989,-6.192625,3.7710886,10.950925,-5.1982703,-4.7501225,15.006757075293201,13.019540472835832,jump
05/08/2020, 15:29:48,14.488541,-5.237889,3.751946,10.950925,-5.1982703,-4.7501225,15.856556623283618,13.019540472835832,jump
05/08/2020, 15:29:48,14.488541,-5.237889,3.751946,11.273298,-5.435166,-4.30808,15.856556623283618,13.235854218125136,jump
05/08/2020, 15:29:48,15.919449,-4.6085763,3.5030923,11.273298,-5.435166,-4.30808,16.93928814460426,13.235854218125136,jump
05/08/2020, 15:29:48,15.919449,-4.6085763,3.5030923,11.164619,-5.3216023,-3.590067,16.93928814460426,12.878538709785671,jump
05/08/2020, 15:29:48,17.163717,-4.0701914,3.141776,11.164619,-5.3216023,-3.590067,17.917321378649714,12.878538709785671,jump
05/08/2020, 15:29:48,17.163717,-4.0701914,3.141776,10.645647,-4.8636856,-2.7291834,17.917321378649714,12.018056457168722,jump
05/08/2020, 15:29:48,17.828922,-3.4648073,2.8307092,10.645647,-4.8636856,-2.7291834,18.381737499092896,12.018056457168722,jump
05/08/2020, 15:29:48,17.828922,-3.4648073,2.8307092,9.834829,-4.3227334,-1.9623257,18.381737499092896,10.92065081156303,jump
05/08/2020, 15:29:48,17.697317,-2.928815,2.4191437,9.834829,-4.3227334,-1.9623257,18.10042115928855,10.92065081156303,jump
05/08/2020, 15:29:48,17.697317,-2.928815,2.4191437,8.826192,-3.9161036,-1.3444434,18.10042115928855,9.749105552594827,jump
05/08/2020, 15:29:48,17.051254,-2.78046,2.3449662,8.826192,-3.9161036,-1.3444434,17.434881581655127,9.749105552594827,jump
05/08/2020, 15:29:48,17.051254,-2.78046,2.3449662,7.5513515,-3.6963034,-0.88408446,17.434881581655127,8.453826004442702,jump
05/08/2020, 15:29:48,16.01277,-2.3808584,1.8664017,7.5513515,-3.6963034,-0.88408446,16.29603434769658,8.453826004442702,jump
05/08/2020, 15:29:49,8.212168,-5.6303115,3.1489546,0.30649891,-0.8865267,-0.2075889,10.442989117740101,0.9607103264192436,jump
05/08/2020, 15:29:49,8.212168,-5.6303115,3.1489546,0.45425335,-0.9597934,-0.17217667,10.442989117740101,1.0757296400329193,jump
05/08/2020, 15:29:49,8.315059,-6.2237315,3.2853456,0.45425335,-0.9597934,-0.17217667,10.893508651381113,1.0757296400329193,jump
05/08/2020, 15:29:49,8.315059,-6.2237315,3.2853456,0.61666113,-1.0342811,-0.14409111,10.893508651381113,1.2127533407942117,jump
05/08/2020, 15:29:49,8.446664,-6.6089764,3.400201,0.61666113,-1.0342811,-0.14409111,11.251047341741613,1.2127533407942117,jump
05/08/2020, 15:29:49,8.446664,-6.6089764,3.400201,0.76075226,-1.0843467,-0.14164889,11.251047341741613,1.3321471658740294,jump
05/08/2020, 15:29:49,8.630911,-6.7405815,3.5150564,0.76075226,-1.0843467,-0.14164889,11.501464381849344,1.3321471658740294,jump
05/08/2020, 15:29:49,8.630911,-6.7405815,3.5150564,0.8364611,-1.10999,-0.13188,11.501464381849344,1.3961150929724448,jump
05/08/2020, 15:29:49,8.738588,-6.582655,3.6227336,0.8364611,-1.10999,-0.13188,11.52468962584089,1.3961150929724448,jump
05/08/2020, 15:29:49,8.738588,-6.582655,3.6227336,0.8303556,-1.1038845,-0.10867889,11.52468962584089,1.3855909917230302,jump
05/08/2020, 15:29:49,8.76491,-6.317052,3.67059,0.8303556,-1.1038845,-0.10867889,11.410609876940201,1.3855909917230302,jump
05/08/2020, 15:29:49,8.76491,-6.317052,3.67059,0.74976224,-1.0733567,-0.06594,11.410609876940201,1.3109485891641857,jump
05/08/2020, 15:29:49,8.685946,-6.084948,3.6849468,0.74976224,-1.0733567,-0.06594,11.227247732671616,1.3109485891641857,jump
05/08/2020, 15:29:49,8.685946,-6.084948,3.6849468,0.64108336,-1.0587034,-0.0061055557,11.227247732671616,1.2376906272689527,jump
05/08/2020, 15:29:49,8.480164,-5.879165,3.67059,0.64108336,-1.0587034,-0.0061055557,10.952213829225593,1.2376906272689527,jump
05/08/2020, 15:29:49,8.480164,-5.879165,3.67059,0.54095227,-1.0696933,0.035412222,10.952213829225593,1.199219409654316,jump
05/08/2020, 15:29:49,8.29113,-5.7451673,3.6179478,0.54095227,-1.0696933,0.035412222,10.71631144414665,1.199219409654316,jump
05/08/2020, 15:29:49,8.29113,-5.7451673,3.6179478,0.44448447,-1.1087689,0.059834447,10.71631144414665,1.1960414580434464,jump
05/08/2020, 15:29:49,8.097312,-5.584848,3.6059837,0.44448447,-1.1087689,0.059834447,10.476645754101158,1.1960414580434464,jump
05/08/2020, 15:29:49,8.097312,-5.584848,3.6059837,0.34679556,-1.1539501,0.09036223,10.476645754101158,1.20831838278763,jump
05/08/2020, 15:29:50,8.157132,-1.6534405,2.3425734,-0.9426978,0.94758224,0.5238567,8.646405059476685,1.4356243025086852,jump
05/08/2020, 15:29:50,8.157132,-1.6534405,2.3425734,-1.0330601,0.91094893,0.52141446,8.646405059476685,1.4727233654039593,jump
05/08/2020, 15:29:50,7.881958,-1.8017955,2.3449662,-1.0330601,0.91094893,0.52141446,8.418467517991989,1.4727233654039593,jump
05/08/2020, 15:29:50,7.881958,-1.8017955,2.3449662,-1.12098,0.84623003,0.5104245,8.418467517991989,1.4944010986255798,jump
05/08/2020, 15:29:50,7.6546397,-2.009971,2.306681,-1.12098,0.84623003,0.5104245,8.243437944559457,1.4944010986255798,jump
05/08/2020, 15:29:50,7.6546397,-2.009971,2.306681,-1.1844778,0.7619734,0.5043189,8.243437944559457,1.4959708059759496,jump
05/08/2020, 15:29:50,7.5062847,-2.292324,2.333002,-1.1844778,0.7619734,0.5043189,8.187915399060545,1.4959708059759496,jump
05/08/2020, 15:29:50,7.5062847,-2.292324,2.333002,-1.2052367,0.67039,0.49577114,8.187915399060545,1.4655399098166193,jump
05/08/2020, 15:29:50,7.463214,-2.5986054,2.440679,-1.2052367,0.67039,0.49577114,8.27098702448268,1.4655399098166193,jump
05/08/2020, 15:29:50,7.463214,-2.5986054,2.440679,-1.1588345,0.5800278,0.4798967,8.27098702448268,1.381893775733528,jump
05/08/2020, 15:29:50,7.501499,-2.8953154,2.5842485,-1.1588345,0.5800278,0.4798967,8.44592693164543,1.381893775733528,jump
05/08/2020, 15:29:50,7.501499,-2.8953154,2.5842485,-1.0306178,0.4798967,0.45303226,8.44592693164543,1.2238105161849566,jump
05/08/2020, 15:29:50,7.5230346,-3.1250265,2.7756743,-1.0306178,0.4798967,0.45303226,8.60617264776501,1.2238105161849566,jump
05/08/2020, 15:29:50,7.5230346,-3.1250265,2.7756743,-0.8425667,0.3809867,0.43960002,8.60617264776501,1.023873883169847,jump
05/08/2020, 15:29:50,7.5732837,-3.2973096,2.993421,-0.8425667,0.3809867,0.43960002,8.78563863204734,1.023873883169847,jump
05/08/2020, 15:29:50,7.5732837,-3.2973096,2.993421,-0.62765115,0.2820767,0.4273889,8.78563863204734,0.8100459905972296,jump
05/08/2020, 15:29:50,7.635497,-3.3547373,3.1776686,-0.62765115,0.2820767,0.4273889,8.924833647765785,0.8100459905972296,jump
05/08/2020, 15:29:50,7.635497,-3.3547373,3.1776686,-0.3858711,0.16607112,0.40174556,8.924833647765785,0.5812706980573925,jump
05/08/2020, 15:29:50,7.692925,-3.385844,3.3834512,-0.3858711,0.16607112,0.40174556,9.060506410373627,0.5812706980573925,jump
05/08/2020, 15:29:50,7.692925,-3.385844,3.3834512,-0.14531223,0.034191113,0.37732336,9.060506410373627,0.4057802301899834,jump
05/08/2020, 15:29:51,9.245867,-3.306881,2.8091738,0.42372558,-0.30161446,0.46280113,10.21337219622453,0.6962036571526486,jump
05/08/2020, 15:29:51,9.353543,-3.2350962,2.7732813,0.42372558,-0.30161446,0.46280113,10.278409838864954,0.6962036571526486,jump
05/08/2020, 15:29:51,9.353543,-3.2350962,2.7732813,0.34679556,-0.27719223,0.48356003,10.278409838864954,0.65645486766481,jump
05/08/2020, 15:29:51,9.468399,-3.1680973,2.7421749,0.34679556,-0.27719223,0.48356003,10.354078604434056,0.65645486766481,jump
05/08/2020, 15:29:51,9.468399,-3.1680973,2.7421749,0.2613178,-0.21247335,0.5018767,10.354078604434056,0.6044105761389372,jump
05/08/2020, 15:29:51,9.49472,-3.101098,2.672783,0.2613178,-0.21247335,0.5018767,10.33974342985997,0.6044105761389372,jump
05/08/2020, 15:29:51,9.49472,-3.101098,2.672783,0.17095557,-0.14287001,0.5153089,10.33974342985997,0.5614097660090052,jump
05/08/2020, 15:29:51,9.41815,-3.0077782,2.57707,0.17095557,-0.14287001,0.5153089,10.21712130323469,0.5614097660090052,jump
05/08/2020, 15:29:51,9.41815,-3.0077782,2.57707,0.08425667,-0.091583334,0.53118336,10.21712130323469,0.5455661809472679,jump
05/08/2020, 15:29:51,9.29133,-2.9982069,2.524428,0.08425667,-0.091583334,0.53118336,10.084185636694212,0.5455661809472679,jump
05/08/2020, 15:29:51,9.29133,-2.9982069,2.524428,0.008547778,-0.06716111,0.5421733,10.084185636694212,0.5463841094487767,jump
05/08/2020, 15:29:51,9.052048,-2.9886355,2.4789643,0.008547778,-0.06716111,0.5421733,9.849709367859564,0.5463841094487767,jump
05/08/2020, 15:29:51,9.052048,-2.9886355,2.4789643,-0.054950003,-0.07204556,0.5372889,9.849709367859564,0.5448756111827611,jump
05/08/2020, 15:29:51,8.817552,-3.0005996,2.469393,-0.054950003,-0.07204556,0.5372889,9.635907658509701,0.5448756111827611,jump
05/08/2020, 15:29:51,8.817552,-3.0005996,2.469393,-0.10013112,-0.109900005,0.5250778,9.635907658509701,0.545720595688874,jump
05/08/2020, 15:29:51,8.685946,-3.0077782,2.5196424,-0.10013112,-0.109900005,0.5250778,9.53105414308375,0.545720595688874,jump
05/08/2020, 15:29:51,8.685946,-3.0077782,2.5196424,-0.13432223,-0.17706113,0.4908867,9.53105414308375,0.5388532669527744,jump
05/08/2020, 15:29:51,8.609376,-3.0723844,2.6081767,-0.13432223,-0.17706113,0.4908867,9.505971054707272,0.5388532669527744,jump
05/08/2020, 15:29:51,8.609376,-3.0723844,2.6081767,-0.15386,-0.2283478,0.46280113,9.505971054707272,0.5385169447423253,jump
05/08/2020, 15:29:51,8.623733,-3.141776,2.7302105,-0.15386,-0.2283478,0.46280113,9.57567595312562,0.5385169447423253,jump
05/08/2020, 15:29:52,5.436493,-2.3712873,2.3186452,0.28574002,0.03052778,0.12211112,6.368247379686562,0.3122345730853934,jump
05/08/2020, 15:29:52,5.436493,-2.3712873,2.3186452,0.31871,0.019537779,0.19537778,6.368247379686562,0.3743397736737715,jump
05/08/2020, 15:29:52,4.8239303,-2.1870399,2.2157538,0.31871,0.019537779,0.19537778,5.741342297453164,0.3743397736737715,jump
05/08/2020, 15:29:52,4.8239303,-2.1870399,2.2157538,0.32970002,0.0036633336,0.2759711,5.741342297453164,0.42997160516725735,jump
05/08/2020, 15:29:52,4.1635113,-1.9669002,2.0745773,0.32970002,0.0036633336,0.2759711,5.0504845079060035,0.42997160516725735,jump
05/08/2020, 15:29:52,4.1635113,-1.9669002,2.0745773,0.32970002,-0.019537779,0.35412225,5.0504845079060035,0.484237956754221,jump
05/08/2020, 15:29:52,3.5389848,-1.68694,1.9334008,0.32970002,-0.019537779,0.35412225,4.3712947868114105,0.484237956754221,jump
05/08/2020, 15:29:52,3.5389848,-1.68694,1.9334008,0.32359445,-0.05617111,0.4249467,4.3712947868114105,0.5370737906054309,jump
05/08/2020, 15:29:52,2.9312077,-1.4500505,1.8448663,0.32359445,-0.05617111,0.4249467,3.7547511606017334,0.5370737906054309,jump
05/08/2020, 15:29:52,2.9312077,-1.4500505,1.8448663,0.31016225,-0.12211112,0.48478112,3.7547511606017334,0.5883234443047545,jump
05/08/2020, 15:29:52,2.3258235,-1.1724831,1.7228323,0.31016225,-0.12211112,0.48478112,3.122870948833961,0.5883234443047545,jump
05/08/2020, 15:29:52,2.3258235,-1.1724831,1.7228323,0.27963445,-0.22346334,0.5189722,3.122870948833961,0.6304470251076637,jump
05/08/2020, 15:29:52,1.7874385,-0.9738788,1.6462619,0.27963445,-0.22346334,0.5189722,2.6179294673695215,0.6304470251076637,jump
05/08/2020, 15:29:52,1.7874385,-0.9738788,1.6462619,0.25887558,-0.36633334,0.52752,2.6179294673695215,0.6924550739238704,jump
05/08/2020, 15:29:52,1.3854443,-0.8207382,1.5984055,0.25887558,-0.36633334,0.52752,2.268913204455437,0.6924550739238704,jump
05/08/2020, 15:29:52,1.3854443,-0.8207382,1.5984055,0.27963445,-0.5592689,0.48844448,2.268913204455437,0.7934450983584375,jump
05/08/2020, 15:29:52,1.1126626,-0.77766734,1.564906,0.27963445,-0.5592689,0.48844448,2.071645541152849,0.7934450983584375,jump
05/08/2020, 15:29:52,1.1126626,-0.77766734,1.564906,0.38220778,-0.8095967,0.38220778,2.071645541152849,0.9734538615604735,jump
05/08/2020, 15:29:52,1.0959128,-0.99302137,1.6510476,0.38220778,-0.8095967,0.38220778,2.2165456167854036,0.9734538615604735,jump
05/08/2020, 15:29:52,1.0959128,-0.99302137,1.6510476,0.59346,-1.0684723,0.25521225,2.2165456167854036,1.2485836272427966,jump
05/08/2020, 15:29:53,13.780266,4.45065,7.4249287,-5.507211,-0.5507211,-0.15874445,16.273708205641924,5.536954834103741,jump
05/08/2020, 15:29:53,12.897314,2.7565317,7.1042905,-5.507211,-0.5507211,-0.15874445,14.980324451145085,5.536954834103741,jump
05/08/2020, 15:29:53,12.897314,2.7565317,7.1042905,-6.272848,-0.33580557,-0.08059334,14.980324451145085,6.282347038882049,jump
05/08/2020, 15:29:53,12.191431,0.93320084,7.068398,-6.272848,-0.33580557,-0.08059334,14.123176165728292,6.282347038882049,jump
05/08/2020, 15:29:53,12.191431,0.93320084,7.068398,-6.678257,-0.07326667,-0.028085556,14.123176165728292,6.67871793147353,jump
05/08/2020, 15:29:53,11.609976,-0.9284152,7.257431,-6.678257,-0.07326667,-0.028085556,13.723111830956285,6.67871793147353,jump
05/08/2020, 15:29:53,11.609976,-0.9284152,7.257431,-6.730765,0.19537778,0.0,13.723111830956285,6.733599940402966,jump
05/08/2020, 15:29:53,11.038091,-2.7397819,7.5900335,-6.730765,0.19537778,0.0,13.673129124565087,6.733599940402966,jump
05/08/2020, 15:29:53,11.038091,-2.7397819,7.5900335,-6.468226,0.41395667,0.0061055557,13.673129124565087,6.48146159608001,jump
05/08/2020, 15:29:53,10.466207,-4.2759743,7.920243,-6.468226,0.41395667,0.0061055557,13.804190716757368,6.48146159608001,jump
05/08/2020, 15:29:53,10.466207,-4.2759743,7.920243,-5.9968767,0.5592689,-0.045181114,13.804190716757368,6.023068435664252,jump
05/08/2020, 15:29:53,9.844072,-5.237889,8.142776,-5.9968767,0.5592689,-0.045181114,13.807462942676258,6.023068435664252,jump
05/08/2020, 15:29:53,9.844072,-5.237889,8.142776,-5.403417,0.61666113,-0.10501556,13.807462942676258,5.439505095910441,jump
05/08/2020, 15:29:53,9.18126,-5.7930236,8.209774,-5.403417,0.61666113,-0.10501556,13.610843062608762,5.439505095910441,jump
05/08/2020, 15:29:53,9.18126,-5.7930236,8.209774,-4.778208,0.58979666,-0.123332225,13.610843062608762,4.816050302810446,jump
05/08/2020, 15:29:53,8.602198,-6.142376,8.157132,-4.778208,0.58979666,-0.123332225,13.351606327116022,4.816050302810446,jump
05/08/2020, 15:29:53,8.602198,-6.142376,8.157132,-4.18719,0.51164556,-0.09036223,13.351606327116022,4.2193017278425895,jump
05/08/2020, 15:29:53,8.147561,-6.4127645,7.850851,-4.18719,0.51164556,-0.09036223,13.005466656655006,4.2193017278425895,jump
05/08/2020, 15:29:53,8.147561,-6.4127645,7.850851,-3.614489,0.41395667,-0.023201112,13.005466656655006,3.638190445343912,jump
05/08/2020, 15:29:53,7.865208,-6.6999035,7.4177504,-3.614489,0.41395667,-0.023201112,12.719010431605625,3.638190445343912,jump
05/08/2020, 15:29:54,8.73141,-2.8139594,4.4410787,0.9072856,-1.0086378,0.45181113,10.192108124523836,1.4299127918285108,jump
05/08/2020, 15:29:54,8.690732,-2.8378878,4.551149,0.9072856,-1.0086378,0.45181113,10.212511244945803,1.4299127918285108,jump
05/08/2020, 15:29:54,8.690732,-2.8378878,4.551149,0.92193896,-0.9732256,0.42861003,10.212511244945803,1.407425326356654,jump
05/08/2020, 15:29:54,8.520842,-2.8378878,4.5942197,0.92193896,-0.9732256,0.42861003,10.087874058403758,1.407425326356654,jump
05/08/2020, 15:29:54,8.520842,-2.8378878,4.5942197,0.9365923,-0.9720045,0.40907225,10.087874058403758,1.410438904149709,jump
05/08/2020, 15:29:54,8.319844,-2.8187451,4.5966125,0.9365923,-0.9720045,0.40907225,9.91433197279158,1.410438904149709,jump
05/08/2020, 15:29:54,8.319844,-2.8187451,4.5966125,0.9402556,-0.9927634,0.38953447,9.91433197279158,1.4217583601384858,jump
05/08/2020, 15:29:54,8.183454,-2.8091738,4.65404,0.9402556,-0.9927634,0.38953447,9.82448251804933,1.4217583601384858,jump
05/08/2020, 15:29:54,8.183454,-2.8091738,4.65404,0.9549089,-1.0281756,0.3724389,9.82448251804933,1.4517943415727208,jump
05/08/2020, 15:29:54,8.183454,-2.8570302,4.723432,0.9549089,-1.0281756,0.3724389,9.871288868588275,1.4517943415727208,jump
05/08/2020, 15:29:54,8.183454,-2.8570302,4.723432,0.9842156,-1.0672512,0.36633334,9.871288868588275,1.497299445476034,jump
05/08/2020, 15:29:54,8.29113,-2.9192436,4.7545385,0.9842156,-1.0672512,0.36633334,9.99352077628963,1.497299445476034,jump
05/08/2020, 15:29:54,8.29113,-2.9192436,4.7545385,1.0281756,-1.0819045,0.35168,9.99352077628963,1.5334083904328268,jump
05/08/2020, 15:29:54,8.496913,-2.9312077,4.831109,1.0281756,-1.0819045,0.35168,10.20436782642147,1.5334083904328268,jump
05/08/2020, 15:29:54,8.496913,-2.9312077,4.831109,1.0611455,-1.0367234,0.33336335,10.20436782642147,1.5205118705636615,jump
05/08/2020, 15:29:54,8.705089,-2.8570302,4.8622155,1.0611455,-1.0367234,0.33336335,10.372190166581161,1.5205118705636615,jump
05/08/2020, 15:29:54,8.705089,-2.8570302,4.8622155,1.075799,-0.9524667,0.32237336,10.372190166581161,1.4725694929358928,jump
05/08/2020, 15:29:54,8.803194,-2.7613173,4.8622155,1.075799,-0.9524667,0.32237336,10.428913564555096,1.4725694929358928,jump
05/08/2020, 15:29:54,8.803194,-2.7613173,4.8622155,1.0623667,-0.8767578,0.31260446,10.428913564555096,1.4124619795919686,jump
05/08/2020, 15:29:54,8.769695,-2.6608188,4.8215375,1.0623667,-0.8767578,0.31260446,10.355420605592052,1.4124619795919686,jump
05/08/2020, 15:29:55,8.786445,-4.5391846,2.5411777,0.41029334,-0.65329444,0.18194556,10.210944655229346,0.7926149403988754,jump
05/08/2020, 15:29:55,8.95155,-4.5415773,2.5962126,0.41029334,-0.65329444,0.18194556,10.368051104864193,0.7926149403988754,jump
05/08/2020, 15:29:55,8.95155,-4.5415773,2.5962126,0.37488112,-0.61666113,0.18194556,10.368051104864193,0.7442519678546922,jump
05/08/2020, 15:29:55,9.059227,-4.5798626,2.6321049,0.37488112,-0.61666113,0.18194556,10.48678745389319,0.7442519678546922,jump
05/08/2020, 15:29:55,9.059227,-4.5798626,2.6321049,0.33580557,-0.5775856,0.16485001,10.48678745389319,0.6881467893688378,jump
05/08/2020, 15:29:55,9.052048,-4.6301117,2.6464617,0.33580557,-0.5775856,0.16485001,10.506248715034534,0.6881467893688378,jump
05/08/2020, 15:29:55,9.052048,-4.6301117,2.6464617,0.29795113,-0.5507211,0.14897557,10.506248715034534,0.6436321435198454,jump
05/08/2020, 15:29:55,8.944371,-4.709075,2.6679974,0.29795113,-0.5507211,0.14897557,10.454442768908608,0.6436321435198454,jump
05/08/2020, 15:29:55,8.944371,-4.709075,2.6679974,0.26498112,-0.5556056,0.13676445,10.454442768908608,0.6305688556434107,jump
05/08/2020, 15:29:55,8.810373,-4.735396,2.6919255,0.26498112,-0.5556056,0.13676445,10.3582390028669,0.6305688556434107,jump
05/08/2020, 15:29:55,8.810373,-4.735396,2.6919255,0.24544334,-0.59956557,0.12211112,10.3582390028669,0.6592665834634158,jump
05/08/2020, 15:29:55,8.707481,-4.7377887,2.6895328,0.24544334,-0.59956557,0.12211112,10.271341687307357,0.6592665834634158,jump
05/08/2020, 15:29:55,8.707481,-4.7377887,2.6895328,0.23689556,-0.6618422,0.12089001,10.271341687307357,0.7132804735828081,jump
05/08/2020, 15:29:55,8.738588,-4.7377887,2.6919255,0.23689556,-0.6618422,0.12089001,10.29835086999827,0.7132804735828081,jump
05/08/2020, 15:29:55,8.738588,-4.7377887,2.6919255,0.23689556,-0.6789378,0.12211112,10.29835086999827,0.7293744983554102,jump
05/08/2020, 15:29:55,8.819944,-4.725825,2.7493532,0.23689556,-0.6789378,0.12211112,10.377079651977933,0.7293744983554102,jump
05/08/2020, 15:29:55,8.819944,-4.725825,2.7493532,0.23933779,-0.65329444,0.12211112,10.377079651977933,0.7063903541503703,jump
05/08/2020, 15:29:55,8.843872,-4.725825,2.806781,0.23933779,-0.65329444,0.12211112,10.41275724436088,0.7063903541503703,jump
05/08/2020, 15:29:55,8.843872,-4.725825,2.806781,0.25277,-0.6068922,0.11844778,10.41275724436088,0.6680125220059944,jump
05/08/2020, 15:29:55,8.819944,-4.7306104,2.7948167,0.25277,-0.6068922,0.11844778,10.391395187511383,0.6680125220059944,jump
05/08/2020, 15:29:56,6.896115,-3.6729827,4.421936,0.28574002,-0.44082114,0.085477784,8.977790366019443,0.5322378113076984,jump
05/08/2020, 15:29:56,6.896115,-3.6729827,4.421936,0.2759711,-0.46158,0.078151114,8.977790366019443,0.5434369851327238,jump
05/08/2020, 15:29:56,6.920043,-3.739982,4.5415773,0.2759711,-0.46158,0.078151114,9.08297221559516,0.5434369851327238,jump
05/08/2020, 15:29:56,6.920043,-3.739982,4.5415773,0.26986557,-0.47379112,0.068382226,9.08297221559516,0.5495285103777935,jump
05/08/2020, 15:29:56,7.01097,-3.8117664,4.6229334,0.26986557,-0.47379112,0.068382226,9.22251473579831,0.5495285103777935,jump
05/08/2020, 15:29:56,7.01097,-3.8117664,4.6229334,0.26376,-0.4689067,0.054950003,9.22251473579831,0.5407978684389857,jump
05/08/2020, 15:29:56,7.1282187,-3.8739798,4.6468616,0.26376,-0.4689067,0.054950003,9.34946752348347,0.5407978684389857,jump
05/08/2020, 15:29:56,7.1282187,-3.8739798,4.6468616,0.25887558,-0.4493689,0.029306669,9.34946752348347,0.5194303120125568,jump
05/08/2020, 15:29:56,7.1617184,-3.95055,4.651647,0.25887558,-0.4493689,0.029306669,9.409297347727463,0.5194303120125568,jump
05/08/2020, 15:29:56,7.1617184,-3.95055,4.651647,0.2735289,-0.42983112,0.0024422223,9.409297347727463,0.5094887781882378,jump
05/08/2020, 15:29:56,7.204789,-4.019942,4.644469,0.2735289,-0.42983112,0.0024422223,9.467840793070671,0.5094887781882378,jump
05/08/2020, 15:29:56,7.204789,-4.019942,4.644469,0.2955089,-0.42250445,-0.019537779,9.467840793070671,0.51596244439297,jump
05/08/2020, 15:29:56,7.21436,-4.091727,4.6396832,0.2955089,-0.42250445,-0.019537779,9.503466856969505,0.51596244439297,jump
05/08/2020, 15:29:56,7.21436,-4.091727,4.6396832,0.32359445,-0.4151778,-0.029306669,9.503466856969505,0.527204750310062,jump
05/08/2020, 15:29:56,7.2502527,-4.141976,4.6803613,0.32359445,-0.4151778,-0.029306669,9.572246882073957,0.527204750310062,jump
05/08/2020, 15:29:56,7.2502527,-4.141976,4.6803613,0.35778558,-0.4163989,-0.028085556,9.572246882073957,0.5497157228928973,jump
05/08/2020, 15:29:56,7.314859,-4.206582,4.735396,0.35778558,-0.4163989,-0.028085556,9.676077099667408,0.5497157228928973,jump
05/08/2020, 15:29:56,7.314859,-4.206582,4.735396,0.3834289,-0.42372558,-0.03052778,9.676077099667408,0.5722700681341418,jump
05/08/2020, 15:29:56,7.4249287,-4.2855453,4.792824,0.3834289,-0.42372558,-0.03052778,9.821742438005122,0.5722700681341418,jump
05/08/2020, 15:29:56,7.4249287,-4.2855453,4.792824,0.41029334,-0.4163989,-0.03297,9.821742438005122,0.5855046547927156,jump
05/08/2020, 15:29:57,8.319844,-4.338187,3.1369905,-0.14164889,0.028085556,-0.26620224,9.89345168812349,0.3028478814485176,jump
05/08/2020, 15:29:57,8.260024,-4.319045,3.1322048,-0.14164889,0.028085556,-0.26620224,9.833252496823023,0.3028478814485176,jump
05/08/2020, 15:29:57,8.260024,-4.319045,3.1322048,-0.18194556,0.05250778,-0.27841336,9.833252496823023,0.3367124160366193,jump
05/08/2020, 15:29:57,8.221739,-4.261617,3.101098,-0.18194556,0.05250778,-0.27841336,9.766021674608545,0.3367124160366193,jump
05/08/2020, 15:29:57,8.221739,-4.261617,3.101098,-0.22102112,0.059834447,-0.2955089,9.766021674608545,0.3738395371049229,jump
05/08/2020, 15:29:57,8.178668,-4.2687955,3.048456,-0.22102112,0.059834447,-0.2955089,9.716290920684001,0.3738395371049229,jump
05/08/2020, 15:29:57,8.178668,-4.2687955,3.048456,-0.26009667,0.06105556,-0.30283555,9.716290920684001,0.4038408490853226,jump
05/08/2020, 15:29:57,8.233703,-4.2568316,2.9742785,-0.26009667,0.06105556,-0.30283555,9.734516292406074,0.4038408490853226,jump
05/08/2020, 15:29:57,8.233703,-4.2568316,2.9742785,-0.2955089,0.081814446,-0.31016225,9.734516292406074,0.43614186608218464,jump
05/08/2020, 15:29:57,8.319844,-4.3262234,2.9048867,-0.2955089,0.081814446,-0.31016225,9.817045575111223,0.43614186608218464,jump
05/08/2020, 15:29:57,8.319844,-4.3262234,2.9048867,-0.31504667,0.11600556,-0.31382558,9.817045575111223,0.4595630387821614,jump
05/08/2020, 15:29:57,8.396415,-4.362116,2.8402805,-0.31504667,0.11600556,-0.31382558,9.87901964007236,0.4595630387821614,jump
05/08/2020, 15:29:57,8.396415,-4.362116,2.8402805,-0.31382558,0.14287001,-0.32115224,9.87901964007236,0.4712081215652783,jump
05/08/2020, 15:29:57,8.422736,-4.4075794,2.821138,-0.31382558,0.14287001,-0.32115224,9.916050624875934,0.4712081215652783,jump
05/08/2020, 15:29:57,8.422736,-4.4075794,2.821138,-0.3052778,0.17095557,-0.32237336,9.916050624875934,0.4757572088651321,jump
05/08/2020, 15:29:57,8.429914,-4.4315076,2.8187451,-0.3052778,0.17095557,-0.32237336,9.932121711288104,0.4757572088651321,jump
05/08/2020, 15:29:57,8.429914,-4.4315076,2.8187451,-0.28940335,0.20026223,-0.30649891,9.932121711288104,0.4666913815231364,jump
05/08/2020, 15:29:57,8.334201,-4.409972,2.845066,-0.28940335,0.20026223,-0.30649891,9.848916672877495,0.4666913815231364,jump
05/08/2020, 15:29:57,8.334201,-4.409972,2.845066,-0.27475002,0.2185789,-0.29184556,9.848916672877495,0.4565502648338576,jump
05/08/2020, 15:29:57,8.240881,-4.3669014,2.8474588,-0.27475002,0.2185789,-0.29184556,9.751408552527428,0.4565502648338576,jump
05/08/2020, 15:29:58,-1.1700903,3.6131623,-1.5170496,-0.69114894,0.6056711,0.6142189,4.089681203612009,1.1053457328849123,jump
05/08/2020, 15:29:58,-1.1700903,3.6131623,-1.5170496,-0.8364611,0.3724389,0.22224224,4.089681203612009,0.9422152450951872,jump
05/08/2020, 15:29:58,-1.5098711,3.802195,-1.550549,-0.8364611,0.3724389,0.22224224,4.374997197372614,0.9422152450951872,jump
05/08/2020, 15:29:58,-1.5098711,3.802195,-1.550549,-0.8962956,0.14164889,-0.16607112,4.374997197372614,0.9224911049996671,jump
05/08/2020, 15:29:58,-1.8233309,3.7854455,-1.5122639,-0.8962956,0.14164889,-0.16607112,4.4655430631110775,0.9224911049996671,jump
05/08/2020, 15:29:58,-1.8233309,3.7854455,-1.5122639,-0.86943114,-0.09768889,-0.54095227,4.4655430631110775,1.0286316038832646,jump
05/08/2020, 15:29:58,-2.0985055,3.644269,-1.4979069,-0.86943114,-0.09768889,-0.54095227,4.464095310361643,1.0286316038832646,jump
05/08/2020, 15:29:58,-2.0985055,3.644269,-1.4979069,-0.8083756,-0.34801668,-0.9194967,4.464095310361643,1.2728161390827701,jump
05/08/2020, 15:29:58,-2.3186452,3.5509489,-1.5098711,-0.8083756,-0.34801668,-0.9194967,4.501673505767238,1.2728161390827701,jump
05/08/2020, 15:29:58,-2.3186452,3.5509489,-1.5098711,-0.7314456,-0.60445005,-1.3126945,4.501673505767238,1.6197343982695056,jump
05/08/2020, 15:29:58,-2.495714,3.4767714,-1.4811572,-0.7314456,-0.60445005,-1.3126945,4.528835807534772,1.6197343982695056,jump
05/08/2020, 15:29:58,-2.495714,3.4767714,-1.4811572,-0.6655056,-0.88286334,-1.7376412,4.528835807534772,2.059549067859011,jump
05/08/2020, 15:29:58,-2.656033,3.505485,-1.3734802,-0.6655056,-0.88286334,-1.7376412,4.607535659908575,2.059549067859011,jump
05/08/2020, 15:29:58,-2.656033,3.505485,-1.3734802,-0.6386411,-1.17593,-2.2004423,4.607535659908575,2.5753874031341573,jump
05/08/2020, 15:29:58,-2.6895328,3.5437703,-1.2107682,-0.6386411,-1.17593,-2.2004423,4.610624054556687,2.5753874031341573,jump
05/08/2020, 15:29:58,-2.6895328,3.5437703,-1.2107682,-0.6569578,-1.504409,-2.6962135,4.610624054556687,3.1566448982501703,jump
05/08/2020, 15:29:58,-2.5627131,3.5102708,-1.1006985,-0.6569578,-1.504409,-2.6962135,4.483418017738778,3.1566448982501703,jump
05/08/2020, 15:29:58,-2.5627131,3.5102708,-1.1006985,-0.7106867,-1.8414357,-3.218849,4.483418017738778,3.775837577894197,jump
05/08/2020, 15:29:58,-2.2085752,3.2997024,-0.9595219,-0.7106867,-1.8414357,-3.218849,4.084914057080762,3.775837577894197,jump
05/08/2020, 15:29:58,-2.2085752,3.2997024,-0.9595219,-0.7815111,-2.2114322,-3.7427058,4.084914057080762,4.416903776438993,jump
05/08/2020, 15:29:59,8.573483,-4.261617,1.9812572,0.4359367,0.5580478,0.6777167,9.777084426067988,0.9801826362704892,jump
05/08/2020, 15:29:59,8.30788,-4.28076,2.036292,0.4359367,0.5580478,0.6777167,9.565159002840385,0.9801826362704892,jump
05/08/2020, 15:29:59,8.30788,-4.28076,2.036292,0.5018767,0.41029334,0.6459678,9.565159002840385,0.9151476569898879,jump
05/08/2020, 15:29:59,8.271988,-4.338187,2.065006,0.5018767,0.41029334,0.6459678,9.566080820040701,0.9151476569898879,jump
05/08/2020, 15:29:59,8.271988,-4.338187,2.065006,0.56049,0.15508112,0.6239878,9.566080820040701,0.8529712629692957,jump
05/08/2020, 15:29:59,8.611769,-4.426722,2.1463618,0.56049,0.15508112,0.6239878,9.91792809672905,0.8529712629692957,jump
05/08/2020, 15:29:59,8.611769,-4.426722,2.1463618,0.6386411,0.02075889,0.6117767,9.91792809672905,0.884626561174673,jump
05/08/2020, 15:29:59,9.21476,-4.517649,2.3712873,0.6386411,0.02075889,0.6117767,10.532993705340985,0.884626561174673,jump
05/08/2020, 15:29:59,9.21476,-4.517649,2.3712873,0.71923447,0.11600556,0.59834445,10.532993705340985,0.9427468289446878,jump
05/08/2020, 15:29:59,9.712467,-4.5487556,2.536392,0.71923447,0.11600556,0.59834445,11.020729610819654,0.9427468289446878,jump
05/08/2020, 15:29:59,9.712467,-4.5487556,2.536392,0.7815111,0.30283555,0.56049,11.020729610819654,1.0082747986265235,jump
05/08/2020, 15:29:59,9.877572,-4.45065,2.507678,0.7815111,0.30283555,0.56049,11.120394158598703,1.0082747986265235,jump
05/08/2020, 15:29:59,9.877572,-4.45065,2.507678,0.7986067,0.42372558,0.5189722,11.120394158598703,1.0424241830817105,jump
05/08/2020, 15:29:59,9.647861,-4.2592244,2.361716,0.7986067,0.42372558,0.5189722,10.80740061166297,1.0424241830817105,jump
05/08/2020, 15:29:59,9.647861,-4.2592244,2.361716,0.76930004,0.4713489,0.4921078,10.80740061166297,1.0276976446049462,jump
05/08/2020, 15:29:59,9.164511,-4.072584,2.184647,0.76930004,0.4713489,0.4921078,10.263862889741523,1.0276976446049462,jump
05/08/2020, 15:29:59,9.164511,-4.072584,2.184647,0.6874856,0.4493689,0.47623336,10.263862889741523,0.9494035158592871,jump
05/08/2020, 15:29:59,8.609376,-3.8931224,2.0051854,0.6874856,0.4493689,0.47623336,9.659116157979536,0.9494035158592871,jump
05/08/2020, 15:29:59,8.609376,-3.8931224,2.0051854,0.58613336,0.3834289,0.47501224,9.659116157979536,0.846289944389808,jump
05/08/2020, 15:29:59,8.152347,-3.7974095,1.8305093,0.58613336,0.3834289,0.47501224,9.177790515931099,0.846289944389808,jump
05/08/2020, 15:30:00,8.463413,-3.426522,3.5246277,0.25643334,-0.28329778,-0.5006556,9.78741115400302,0.6298187903208389,jump
05/08/2020, 15:30:00,8.602198,-3.4528432,3.6107693,0.25643334,-0.28329778,-0.5006556,9.94774271800895,0.6298187903208389,jump
05/08/2020, 15:30:00,8.602198,-3.4528432,3.6107693,0.29795113,-0.28329778,-0.5238567,9.94774271800895,0.6659266845713989,jump
05/08/2020, 15:30:00,8.712267,-3.3906298,3.6777685,0.29795113,-0.28329778,-0.5238567,10.04619062415248,0.6659266845713989,jump
05/08/2020, 15:30:00,8.712267,-3.3906298,3.6777685,0.31138334,-0.2735289,-0.53118336,10.04619062415248,0.6737458034531734,jump
05/08/2020, 15:30:00,8.796016,-3.2853456,3.7064822,0.31138334,-0.2735289,-0.53118336,10.09462225105213,0.6737458034531734,jump
05/08/2020, 15:30:00,8.796016,-3.2853456,3.7064822,0.29917222,-0.2625389,-0.5226356,10.09462225105213,0.6569464563818062,jump
05/08/2020, 15:30:00,8.819944,-3.1657043,3.696911,0.29917222,-0.2625389,-0.5226356,10.07374081228434,0.6569464563818062,jump
05/08/2020, 15:30:00,8.819944,-3.1657043,3.696911,0.2515489,-0.24910668,-0.52141446,10.07374081228434,0.630241236127659,jump
05/08/2020, 15:30:00,8.82473,-3.0652058,3.6514473,0.2515489,-0.24910668,-0.52141446,10.030175082228453,0.630241236127659,jump
05/08/2020, 15:30:00,8.82473,-3.0652058,3.6514473,0.18316667,-0.23689556,-0.5238567,10.030175082228453,0.603403162654116,jump
05/08/2020, 15:30:00,8.796016,-3.0412776,3.629912,0.18316667,-0.23689556,-0.5238567,9.989770918963153,0.603403162654116,jump
05/08/2020, 15:30:00,8.796016,-3.0412776,3.629912,0.11966889,-0.21247335,-0.5189722,9.989770918963153,0.5734088686856824,jump
05/08/2020, 15:30:00,8.729017,-3.0149565,3.6059837,0.11966889,-0.21247335,-0.5189722,9.91407199478713,0.5734088686856824,jump
05/08/2020, 15:30:00,8.729017,-3.0149565,3.6059837,0.059834447,-0.1856089,-0.5140878,9.91407199478713,0.5498336881528786,jump
05/08/2020, 15:30:00,8.606983,-2.9886355,3.5940197,0.059834447,-0.1856089,-0.5140878,9.79433914000447,0.5498336881528786,jump
05/08/2020, 15:30:00,8.606983,-2.9886355,3.5940197,-0.012211111,-0.16607112,-0.52019334,9.79433914000447,0.5461957858013363,jump
05/08/2020, 15:30:00,8.477771,-2.9623144,3.591627,-0.012211111,-0.16607112,-0.52019334,9.672005371294615,0.5461957858013363,jump
05/08/2020, 15:30:00,8.477771,-2.9623144,3.591627,-0.09036223,-0.16485001,-0.52019334,9.672005371294615,0.5531202110948985,jump
05/08/2020, 15:30:00,8.334201,-2.8977082,3.5796626,-0.09036223,-0.16485001,-0.52019334,9.522058637461962,0.5531202110948985,jump
05/08/2020, 15:30:01,9.126225,-4.249653,1.9621146,-0.6203245,0.22468445,-0.49699223,10.256580054017885,0.8260065700576443,jump
05/08/2020, 15:30:01,9.126225,-4.249653,1.9621146,-0.65329444,0.23079,-0.52019334,10.256580054017885,0.866405659024202,jump
05/08/2020, 15:30:01,9.169296,-4.2185464,1.9405792,-0.65329444,0.23079,-0.52019334,10.278033624001521,0.866405659024202,jump
05/08/2020, 15:30:01,9.169296,-4.2185464,1.9405792,-0.70336,0.24178001,-0.52996224,10.278033624001521,0.9132540016271952,jump
05/08/2020, 15:30:01,9.233903,-4.1874394,1.9453648,-0.70336,0.24178001,-0.52996224,10.323955480038396,0.9132540016271952,jump
05/08/2020, 15:30:01,9.233903,-4.1874394,1.9453648,-0.7619734,0.26986557,-0.54950005,10.323955480038396,0.9774360150623155,jump
05/08/2020, 15:30:01,9.329616,-4.2017965,1.9477576,-0.7619734,0.26986557,-0.54950005,10.415881186010182,0.9774360150623155,jump
05/08/2020, 15:30:01,9.329616,-4.2017965,1.9477576,-0.82913446,0.31016225,-0.5678167,10.415881186010182,1.051703548958975,jump
05/08/2020, 15:30:01,9.382257,-4.1874394,1.9812572,-0.82913446,0.31016225,-0.5678167,10.46359327602246,1.051703548958975,jump
05/08/2020, 15:30:01,9.382257,-4.1874394,1.9812572,-0.8999589,0.35534334,-0.5775856,10.46359327602246,1.126854040036545,jump
05/08/2020, 15:30:01,9.360723,-4.1778684,1.9501505,-0.8999589,0.35534334,-0.5775856,10.434596184005814,1.126854040036545,jump
05/08/2020, 15:30:01,9.360723,-4.1778684,1.9501505,-0.95735115,0.40663,-0.5775856,10.434596184005814,1.1897370655951311,jump
05/08/2020, 15:30:01,9.253045,-4.1874394,1.9190438,-0.95735115,0.40663,-0.5775856,10.33616086349898,1.1897370655951311,jump
05/08/2020, 15:30:01,9.253045,-4.1874394,1.9190438,-1.0037534,0.44692668,-0.58979666,10.33616086349898,1.2470463097304403,jump
05/08/2020, 15:30:01,9.131011,-4.206582,1.8711873,-1.0037534,0.44692668,-0.58979666,10.22604697712198,1.2470463097304403,jump
05/08/2020, 15:30:01,9.131011,-4.206582,1.8711873,-1.0342811,0.46768558,-0.59346,10.22604697712198,1.2808833150429766,jump
05/08/2020, 15:30:01,8.9826565,-4.26401,1.9070797,-1.0342811,0.46768558,-0.59346,10.124566719736546,1.2808833150429766,jump
05/08/2020, 15:30:01,8.9826565,-4.26401,1.9070797,-1.0477134,0.4701278,-0.5971234,10.124566719736546,1.2943260186750607,jump
05/08/2020, 15:30:01,8.839087,-4.347759,1.942972,-1.0477134,0.4701278,-0.5971234,10.040298652480116,1.2943260186750607,jump
05/08/2020, 15:30:01,8.839087,-4.347759,1.942972,-1.0477134,0.45303226,-0.59468114,10.040298652480116,1.2870847886895413,jump
05/08/2020, 15:30:02,8.154739,-3.385844,3.6083765,-0.24300112,0.048844445,0.06594,9.538558322979906,0.2564827615405896,jump
05/08/2020, 15:30:02,8.154739,-3.385844,3.6083765,-0.081814446,-0.017095556,0.078151114,9.538558322979906,0.11442664994198076,jump
05/08/2020, 15:30:02,8.159525,-3.3810585,3.6275191,-0.081814446,-0.017095556,0.078151114,9.548209161798772,0.11442664994198076,jump
05/08/2020, 15:30:02,8.159525,-3.3810585,3.6275191,0.07448778,-0.05372889,0.07937223,9.548209161798772,0.12138852438949069,jump
05/08/2020, 15:30:02,8.116454,-3.3643086,3.67059,0.07448778,-0.05372889,0.07937223,9.522007680644824,0.12138852438949069,jump
05/08/2020, 15:30:02,8.116454,-3.3643086,3.67059,0.21369445,-0.070824444,0.07693,9.522007680644824,0.23790680185081364,jump
05/08/2020, 15:30:02,8.1020975,-3.249453,3.6897326,0.21369445,-0.070824444,0.07693,9.477186060446838,0.23790680185081364,jump
05/08/2020, 15:30:02,8.1020975,-3.249453,3.6897326,0.30772,-0.10013112,0.078151114,9.477186060446838,0.33290454939749137,jump
05/08/2020, 15:30:02,8.02792,-3.1322048,3.6658044,0.30772,-0.10013112,0.078151114,9.36463156495137,0.33290454939749137,jump
05/08/2020, 15:30:02,8.02792,-3.1322048,3.6658044,0.35778558,-0.14653334,0.07693,9.36463156495137,0.394209040969397,jump
05/08/2020, 15:30:02,7.999206,-2.9982069,3.591627,0.35778558,-0.14653334,0.07693,9.266948024591866,0.394209040969397,jump
05/08/2020, 15:30:02,7.999206,-2.9982069,3.591627,0.36999667,-0.21735778,0.078151114,9.266948024591866,0.4361760386290817,jump
05/08/2020, 15:30:02,7.9968133,-2.8546374,3.522235,0.36999667,-0.21735778,0.078151114,9.192612050785616,0.4361760386290817,jump
05/08/2020, 15:30:02,7.9968133,-2.8546374,3.522235,0.35778558,-0.2955089,0.09402556,9.192612050785616,0.47347316061199757,jump
05/08/2020, 15:30:02,8.133204,-2.8115666,3.4743786,0.35778558,-0.2955089,0.09402556,9.280367883073655,0.47347316061199757,jump
05/08/2020, 15:30:02,8.133204,-2.8115666,3.4743786,0.31138334,-0.3724389,0.11234222,9.280367883073655,0.49828816715225943,jump
05/08/2020, 15:30:02,8.439486,-2.8594232,3.4337006,0.31138334,-0.3724389,0.11234222,9.549424941049367,0.49828816715225943,jump
05/08/2020, 15:30:02,8.439486,-2.8594232,3.4337006,0.25277,-0.45059,0.12089001,9.549424941049367,0.5306019516051048,jump
05/08/2020, 15:30:02,8.872586,-2.955136,3.4887354,0.25277,-0.45059,0.12089001,9.981327109085447,0.5306019516051048,jump
05/08/2020, 15:30:02,8.872586,-2.955136,3.4887354,0.21980001,-0.4921078,0.10745778,9.981327109085447,0.549571937198208,jump
05/08/2020, 15:30:03,8.992228,-3.6275191,2.885744,-0.11234222,0.10135223,-0.09280445,10.116648180760885,0.17749849296131265,jump
05/08/2020, 15:30:03,9.0233345,-3.6610186,2.8666015,-0.11234222,0.10135223,-0.09280445,10.150912608741377,0.17749849296131265,jump
05/08/2020, 15:30:03,9.0233345,-3.6610186,2.8666015,-0.17706113,0.13432223,-0.08425667,10.150912608741377,0.2376810663306597,jump
05/08/2020, 15:30:03,8.999406,-3.682554,2.8307092,-0.17706113,0.13432223,-0.08425667,10.12736019617067,0.2376810663306597,jump
05/08/2020, 15:30:03,8.999406,-3.682554,2.8307092,-0.23445335,0.15019667,-0.07693,10.12736019617067,0.28886958771558524,jump
05/08/2020, 15:30:03,8.968299,-3.7304106,2.8522446,-0.23445335,0.15019667,-0.07693,10.123321973904957,0.28886958771558524,jump
05/08/2020, 15:30:03,8.968299,-3.7304106,2.8522446,-0.28085557,0.15630223,-0.070824444,10.123321973904957,0.3291296669498455,jump
05/08/2020, 15:30:03,8.95155,-3.7806597,2.8689942,-0.28085557,0.15630223,-0.070824444,10.131868262932528,0.3291296669498455,jump
05/08/2020, 15:30:03,8.95155,-3.7806597,2.8689942,-0.31016225,0.15996556,-0.054950003,10.131868262932528,0.35328331704648946,jump
05/08/2020, 15:30:03,8.965906,-3.8476589,2.8761728,-0.31016225,0.15996556,-0.054950003,10.171741327545996,0.35328331704648946,jump
