DATE,TIME,ax,ay,az,gx,gy,gz,ma,mg,label
05/08/2020, 15:24:52,-2.1080768,-2.9790642,9.238688,-0.091583334,0.19415668,-0.16729222,9.933386941517737,0.2721598974142488,jump
05/08/2020, 15:24:52,-2.1080768,-2.9790642,9.238688,-0.024422223,0.26498112,-0.2283478,9.933386941517737,0.35064819124966823,jump
05/08/2020, 15:24:52,-2.0003998,-2.8689942,9.29133,-0.024422223,0.26498112,-0.2283478,9.927816821378723,0.35064819124966823,jump
05/08/2020, 15:24:52,-2.0003998,-2.8689942,9.29133,0.0012211112,0.3602278,-0.31993112,9.927816821378723,0.4817898666742293,jump
05/08/2020, 15:24:52,-1.8376877,-2.5866413,9.327223,0.0012211112,0.3602278,-0.31993112,9.852151799548885,0.4817898666742293,jump
05/08/2020, 15:24:52,-1.8376877,-2.5866413,9.327223,-0.03297,0.47257003,-0.42128336,9.852151799548885,0.6339472604000251,jump
05/08/2020, 15:24:52,-1.7922242,-2.4382863,9.296116,-0.03297,0.47257003,-0.42128336,9.776250709740472,0.6339472604000251,jump
05/08/2020, 15:24:52,-1.7922242,-2.4382863,9.296116,-0.098910004,0.57148004,-0.4713489,9.776250709740472,0.7473569539139432,jump
05/08/2020, 15:24:52,-2.0434706,-2.4598217,9.150154,-0.098910004,0.57148004,-0.4713489,9.692874459417324,0.7473569539139432,jump
05/08/2020, 15:24:52,-2.0434706,-2.4598217,9.150154,-0.19293556,0.58979666,-0.43471557,9.692874459417324,0.7576686991555395,jump
05/08/2020, 15:24:52,-2.4909284,-2.5124638,8.977871,-0.19293556,0.58979666,-0.43471557,9.649837582783965,0.7576686991555395,jump
05/08/2020, 15:24:52,-2.4909284,-2.5124638,8.977871,-0.26620224,0.49821335,-0.37366003,9.649837582783965,0.677275418577574,jump
05/08/2020, 15:24:52,-2.900101,-2.7613173,8.815159,-0.26620224,0.49821335,-0.37366003,9.68207022886375,0.677275418577574,jump
05/08/2020, 15:24:52,-2.900101,-2.7613173,8.815159,-0.2845189,0.35900667,-0.2942878,9.68207022886375,0.5444649704759716,jump
05/08/2020, 15:24:52,-3.1202407,-3.101098,8.743374,-0.2845189,0.35900667,-0.2942878,9.787711570128858,0.5444649704759716,jump
05/08/2020, 15:24:52,-3.1202407,-3.101098,8.743374,-0.24788557,0.21980001,-0.20270446,9.787711570128858,0.38839206761994666,jump
05/08/2020, 15:24:52,-3.2805598,-3.4241292,8.700303,-0.24788557,0.21980001,-0.20270446,9.908683424499285,0.38839206761994666,jump
05/08/2020, 15:24:52,-3.2805598,-3.4241292,8.700303,-0.16729222,0.054950003,-0.106236674,9.908683424499285,0.20565121281487755,jump
05/08/2020, 15:24:52,-4.065406,-3.4528432,9.092726,-0.16729222,0.054950003,-0.106236674,10.541694001098143,0.20565121281487755,jump
05/08/2020, 15:24:52,-4.065406,-3.4528432,9.092726,-0.17950334,0.19415668,-0.05372889,10.541694001098143,0.26982412134434797,jump
05/08/2020, 15:24:53,-3.1465619,-4.831109,7.2287173,0.34191114,-0.29184556,-0.14287001,9.246340917579358,0.47168728631019063,jump
05/08/2020, 15:24:53,-3.1202407,-4.4004006,7.393822,0.34191114,-0.29184556,-0.14287001,9.152487878000453,0.47168728631019063,jump
05/08/2020, 15:24:53,-3.1202407,-4.4004006,7.393822,0.22468445,-0.3382478,-0.14897557,9.152487878000453,0.43253716391938213,jump
05/08/2020, 15:24:53,-3.0987053,-4.0271206,7.4105716,0.22468445,-0.3382478,-0.14897557,8.985335041268122,0.43253716391938213,jump
05/08/2020, 15:24:53,-3.0987053,-4.0271206,7.4105716,0.064718895,-0.3602278,-0.15386,8.985335041268122,0.39702077899240196,jump
05/08/2020, 15:24:53,-3.0317063,-3.802195,7.429714,0.064718895,-0.3602278,-0.15386,8.8796725048776,0.39702077899240196,jump
05/08/2020, 15:24:53,-3.0317063,-3.802195,7.429714,-0.09646778,-0.35534334,-0.15508112,8.8796725048776,0.399531072053504,jump
05/08/2020, 15:24:53,-2.940779,-3.8285162,7.4344997,-0.09646778,-0.35534334,-0.15508112,8.864395297197847,0.399531072053504,jump
05/08/2020, 15:24:53,-2.940779,-3.8285162,7.4344997,-0.22346334,-0.34435335,-0.15996556,8.864395297197847,0.440572438608645,jump
05/08/2020, 15:24:53,-2.8259234,-4.022335,7.4919276,-0.22346334,-0.34435335,-0.15996556,8.960692054678454,0.440572438608645,jump
05/08/2020, 15:24:53,-2.8259234,-4.022335,7.4919276,-0.2955089,-0.3394689,-0.1746189,8.960692054678454,0.4827591497362843,jump
05/08/2020, 15:24:53,-2.7756743,-4.2951164,7.5493555,-0.2955089,-0.3394689,-0.1746189,9.118396883720282,0.4827591497362843,jump
05/08/2020, 15:24:53,-2.7756743,-4.2951164,7.5493555,-0.32359445,-0.33458444,-0.16851334,9.118396883720282,0.4950321868757951,jump
05/08/2020, 15:24:53,-2.7014968,-4.6612186,7.759924,-0.32359445,-0.33458444,-0.16851334,9.446770024170325,0.4950321868757951,jump
05/08/2020, 15:24:53,-2.7014968,-4.6612186,7.759924,-0.31871,-0.32359445,-0.13188,9.446770024170325,0.4729500679945609,jump
05/08/2020, 15:24:53,-2.6679974,-4.9674997,8.030313,-0.31871,-0.32359445,-0.13188,9.812246581266741,0.4729500679945609,jump
05/08/2020, 15:24:53,-2.6679974,-4.9674997,8.030313,-0.24788557,-0.30039334,-0.09768889,9.812246581266741,0.4015302425781798,jump
05/08/2020, 15:24:53,-2.5722845,-5.259424,8.410771,-0.24788557,-0.30039334,-0.09768889,10.247890777973776,0.4015302425781798,jump
05/08/2020, 15:24:53,-2.5722845,-5.259424,8.410771,-0.13310112,-0.27475002,-0.07570889,10.247890777973776,0.31453985411751795,jump
05/08/2020, 15:24:53,-2.495714,-5.4699926,8.705089,-0.13310112,-0.27475002,-0.07570889,10.579601853297369,0.31453985411751795,jump
05/08/2020, 15:24:54,-2.536392,-4.85743,8.169097,0.007326667,-0.0036633336,-0.026864445,9.836770567144,0.0280855561039694,jump
05/08/2020, 15:24:54,-2.536392,-4.85743,8.169097,0.01099,-0.0036633336,-0.015874445,9.836770567144,0.01965192454396768,jump
05/08/2020, 15:24:54,-2.5316064,-4.8358946,8.212168,0.01099,-0.0036633336,-0.015874445,9.860760952750834,0.01965192454396768,jump
05/08/2020, 15:24:54,-2.5316064,-4.8358946,8.212168,0.0061055557,-0.0061055557,-0.0024422223,9.860760952750834,0.008973297630399016,jump
05/08/2020, 15:24:54,-2.536392,-4.816752,8.216953,0.0061055557,-0.0061055557,-0.0024422223,9.856607165955083,0.008973297630399016,jump
05/08/2020, 15:24:54,-2.536392,-4.816752,8.216953,-0.014653334,-0.008547778,-0.0061055557,9.856607165955083,0.018029490618888106,jump
05/08/2020, 15:24:54,-2.536392,-4.7976093,8.23131,-0.014653334,-0.008547778,-0.0061055557,9.85924956761804,0.018029490618888106,jump
05/08/2020, 15:24:54,-2.536392,-4.7976093,8.23131,-0.035412222,-0.0061055557,-0.0061055557,9.85924956761804,0.03644970641698191,jump
05/08/2020, 15:24:54,-2.5459633,-4.766503,8.248059,-0.035412222,-0.0061055557,-0.0061055557,9.860626770920264,0.03644970641698191,jump
05/08/2020, 15:24:54,-2.5459633,-4.766503,8.248059,-0.046402223,-0.01099,0.0012211112,9.860626770920264,0.047701546693423025,jump
05/08/2020, 15:24:54,-2.524428,-4.7545385,8.19781,-0.046402223,-0.01099,0.0012211112,9.807265903392139,0.047701546693423025,jump
05/08/2020, 15:24:54,-2.524428,-4.7545385,8.19781,-0.04396,-0.013432222,-0.008547778,9.807265903392139,0.046754366940277584,jump
05/08/2020, 15:24:54,-2.510071,-4.7784667,8.154739,-0.04396,-0.013432222,-0.008547778,9.779262497400193,0.046754366940277584,jump
05/08/2020, 15:24:54,-2.510071,-4.7784667,8.154739,-0.024422223,-0.015874445,-0.009768889,9.779262497400193,0.030722535374272896,jump
05/08/2020, 15:24:54,-2.4909284,-4.8191447,8.111669,-0.024422223,-0.015874445,-0.009768889,9.758485922534119,0.030722535374272896,jump
05/08/2020, 15:24:54,-2.4909284,-4.8191447,8.111669,-0.0036633336,-0.018316668,-0.0061055557,9.758485922534119,0.019651924399293755,jump
05/08/2020, 15:24:54,-2.507678,-4.833502,8.087741,-0.0036633336,-0.018316668,-0.0061055557,9.750012397448817,0.019651924399293755,jump
05/08/2020, 15:24:54,-2.507678,-4.833502,8.087741,0.0024422223,-0.024422223,-0.0048844446,9.750012397448817,0.025025331432536026,jump
05/08/2020, 15:24:54,-2.5028925,-4.8047876,8.116454,0.0024422223,-0.024422223,-0.0048844446,9.758446731781193,0.025025331432536026,jump
05/08/2020, 15:24:54,-2.5028925,-4.8047876,8.116454,-0.0048844446,-0.025643334,0.0024422223,9.758446731781193,0.026218367938126968,jump
05/08/2020, 15:24:55,2.9120653,-8.183454,1.253839,0.73755115,-0.57148004,-2.3384278,8.776169356110334,2.5177004639272416,jump
05/08/2020, 15:24:55,2.9120653,-8.183454,1.253839,0.1746189,-0.68138003,-2.3469756,8.776169356110334,2.4501152651909592,jump
05/08/2020, 15:24:55,3.2925239,-8.635697,1.3686945,0.1746189,-0.68138003,-2.3469756,9.342874670339567,2.4501152651909592,jump
05/08/2020, 15:24:55,3.2925239,-8.635697,1.3686945,-0.29184556,-0.7619734,-2.306679,9.342874670339567,2.4467417765942567,jump
05/08/2020, 15:24:55,3.778267,-9.042477,1.4189439,-0.29184556,-0.7619734,-2.306679,9.90227683908479,2.4467417765942567,jump
05/08/2020, 15:24:55,3.778267,-9.042477,1.4189439,-0.5507211,-0.79616445,-2.2578344,9.90227683908479,2.4566212385564508,jump
05/08/2020, 15:24:55,4.3070807,-9.164511,1.4644074,-0.5507211,-0.79616445,-2.2578344,10.231504805061117,2.4566212385564508,jump
05/08/2020, 15:24:55,4.3070807,-9.164511,1.4644074,-0.68504333,-0.79128003,-2.2163167,10.231504805061117,2.451013703179704,jump
05/08/2020, 15:24:55,4.7856455,-9.312865,1.5433706,-0.68504333,-0.79128003,-2.2163167,10.583659803215397,2.451013703179704,jump
05/08/2020, 15:24:55,4.7856455,-9.312865,1.5433706,-0.8071545,-0.7766267,-2.1613667,10.583659803215397,2.4343692009563638,jump
05/08/2020, 15:24:55,5.2283173,-9.533006,1.7850457,-0.8071545,-0.7766267,-2.1613667,11.018161717574946,2.4343692009563638,jump
05/08/2020, 15:24:55,5.2283173,-9.533006,1.7850457,-0.8364611,-0.74976224,-2.096648,11.018161717574946,2.3786011375866174,jump
05/08/2020, 15:24:55,5.6757755,-9.801002,2.0602202,-0.8364611,-0.74976224,-2.096648,11.511670888552018,2.3786011375866174,jump
05/08/2020, 15:24:55,5.6757755,-9.801002,2.0602202,-0.68504333,-0.73633003,-2.0368135,11.511670888552018,2.271579959210693,jump
05/08/2020, 15:24:55,6.13759,-10.253245,2.376073,-0.68504333,-0.73633003,-2.0368135,12.183791396706342,2.271579959210693,jump
05/08/2020, 15:24:55,6.13759,-10.253245,2.376073,-0.38831335,-0.7570889,-1.9757578,12.183791396706342,2.1511833705467964,jump
05/08/2020, 15:24:55,6.5443697,-10.798809,2.6344976,-0.38831335,-0.7570889,-1.9757578,12.898977847022014,2.1511833705467964,jump
05/08/2020, 15:24:55,6.5443697,-10.798809,2.6344976,0.0024422223,-0.79616445,-1.8866167,12.898977847022014,2.0477320135399504,jump
05/08/2020, 15:24:55,6.9655066,-11.184053,2.806781,0.0024422223,-0.79616445,-1.8866167,13.47142725755919,2.0477320135399504,jump
05/08/2020, 15:24:55,6.9655066,-11.184053,2.806781,0.3858711,-0.83401895,-1.7938123,13.47142725755919,2.0155015740058175,jump
05/08/2020, 15:24:56,5.271388,-3.4863427,3.6011982,-0.7754056,1.2003523,-0.9952056,7.273977293544962,1.741417136159673,jump
05/08/2020, 15:24:56,5.271388,-3.4863427,3.6011982,-0.8083756,1.0501556,-0.91461223,7.273977293544962,1.6102215720926145,jump
05/08/2020, 15:24:56,4.87418,-3.792624,4.0701914,-0.8083756,1.0501556,-0.91461223,7.396491316247134,1.6102215720926145,jump
05/08/2020, 15:24:56,4.87418,-3.792624,4.0701914,-0.8718734,0.80227005,-0.8218078,7.396491316247134,1.4419322079797297,jump
05/08/2020, 15:24:56,4.536792,-4.06062,4.536792,-0.8718734,0.80227005,-0.8218078,7.592996319771146,1.4419322079797297,jump
05/08/2020, 15:24:56,4.536792,-4.06062,4.536792,-0.8523356,0.4933289,-0.7558678,7.592996319771146,1.2414448961423339,jump
05/08/2020, 15:24:56,4.3501515,-4.098905,5.029713,-0.8523356,0.4933289,-0.7558678,7.811712726997141,1.2414448961423339,jump
05/08/2020, 15:24:56,4.3501515,-4.098905,5.029713,-0.6801589,0.17095557,-0.6899278,7.811712726997141,0.9837897871835671,jump
05/08/2020, 15:24:56,4.429115,-4.1635113,5.4053864,-0.6801589,0.17095557,-0.6899278,8.134499792533918,0.9837897871835671,jump
05/08/2020, 15:24:56,4.429115,-4.1635113,5.4053864,-0.41273558,-0.13676445,-0.60933447,8.134499792533918,0.7485610665559056,jump
05/08/2020, 15:24:56,4.7282176,-4.199404,5.501099,-0.41273558,-0.13676445,-0.60933447,8.381713730920342,0.7485610665559056,jump
05/08/2020, 15:24:56,4.7282176,-4.199404,5.501099,-0.18683001,-0.38220778,-0.52996224,8.381713730920342,0.6795941580217721,jump
05/08/2020, 15:24:56,5.206782,-4.2257247,5.3312087,-0.18683001,-0.38220778,-0.52996224,8.566744589556063,0.6795941580217721,jump
05/08/2020, 15:24:56,5.206782,-4.2257247,5.3312087,-0.11356334,-0.5336256,-0.44326335,8.566744589556063,0.7029475900912463,jump
05/08/2020, 15:24:56,5.656633,-4.2161536,4.965107,-0.11356334,-0.5336256,-0.44326335,8.62703508134014,0.7029475900912463,jump
05/08/2020, 15:24:56,5.656633,-4.2161536,4.965107,-0.16607112,-0.5690378,-0.3858711,8.62703508134014,0.7073048447696677,jump
05/08/2020, 15:24:56,6.0011992,-4.1491547,4.6396832,-0.16607112,-0.5690378,-0.3858711,8.646186294010162,0.7073048447696677,jump
05/08/2020, 15:24:56,6.0011992,-4.1491547,4.6396832,-0.2613178,-0.52996224,-0.3614489,8.646186294010162,0.6926703992580697,jump
05/08/2020, 15:24:56,6.125626,-3.9744785,4.319045,-0.2613178,-0.52996224,-0.3614489,8.483744719332737,0.6926703992580697,jump
05/08/2020, 15:24:56,6.125626,-3.9744785,4.319045,-0.34801668,-0.50676113,-0.3370267,8.483744719332737,0.7010773440815107,jump
05/08/2020, 15:24:57,-4.0414777,2.2827528,-0.43788654,-1.8536468,-2.6131778,-1.6558267,4.6622147726454966,3.606447892864263,jump
05/08/2020, 15:24:57,-3.8117664,1.9501505,-0.14596218,-1.8536468,-2.6131778,-1.6558267,4.284151593045252,3.606447892864263,jump
05/08/2020, 15:24:57,-3.8117664,1.9501505,-0.14596218,-1.9305768,-2.90136,-1.8035812,4.284151593045252,3.9240186186356234,jump
05/08/2020, 15:24:57,-3.5557344,1.5696917,0.009571291,-1.9305768,-2.90136,-1.8035812,3.8868072508965636,3.9240186186356234,jump
05/08/2020, 15:24:57,-3.5557344,1.5696917,0.009571291,-1.976979,-3.2237334,-1.9232501,3.8868072508965636,4.242616421268143,jump
05/08/2020, 15:24:57,-3.3355947,1.2155539,0.23449662,-1.976979,-3.2237334,-1.9232501,3.557913938984914,4.242616421268143,jump
05/08/2020, 15:24:57,-3.3355947,1.2155539,0.23449662,-2.02216,-3.5876245,-2.0404768,3.557913938984914,4.596055565272816,jump
05/08/2020, 15:24:57,-2.9886355,0.8805587,0.4331009,-2.02216,-3.5876245,-2.0404768,3.1456163885468857,4.596055565272816,jump
05/08/2020, 15:24:57,-2.9886355,0.8805587,0.4331009,-2.0502455,-3.9600635,-2.1796834,3.1456163885468857,4.9635299155337735,jump
05/08/2020, 15:24:57,-2.481357,0.56470615,0.7322037,-2.0502455,-3.9600635,-2.1796834,2.648046141703062,4.9635299155337735,jump
05/08/2020, 15:24:57,-2.481357,0.56470615,0.7322037,-2.0392556,-4.331281,-2.3311012,2.648046141703062,5.324715287409005,jump
05/08/2020, 15:24:57,-1.8400806,0.22971097,1.1844472,-2.0392556,-4.331281,-2.3311012,2.2003588136553818,5.324715287409005,jump
05/08/2020, 15:24:57,-1.8400806,0.22971097,1.1844472,-1.96721,-4.6646447,-2.493509,2.2003588136553818,5.643262633279897,jump
05/08/2020, 15:24:57,-1.1318051,-0.069391854,1.8879371,-1.96721,-4.6646447,-2.493509,2.2022952355952574,5.643262633279897,jump
05/08/2020, 15:24:57,-1.1318051,-0.069391854,1.8879371,-1.7828223,-4.9601536,-2.6376002,2.2022952355952574,5.8939387036226085,jump
05/08/2020, 15:24:57,-0.39481574,-0.39960137,2.672783,-1.7828223,-4.9601536,-2.6376002,2.731177245337468,5.8939387036226085,jump
05/08/2020, 15:24:57,-0.39481574,-0.39960137,2.672783,-1.5288311,-5.2275767,-2.7475002,2.731177245337468,6.100298381876221,jump
05/08/2020, 15:24:57,0.36610186,-0.7896315,3.3140593,-1.5288311,-5.2275767,-2.7475002,3.4264467336417153,6.100298381876221,jump
05/08/2020, 15:24:57,0.36610186,-0.7896315,3.3140593,-1.2785034,-5.471799,-2.8280935,3.4264467336417153,6.290728667174331,jump
05/08/2020, 15:24:57,1.1557333,-1.3112668,3.5940197,-1.2785034,-5.471799,-2.8280935,3.996513154243064,6.290728667174331,jump
05/08/2020, 15:24:58,10.54517,-4.3334017,1.026521,-1.2137845,-0.36877558,-0.5556056,11.446952527515155,1.384906388163828,jump
05/08/2020, 15:24:58,10.425529,-4.436293,1.134198,-1.2137845,-0.36877558,-0.5556056,11.386779471637599,1.384906388163828,jump
05/08/2020, 15:24:58,10.425529,-4.436293,1.134198,-1.02207,-0.52996224,-0.59956557,11.386779471637599,1.2980624147580768,jump
05/08/2020, 15:24:58,10.339387,-4.510471,1.2753744,-1.02207,-0.52996224,-0.59956557,11.35226187289203,1.2980624147580768,jump
05/08/2020, 15:24:58,10.339387,-4.510471,1.2753744,-0.8034911,-0.69114894,-0.6471889,11.35226187289203,1.2418286114890253,jump
05/08/2020, 15:24:58,10.363315,-4.5415773,1.5098711,-0.8034911,-0.69114894,-0.6471889,11.415074490945639,1.2418286114890253,jump
05/08/2020, 15:24:58,10.363315,-4.5415773,1.5098711,-0.5971234,-0.81448114,-0.68138003,11.415074490945639,1.2182834696471971,jump
05/08/2020, 15:24:58,10.423136,-4.5391846,1.698904,-0.5971234,-0.81448114,-0.68138003,11.494878446946247,1.2182834696471971,jump
05/08/2020, 15:24:58,10.423136,-4.5391846,1.698904,-0.42861003,-0.89385337,-0.7082445,11.494878446946247,1.218314684746486,jump
05/08/2020, 15:24:58,10.485349,-4.4315076,1.8640088,-0.42861003,-0.89385337,-0.7082445,11.534961015840805,1.218314684746486,jump
05/08/2020, 15:24:58,10.485349,-4.4315076,1.8640088,-0.2869611,-0.92560226,-0.7204556,11.534961015840805,1.207535700963053,jump
05/08/2020, 15:24:58,10.537991,-4.3405805,2.0315065,-0.2869611,-0.92560226,-0.7204556,11.576566970812507,1.207535700963053,jump
05/08/2020, 15:24:58,10.537991,-4.3405805,2.0315065,-0.17584,-0.92071784,-0.72534,11.576566970812507,1.1852253659963423,jump
05/08/2020, 15:24:58,10.497313,-4.3836513,2.1367905,-0.17584,-0.92071784,-0.72534,11.574793420340283,1.1852253659963423,jump
05/08/2020, 15:24:58,10.497313,-4.3836513,2.1367905,-0.09524667,-0.87920004,-0.72411895,11.574793420340283,1.1429842046530603,jump
05/08/2020, 15:24:58,10.363315,-4.438686,2.1966112,-0.09524667,-0.87920004,-0.72411895,11.485874941495734,1.1429842046530603,jump
05/08/2020, 15:24:58,10.363315,-4.438686,2.1966112,-0.025643334,-0.82913446,-0.7351089,11.485874941495734,1.108380193294242,jump
05/08/2020, 15:24:58,10.212567,-4.4889355,2.1702902,-0.025643334,-0.82913446,-0.7351089,11.364736372065105,1.108380193294242,jump
05/08/2020, 15:24:58,10.212567,-4.4889355,2.1702902,0.028085556,-0.8205867,-0.75098336,11.364736372065105,1.1127116891722046,jump
05/08/2020, 15:24:58,10.0881405,-4.57747,2.1176481,0.028085556,-0.8205867,-0.75098336,11.27866313374998,1.1127116891722046,jump
05/08/2020, 15:24:59,8.523234,-5.845666,0.41156548,-1.9379034,0.6581789,0.10013112,10.343438519789546,2.0490718246789257,jump
05/08/2020, 15:24:59,8.018349,-5.5513487,0.32303107,-1.9379034,0.6581789,0.10013112,9.757855147669533,2.0490718246789257,jump
05/08/2020, 15:24:59,8.018349,-5.5513487,0.32303107,-1.8316667,0.6007867,0.07693,9.757855147669533,1.9292137767203004,jump
05/08/2020, 15:24:59,7.618747,-5.1661043,0.23688944,-1.8316667,0.6007867,0.07693,9.208151814412215,1.9292137767203004,jump
05/08/2020, 15:24:59,7.618747,-5.1661043,0.23688944,-1.724209,0.54095227,0.05617111,9.208151814412215,1.8079494057593213,jump
05/08/2020, 15:24:59,7.3100734,-4.8119664,0.19621146,-1.724209,0.54095227,0.05617111,8.753895847781354,1.8079494057593213,jump
05/08/2020, 15:24:59,7.3100734,-4.8119664,0.19621146,-1.6228567,0.45547447,0.051286668,8.753895847781354,1.6863425801725174,jump
05/08/2020, 15:24:59,7.111469,-4.5224347,0.16271193,-1.6228567,0.45547447,0.051286668,8.429227679429072,1.6863425801725174,jump
05/08/2020, 15:24:59,7.111469,-4.5224347,0.16271193,-1.5178412,0.34557447,0.04151778,8.429227679429072,1.5572371071927793,jump
05/08/2020, 15:24:59,7.058827,-4.254439,0.15553348,-1.5178412,0.34557447,0.04151778,8.243268669393292,1.5572371071927793,jump
05/08/2020, 15:24:59,7.058827,-4.254439,0.15553348,-1.3908457,0.24055889,0.02198,8.243268669393292,1.411666866189404,jump
05/08/2020, 15:24:59,7.123433,-4.0007997,0.16510476,-1.3908457,0.24055889,0.02198,8.171716881163327,1.411666866189404,jump
05/08/2020, 15:24:59,7.123433,-4.0007997,0.16510476,-1.240649,0.18927222,-0.03052778,8.171716881163327,1.255374774406889,jump
05/08/2020, 15:24:59,7.2287173,-3.739982,0.2632105,-1.240649,0.18927222,-0.03052778,8.14316268417353,1.255374774406889,jump
05/08/2020, 15:24:59,7.2287173,-3.739982,0.2632105,-1.0819045,0.1746189,-0.117226675,8.14316268417353,1.102157550767345,jump
05/08/2020, 15:24:59,7.4129643,-3.6251264,0.3804588,-1.0819045,0.1746189,-0.117226675,8.260649514726197,1.102157550767345,jump
05/08/2020, 15:24:59,7.4129643,-3.6251264,0.3804588,-0.9536878,0.13798556,-0.1965989,8.260649514726197,0.9834691340408908,jump
05/08/2020, 15:24:59,7.6570325,-3.8213377,0.4953143,-0.9536878,0.13798556,-0.1965989,8.571937040245947,0.9834691340408908,jump
05/08/2020, 15:24:59,7.6570325,-3.8213377,0.4953143,-0.86821,0.068382226,-0.25399113,8.571937040245947,0.9071803879201826,jump
05/08/2020, 15:24:59,8.047063,-4.2759743,0.57188463,-0.86821,0.068382226,-0.25399113,9.130510879308503,0.9071803879201826,jump
05/08/2020, 15:25:00,-4.735396,6.778867,-5.139783,1.10999,0.05250778,-0.06105556,9.736240413119571,1.1129072962683169,jump
05/08/2020, 15:25:00,-4.6636114,7.4033933,-5.15414,1.10999,0.05250778,-0.06105556,10.155031382812442,1.1129072962683169,jump
05/08/2020, 15:25:00,-4.6636114,7.4033933,-5.15414,1.0599245,-0.14775445,-0.27719223,10.155031382812442,1.1054894036821195,jump
05/08/2020, 15:25:00,-4.4195433,7.9800634,-5.0344987,1.0599245,-0.14775445,-0.27719223,10.419210730142165,1.1054894036821195,jump
05/08/2020, 15:25:00,-4.4195433,7.9800634,-5.0344987,0.7631945,-0.2503278,-0.52752,10.419210730142165,0.9609407909310789,jump
05/08/2020, 15:25:00,-4.165904,8.255239,-4.843073,0.7631945,-0.2503278,-0.52752,10.438346362326712,0.9609407909310789,jump
05/08/2020, 15:25:00,-4.165904,8.255239,-4.843073,0.44570556,-0.30039334,-0.78029,10.438346362326712,0.9474925356888597,jump
05/08/2020, 15:25:00,-4.125226,8.250452,-4.520042,0.44570556,-0.30039334,-0.78029,10.272206568055072,0.9474925356888597,jump
05/08/2020, 15:25:00,-4.125226,8.250452,-4.520042,0.26376,-0.35900667,-0.9964267,10.272206568055072,1.091476660643002,jump
05/08/2020, 15:25:00,-4.2999024,7.8963146,-4.0438704,0.26376,-0.35900667,-0.9964267,9.858693310379916,1.091476660643002,jump
05/08/2020, 15:25:00,-4.2999024,7.8963146,-4.0438704,0.17339778,-0.48722336,-1.1783723,9.858693310379916,1.2868623010413316,jump
05/08/2020, 15:25:00,-4.5655055,7.2909307,-3.6179478,0.17339778,-0.48722336,-1.1783723,9.332259002512382,1.2868623010413316,jump
05/08/2020, 15:25:00,-4.5655055,7.2909307,-3.6179478,0.10135223,-0.7485411,-1.3688656,9.332259002512382,1.5634510334020286,jump
05/08/2020, 15:25:00,-4.7018967,6.6999035,-3.333202,0.10135223,-0.7485411,-1.3688656,8.837803676817462,1.5634510334020286,jump
05/08/2020, 15:25:00,-4.7018967,6.6999035,-3.333202,0.070824444,-1.0672512,-1.614309,8.837803676817462,1.9365006155663242,jump
05/08/2020, 15:25:00,-4.6636114,6.2668023,-2.778067,0.070824444,-1.0672512,-1.614309,8.290943220505092,1.9365006155663242,jump
05/08/2020, 15:25:00,-4.6636114,6.2668023,-2.778067,0.019537779,-1.3420012,-1.90127,8.290943220505092,2.3272680720447583,jump
05/08/2020, 15:25:00,-4.4410787,5.8887367,-2.103291,0.019537779,-1.3420012,-1.90127,7.669695761964831,2.3272680720447583,jump
05/08/2020, 15:25:00,-4.4410787,5.8887367,-2.103291,-0.18927222,-1.614309,-2.261498,7.669695761964831,2.784993798910991,jump
05/08/2020, 15:25:00,-3.871587,5.6470613,-1.8735801,-0.18927222,-1.614309,-2.261498,7.098506212221862,2.784993798910991,jump
05/08/2020, 15:25:01,7.7790666,-4.8215375,3.2327034,0.014653334,-0.051286668,-0.30894113,9.706259422508888,0.3135118207253868,jump
05/08/2020, 15:25:01,7.84128,-4.9172506,3.266203,0.014653334,-0.051286668,-0.30894113,9.814943052714058,0.3135118207253868,jump
05/08/2020, 15:25:01,7.84128,-4.9172506,3.266203,0.06227667,-0.045181114,-0.30772,9.814943052714058,0.3171928724890216,jump
05/08/2020, 15:25:01,7.881958,-4.898108,3.3140593,0.06227667,-0.045181114,-0.30772,9.853918653660825,0.3171928724890216,jump
05/08/2020, 15:25:01,7.881958,-4.898108,3.3140593,0.10379445,-0.036633335,-0.30405667,9.853918653660825,0.32336627814297586,jump
05/08/2020, 15:25:01,7.8987074,-4.8287163,3.2757742,0.10379445,-0.036633335,-0.30405667,9.820222818196122,0.32336627814297586,jump
05/08/2020, 15:25:01,7.8987074,-4.8287163,3.2757742,0.13432223,-0.035412222,-0.29062447,9.820222818196122,0.32211654439154624,jump
05/08/2020, 15:25:01,7.850851,-4.8095737,3.2590244,0.13432223,-0.035412222,-0.29062447,9.766734406561856,0.32211654439154624,jump
05/08/2020, 15:25:01,7.850851,-4.8095737,3.2590244,0.14531223,-0.045181114,-0.28818223,9.766734406561856,0.3258925829958953,jump
05/08/2020, 15:25:01,7.798209,-4.7808595,3.2757742,0.14531223,-0.045181114,-0.28818223,9.715934372299694,0.3258925829958953,jump
05/08/2020, 15:25:01,7.798209,-4.7808595,3.2757742,0.14897557,-0.070824444,-0.27719223,9.715934372299694,0.3225606242612059,jump
05/08/2020, 15:25:01,7.850851,-4.761717,3.278167,0.14897557,-0.070824444,-0.27719223,9.749676332103391,0.3225606242612059,jump
05/08/2020, 15:25:01,7.850851,-4.761717,3.278167,0.15019667,-0.09646778,-0.27475002,9.749676332103391,0.32764713956714725,jump
05/08/2020, 15:25:01,7.982456,-4.800002,3.2997024,0.15019667,-0.09646778,-0.27475002,9.881683217467192,0.32764713956714725,jump
05/08/2020, 15:25:01,7.982456,-4.800002,3.2997024,0.14164889,-0.10867889,-0.28085557,9.881683217467192,0.33279927638286844,jump
05/08/2020, 15:25:01,8.178668,-4.7880383,3.3260236,0.14164889,-0.10867889,-0.28085557,10.043821672153902,0.33279927638286844,jump
05/08/2020, 15:25:01,8.178668,-4.7880383,3.3260236,0.12211112,-0.08792,-0.29306668,10.043821672153902,0.3294375988061503,jump
05/08/2020, 15:25:01,8.303095,-4.7976093,3.3523445,0.12211112,-0.08792,-0.29306668,10.158575359176698,0.3294375988061503,jump
05/08/2020, 15:25:01,8.303095,-4.7976093,3.3523445,0.09646778,-0.045181114,-0.3052778,10.158575359176698,0.3233293942209515,jump
05/08/2020, 15:25:01,8.377272,-4.790431,3.359523,0.09646778,-0.045181114,-0.3052778,10.218282874076346,0.3233293942209515,jump
05/08/2020, 15:25:02,3.0532417,-0.9882358,1.026521,-0.2283478,-0.18927222,-0.4933289,3.3693679373537093,0.575621483720536,jump
05/08/2020, 15:25:02,3.0532417,-0.9882358,1.026521,-0.23811668,-0.26498112,-0.7070234,3.3693679373537093,0.7917048764515868,jump
05/08/2020, 15:25:02,3.548556,-1.5146568,0.80159557,-0.23811668,-0.26498112,-0.7070234,3.940684070441435,0.7917048764515868,jump
05/08/2020, 15:25:02,3.548556,-1.5146568,0.80159557,-0.16851334,-0.37610224,-0.94514006,3.940684070441435,1.0310865050570635,jump
05/08/2020, 15:25:02,4.180261,-2.1559331,0.7513463,-0.16851334,-0.37610224,-0.94514006,4.7631032024111635,1.0310865050570635,jump
05/08/2020, 15:25:02,4.180261,-2.1559331,0.7513463,0.017095556,-0.5519422,-1.23088,4.7631032024111635,1.3490730562809583,jump
05/08/2020, 15:25:02,4.9028935,-2.8235307,0.74895346,0.017095556,-0.5519422,-1.23088,5.707155320385188,1.3490730562809583,jump
05/08/2020, 15:25:02,4.9028935,-2.8235307,0.74895346,0.30772,-0.8437878,-1.5618012,5.707155320385188,1.8016360366053634,jump
05/08/2020, 15:25:02,5.910272,-3.818945,0.94277215,0.30772,-0.8437878,-1.5618012,7.0996109937431315,1.8016360366053634,jump
05/08/2020, 15:25:02,5.910272,-3.818945,0.94277215,0.55316335,-1.2504178,-1.9134812,7.0996109937431315,2.351796095748747,jump
05/08/2020, 15:25:02,7.554141,-5.5106707,1.6438692,0.55316335,-1.2504178,-1.9134812,9.493937217332768,2.351796095748747,jump
05/08/2020, 15:25:02,7.554141,-5.5106707,1.6438692,0.5800278,-1.7962545,-2.206548,9.493937217332768,2.9037590333545706,jump
05/08/2020, 15:25:02,10.4159565,-8.673982,3.2590244,0.5800278,-1.7962545,-2.206548,13.940995216390295,2.9037590333545706,jump
05/08/2020, 15:25:02,10.4159565,-8.673982,3.2590244,0.44326335,-2.4922879,-2.317669,13.940995216390295,3.4321378826837114,jump
05/08/2020, 15:25:02,15.08914,-12.732209,5.2019963,0.44326335,-2.4922879,-2.317669,20.416955236162714,3.4321378826837114,jump
05/08/2020, 15:25:02,15.08914,-12.732209,5.2019963,0.6068922,-3.01126,-2.2798145,20.416955236162714,3.825383540502608,jump
05/08/2020, 15:25:02,22.114468,-15.828522,8.255239,0.6068922,-3.01126,-2.2798145,28.420780100144253,3.825383540502608,jump
05/08/2020, 15:25:02,22.114468,-15.828522,8.255239,1.284609,-2.6656857,-2.1051955,28.420780100144253,3.631521495450527,jump
05/08/2020, 15:25:02,30.240492,-19.546968,11.923435,1.284609,-2.6656857,-2.1051955,37.93072147450898,3.631521495450527,jump
05/08/2020, 15:25:02,30.240492,-19.546968,11.923435,2.2688246,-1.4287001,-1.7547368,37.93072147450898,3.2043486201298097,jump
05/08/2020, 15:25:03,11.397015,-5.288138,3.7256248,2.8024502,0.34191114,-0.064718895,13.104832121538152,2.8239721621653646,jump
05/08/2020, 15:25:03,11.641082,-4.508078,3.790231,2.8024502,0.34191114,-0.064718895,13.046202696602416,2.8239721621653646,jump
05/08/2020, 15:25:03,11.641082,-4.508078,3.790231,2.5777657,0.48478112,0.09524667,13.046202696602416,2.624682967506336,jump
05/08/2020, 15:25:03,11.653047,-3.656233,3.7304106,2.5777657,0.48478112,0.09524667,12.7701800531914,2.624682967506336,jump
05/08/2020, 15:25:03,11.653047,-3.656233,3.7304106,2.2309701,0.5702589,0.2735289,12.7701800531914,2.318887896476475,jump
05/08/2020, 15:25:03,11.483156,-2.8163524,3.629912,2.2309701,0.5702589,0.2735289,12.368143654832814,2.318887896476475,jump
05/08/2020, 15:25:03,11.483156,-2.8163524,3.629912,1.7925912,0.64963114,0.4689067,12.368143654832814,1.9634860265584333,jump
05/08/2020, 15:25:03,11.248659,-2.0817556,3.505485,1.7925912,0.64963114,0.4689067,11.964717478421816,1.9634860265584333,jump
05/08/2020, 15:25:03,11.248659,-2.0817556,3.505485,1.2785034,0.72778225,0.67039,11.964717478421816,1.6166820212151394,jump
05/08/2020, 15:25:03,10.973485,-1.5122639,3.3403804,1.2785034,0.72778225,0.67039,11.56989439861604,1.6166820212151394,jump
05/08/2020, 15:25:03,10.973485,-1.5122639,3.3403804,0.7302245,0.78395337,0.83890337,11.56989439861604,1.36072390671746,jump
05/08/2020, 15:25:03,10.636097,-1.1653047,3.1657043,0.7302245,0.78395337,0.83890337,11.158233586697802,1.36072390671746,jump
05/08/2020, 15:25:03,10.636097,-1.1653047,3.1657043,0.18194556,0.8218078,0.92193896,11.158233586697802,1.2483764211281998,jump
05/08/2020, 15:25:03,10.279566,-1.0600204,3.0029924,0.18194556,0.8218078,0.92193896,10.761555645789496,1.2483764211281998,jump
05/08/2020, 15:25:03,10.279566,-1.0600204,3.0029924,-0.30405667,0.8315767,0.9317078,10.761555645789496,1.2853208552506,jump
05/08/2020, 15:25:03,9.980463,-1.2059826,2.8426733,-0.30405667,0.8315767,0.9317078,10.447240195465236,1.2853208552506,jump
05/08/2020, 15:25:03,9.980463,-1.2059826,2.8426733,-0.7070234,0.82425004,0.8730945,10.447240195465236,1.3934002295812442,jump
05/08/2020, 15:25:03,9.743574,-1.4237294,2.6799614,-0.7070234,0.82425004,0.8730945,10.20521611068407,1.3934002295812442,jump
05/08/2020, 15:25:03,9.743574,-1.4237294,2.6799614,-1.0513767,0.81326,0.80227005,10.20521611068407,1.552553401729948,jump
05/08/2020, 15:25:03,9.568898,-1.6749759,2.495714,-1.0513767,0.81326,0.80227005,10.02985269428472,1.552553401729948,jump
05/08/2020, 15:25:04,8.465807,-3.8380876,3.2566316,0.019537779,-0.025643334,-0.07204556,9.84918540143657,0.07892951077950285,jump
05/08/2020, 15:25:04,8.518449,-3.8787656,3.306881,0.019537779,-0.025643334,-0.07204556,9.92694588154644,0.07892951077950285,jump
05/08/2020, 15:25:04,8.518449,-3.8787656,3.306881,0.042738892,-0.018316668,-0.085477784,9.92694588154644,0.09730655073124848,jump
05/08/2020, 15:25:04,8.554341,-3.8835511,3.3020952,0.042738892,-0.018316668,-0.085477784,9.95803982746359,0.09730655073124848,jump
05/08/2020, 15:25:04,8.554341,-3.8835511,3.3020952,0.06227667,-0.009768889,-0.09768889,9.95803982746359,0.11626235032917262,jump
05/08/2020, 15:25:04,8.484949,-3.8835511,3.2997024,0.06227667,-0.009768889,-0.09768889,9.897695019923784,0.11626235032917262,jump
05/08/2020, 15:25:04,8.484949,-3.8835511,3.2997024,0.06960334,-0.012211111,-0.10013112,9.897695019923784,0.12255601401582665,jump
05/08/2020, 15:25:04,8.396415,-3.830909,3.2470603,0.06960334,-0.012211111,-0.10013112,9.783611052378598,0.12255601401582665,jump
05/08/2020, 15:25:04,8.396415,-3.830909,3.2470603,0.068382226,-0.03174889,-0.091583334,9.783611052378598,0.11862389280883585,jump
05/08/2020, 15:25:04,8.350951,-3.830909,3.2422748,0.068382226,-0.03174889,-0.091583334,9.743028038348644,0.11862389280883585,jump
05/08/2020, 15:25:04,8.350951,-3.830909,3.2422748,0.06349778,-0.054950003,-0.085477784,9.743028038348644,0.11982454955473401,jump
05/08/2020, 15:25:04,8.343773,-3.8691943,3.290131,0.06349778,-0.054950003,-0.085477784,9.768017859589584,0.11982454955473401,jump
05/08/2020, 15:25:04,8.343773,-3.8691943,3.290131,0.06105556,-0.08059334,-0.078151114,9.768017859589584,0.12779148836396792,jump
05/08/2020, 15:25:04,8.394022,-3.9074793,3.3140593,0.06105556,-0.08059334,-0.078151114,9.834174508717298,0.12779148836396792,jump
05/08/2020, 15:25:04,8.394022,-3.9074793,3.3140593,0.064718895,-0.09524667,-0.07326667,9.834174508717298,0.13648614919437838,jump
05/08/2020, 15:25:04,8.523234,-3.9984066,3.3930225,0.064718895,-0.09524667,-0.07326667,10.007266447294356,0.13648614919437838,jump
05/08/2020, 15:25:04,8.523234,-3.9984066,3.3930225,0.06349778,-0.10135223,-0.06105556,10.007266447294356,0.13428337246919841,jump
05/08/2020, 15:25:04,8.666803,-4.06062,3.438486,0.06349778,-0.10135223,-0.06105556,10.169823034249136,0.13428337246919841,jump
05/08/2020, 15:25:04,8.666803,-4.06062,3.438486,0.05617111,-0.081814446,-0.05372889,10.169823034249136,0.11285207523009787,jump
05/08/2020, 15:25:04,8.772088,-4.098905,3.455236,0.05617111,-0.081814446,-0.05372889,10.280525628884474,0.11285207523009787,jump
05/08/2020, 15:25:05,5.953343,-1.7347964,-2.8019953,0.0,-3.1602356,-6.1336412,6.804629891436776,6.89990175432445,jump
05/08/2020, 15:25:05,5.953343,-1.7347964,-2.8019953,0.7863956,-3.7378213,-6.480437,6.804629891436776,7.522352529093379,jump
05/08/2020, 15:25:05,8.365308,-3.3547373,-2.524428,0.7863956,-3.7378213,-6.480437,9.359774202774172,7.522352529093379,jump
05/08/2020, 15:25:05,8.365308,-3.3547373,-2.524428,1.9281346,-4.3874526,-6.9432383,9.359774202774172,8.436587031157178,jump
05/08/2020, 15:25:05,11.602797,-4.9340005,-1.7156538,1.9281346,-4.3874526,-6.9432383,12.724492784610046,8.436587031157178,jump
05/08/2020, 15:25:05,11.602797,-4.9340005,-1.7156538,3.41789,-5.0895915,-7.513497,12.724492784610046,9.697347550456671,jump
05/08/2020, 15:25:05,15.57249,-6.855437,-0.6580262,3.41789,-5.0895915,-7.513497,17.02740288193375,9.697347550456671,jump
05/08/2020, 15:25:05,15.57249,-6.855437,-0.6580262,5.0737166,-5.808826,-8.075208,17.02740288193375,11.166648523973661,jump
05/08/2020, 15:25:05,20.283958,-8.315059,0.79441714,5.0737166,-5.808826,-8.075208,21.936505412501987,11.166648523973661,jump
05/08/2020, 15:25:05,20.283958,-8.315059,0.79441714,6.7466393,-6.309481,-8.347516,21.936505412501987,12.4502095511866,jump
05/08/2020, 15:25:05,26.086552,-10.095319,3.5533416,6.7466393,-6.309481,-8.347516,28.196628807590066,12.4502095511866,jump
05/08/2020, 15:25:05,26.086552,-10.095319,3.5533416,8.4623,-6.6721516,-7.8895993,28.196628807590066,13.35566959657895,jump
05/08/2020, 15:25:05,32.786457,-14.120047,6.8817577,8.4623,-6.6721516,-7.8895993,36.35500065506387,13.35566959657895,jump
05/08/2020, 15:25:05,32.786457,-14.120047,6.8817577,10.27565,-6.2447624,-6.9151525,36.35500065506387,13.871026490526322,jump
05/08/2020, 15:25:05,36.567116,-16.24248,10.143175,10.27565,-6.2447624,-6.9151525,41.277791764560604,13.871026490526322,jump
05/08/2020, 15:25:05,36.567116,-16.24248,10.143175,11.909497,-5.072496,-5.9773393,41.277791764560604,14.258152922691501,jump
05/08/2020, 15:25:05,34.619358,-14.926428,10.767702,11.909497,-5.072496,-5.9773393,39.20767283767667,14.258152922691501,jump
05/08/2020, 15:25:05,34.619358,-14.926428,10.767702,12.454113,-4.4424024,-5.063948,39.20767283767667,14.15921750822166,jump
05/08/2020, 15:25:05,30.130423,-11.619547,8.506484,12.454113,-4.4424024,-5.063948,33.394857479834144,14.15921750822166,jump
05/08/2020, 15:25:05,30.130423,-11.619547,8.506484,11.936361,-4.52788,-4.139567,33.394857479834144,13.42067191047052,jump
05/08/2020, 15:25:06,8.477771,-3.2709885,3.548556,0.60811335,-0.07693,0.14287001,9.755214691731222,0.6293901088931857,jump
05/08/2020, 15:25:06,8.477771,-3.2709885,3.548556,0.53118336,-0.06105556,0.15141778,9.755214691731222,0.5557075567358658,jump
05/08/2020, 15:25:06,8.427522,-3.2757742,3.6179478,0.53118336,-0.06105556,0.15141778,9.738755843481492,0.5557075567358658,jump
05/08/2020, 15:25:06,8.427522,-3.2757742,3.6179478,0.47257003,-0.04029667,0.15874445,9.738755843481492,0.5001460371201818,jump
05/08/2020, 15:25:06,8.370093,-3.290131,3.7064822,0.47257003,-0.04029667,0.15874445,9.727355000678399,0.5001460371201818,jump
05/08/2020, 15:25:06,8.370093,-3.290131,3.7064822,0.4359367,-0.014653334,0.17584,9.727355000678399,0.47029270120858835,jump
05/08/2020, 15:25:06,8.327023,-3.3786657,3.8213377,0.4359367,-0.014653334,0.17584,9.765106667195004,0.47029270120858835,jump
05/08/2020, 15:25:06,8.327023,-3.3786657,3.8213377,0.42861003,0.025643334,0.20026223,9.765106667195004,0.4737816985544461,jump
05/08/2020, 15:25:06,8.269595,-3.507878,3.9696927,0.42861003,0.025643334,0.20026223,9.820889602774516,0.4737816985544461,jump
05/08/2020, 15:25:06,8.269595,-3.507878,3.9696927,0.44326335,0.057392225,0.2295689,9.820889602774516,0.5024720348890971,jump
05/08/2020, 15:25:06,8.128419,-3.6011982,4.031906,0.44326335,0.057392225,0.2295689,9.76197160683729,0.5024720348890971,jump
05/08/2020, 15:25:06,8.128419,-3.6011982,4.031906,0.4566956,0.06227667,0.24178001,9.76197160683729,0.5204870956814455,jump
05/08/2020, 15:25:06,7.9776707,-3.644269,4.0773697,0.4566956,0.06227667,0.24178001,9.672066447695242,0.5204870956814455,jump
05/08/2020, 15:25:06,7.9776707,-3.644269,4.0773697,0.48111778,0.045181114,0.24666445,9.672066447695242,0.5425486215878041,jump
05/08/2020, 15:25:06,7.850851,-3.6634114,4.0845485,0.48111778,0.045181114,0.24666445,9.57809905523792,0.5425486215878041,jump
05/08/2020, 15:25:06,7.850851,-3.6634114,4.0845485,0.4933289,0.019537779,0.25887558,9.57809905523792,0.5574690060805313,jump
05/08/2020, 15:25:06,7.783852,-3.6323047,4.0845485,0.4933289,0.019537779,0.25887558,9.51133675967558,0.5574690060805313,jump
05/08/2020, 15:25:06,7.783852,-3.6323047,4.0845485,0.49821335,-0.015874445,0.2845189,9.51133675967558,0.5739508201578997,jump
05/08/2020, 15:25:06,7.8149586,-3.574877,4.06062,0.49821335,-0.015874445,0.2845189,9.50483859070181,0.5739508201578997,jump
05/08/2020, 15:25:06,7.8149586,-3.574877,4.06062,0.50676113,-0.051286668,0.30649891,9.50483859070181,0.594456687859747,jump
05/08/2020, 15:25:07,8.690732,-4.9459643,2.091327,1.1905833,-0.5336256,0.5360678,10.215920632622927,1.4105366574221379,jump
05/08/2020, 15:25:07,8.685946,-4.8598228,2.0338993,1.1905833,-0.5336256,0.5360678,10.158754330092522,1.4105366574221379,jump
05/08/2020, 15:25:07,8.685946,-4.8598228,2.0338993,1.130749,-0.5104245,0.51164556,10.158754330092522,1.3419789906485329,jump
05/08/2020, 15:25:07,8.673982,-4.8047876,1.9764715,1.130749,-0.5104245,0.51164556,10.110904110839675,1.3419789906485329,jump
05/08/2020, 15:25:07,8.673982,-4.8047876,1.9764715,1.053819,-0.4933289,0.4908867,10.110904110839675,1.2628845964976716,jump
05/08/2020, 15:25:07,8.673982,-4.7401814,1.9573289,1.053819,-0.4933289,0.4908867,10.076627142920929,1.2628845964976716,jump
05/08/2020, 15:25:07,8.673982,-4.7401814,1.9573289,0.97811,-0.47623336,0.4798967,10.076627142920929,1.1890324872375475,jump
05/08/2020, 15:25:07,8.709874,-4.776074,1.9334008,0.97811,-0.47623336,0.4798967,10.1198235377068,1.1890324872375475,jump
05/08/2020, 15:25:07,8.709874,-4.776074,1.9334008,0.9060645,-0.44448447,0.46524334,10.1198235377068,1.111292359366315,jump
05/08/2020, 15:25:07,8.760123,-4.807181,1.9788643,0.9060645,-0.44448447,0.46524334,10.186493577227605,1.111292359366315,jump
05/08/2020, 15:25:07,8.760123,-4.807181,1.9788643,0.84623003,-0.41151446,0.45791668,10.186493577227605,1.0464879829665998,jump
05/08/2020, 15:25:07,8.793623,-4.776074,2.0386848,0.84623003,-0.41151446,0.45791668,10.2124885829048,1.0464879829665998,jump
05/08/2020, 15:25:07,8.793623,-4.776074,2.0386848,0.7949434,-0.37610224,0.4493689,10.2124885829048,0.987583056765367,jump
05/08/2020, 15:25:07,8.73141,-4.7569313,2.0721843,0.7949434,-0.37610224,0.4493689,10.156764463415959,0.987583056765367,jump
05/08/2020, 15:25:07,8.73141,-4.7569313,2.0721843,0.75098336,-0.35656446,0.4481478,10.156764463415959,0.9444314017711971,jump
05/08/2020, 15:25:07,8.640483,-4.7306104,2.07697,0.75098336,-0.35656446,0.4481478,10.067294773949703,0.9444314017711971,jump
05/08/2020, 15:25:07,8.640483,-4.7306104,2.07697,0.7021389,-0.35778558,0.45303226,10.067294773949703,0.9089817287812365,jump
05/08/2020, 15:25:07,8.549556,-4.7042894,2.0841484,0.7021389,-0.35778558,0.45303226,9.97842260544881,0.9089817287812365,jump
05/08/2020, 15:25:07,8.549556,-4.7042894,2.0841484,0.6581789,-0.36999667,0.45181113,9.97842260544881,0.8799035930471548,jump
05/08/2020, 15:25:07,8.496913,-4.65404,2.0961127,0.6581789,-0.36999667,0.45181113,9.91217964784778,0.8799035930471548,jump
05/08/2020, 15:25:08,9.865608,-12.760923,5.864808,1.5788968,-1.0342811,-2.3933778,17.162964923275805,3.048099350297412,jump
05/08/2020, 15:25:08,9.865608,-12.760923,5.864808,2.5679967,-1.0501556,-2.1125224,17.162964923275805,3.487145661262733,jump
05/08/2020, 15:25:08,10.396814,-14.287544,6.9942207,2.5679967,-1.0501556,-2.1125224,19.003862579283354,3.487145661262733,jump
05/08/2020, 15:25:08,10.396814,-14.287544,6.9942207,3.6437957,-1.1026634,-1.7229879,19.003862579283354,4.17873200278761,jump
05/08/2020, 15:25:08,11.148161,-16.16591,8.688339,3.6437957,-1.1026634,-1.7229879,21.473364903728047,4.17873200278761,jump
05/08/2020, 15:25:08,11.148161,-16.16591,8.688339,4.8697915,-1.2723979,-1.2089001,21.473364903728047,5.176418174792935,jump
05/08/2020, 15:25:08,12.112468,-17.367107,10.236495,4.8697915,-1.2723979,-1.2089001,23.518378446957833,5.176418174792935,jump
05/08/2020, 15:25:08,12.112468,-17.367107,10.236495,6.0445004,-1.5520322,-0.65085226,23.518378446957833,6.274424054120736,jump
05/08/2020, 15:25:08,13.500305,-16.795221,11.542976,6.0445004,-1.5520322,-0.65085226,24.445408628527627,6.274424054120736,jump
05/08/2020, 15:25:08,13.500305,-16.795221,11.542976,6.793041,-1.8194556,-0.13554333,24.445408628527627,7.033789867726064,jump
05/08/2020, 15:25:08,15.471992,-14.813965,11.8588295,6.793041,-1.8194556,-0.13554333,24.484033851559897,7.033789867726064,jump
05/08/2020, 15:25:08,15.471992,-14.813965,11.8588295,6.9615545,-1.9208078,0.25887558,24.484033851559897,7.226324152275481,jump
05/08/2020, 15:25:08,18.245274,-11.940185,10.966306,6.9615545,-1.9208078,0.25887558,24.407332462202987,7.226324152275481,jump
05/08/2020, 15:25:08,18.245274,-11.940185,10.966306,6.5195127,-1.56058,0.61544,24.407332462202987,6.731880987373319,jump
05/08/2020, 15:25:08,21.671795,-8.851051,9.79143,6.5195127,-1.56058,0.61544,25.374788948548833,6.731880987373319,jump
05/08/2020, 15:25:08,21.671795,-8.851051,9.79143,5.2336826,-0.36633334,1.1624979,25.374788948548833,5.373735695630896,jump
05/08/2020, 15:25:08,24.62693,-5.697311,8.963513,5.2336826,-0.36633334,1.1624979,26.819575251512827,5.373735695630896,jump
05/08/2020, 15:25:08,24.62693,-5.697311,8.963513,3.1162758,1.2919356,1.9330189,26.819575251512827,3.888037350378869,jump
05/08/2020, 15:25:08,25.581667,-2.8713872,7.893922,3.1162758,1.2919356,1.9330189,26.925462868169436,3.888037350378869,jump
05/08/2020, 15:25:08,25.581667,-2.8713872,7.893922,0.6007867,2.7181935,2.7291834,26.925462868169436,3.8984564815392684,jump
05/08/2020, 15:25:09,7.3363943,-4.2999024,7.140183,-2.900139,0.3370267,-0.057392225,11.103785630616226,2.9202204737377455,jump
05/08/2020, 15:25:09,7.3363943,-4.2999024,7.140183,-2.4776344,0.44326335,-0.16240779,11.103785630616226,2.5222075759890727,jump
05/08/2020, 15:25:09,7.3842506,-4.6971107,7.152147,-2.4776344,0.44326335,-0.16240779,11.302354183719068,2.5222075759890727,jump
05/08/2020, 15:25:09,7.3842506,-4.6971107,7.152147,-2.0050645,0.58613336,-0.23079,11.302354183719068,2.10168978243384,jump
05/08/2020, 15:25:09,7.3698936,-4.8287163,7.0372915,-2.0050645,0.58613336,-0.23079,11.27631605970882,2.10168978243384,jump
05/08/2020, 15:25:09,7.3698936,-4.8287163,7.0372915,-1.5288311,0.7082445,-0.26742333,11.27631605970882,1.7060041384439462,jump
05/08/2020, 15:25:09,7.259824,-4.7880383,6.836294,-1.5288311,0.7082445,-0.26742333,11.061883652899553,1.7060041384439462,jump
05/08/2020, 15:25:09,7.259824,-4.7880383,6.836294,-1.0953367,0.7680789,-0.30894113,11.061883652899553,1.373008479422993,jump
05/08/2020, 15:25:09,7.1282187,-4.5008993,6.5084777,-1.0953367,0.7680789,-0.30894113,10.650346360077375,1.373008479422993,jump
05/08/2020, 15:25:09,7.1282187,-4.5008993,6.5084777,-0.73999333,0.75098336,-0.32359445,10.650346360077375,1.102850627199815,jump
05/08/2020, 15:25:09,7.1162543,-4.141976,6.1447687,-0.73999333,0.75098336,-0.32359445,10.274007126342827,1.102850627199815,jump
05/08/2020, 15:25:09,7.1162543,-4.141976,6.1447687,-0.4689067,0.72411895,-0.3260367,10.274007126342827,0.9222373170816625,jump
05/08/2020, 15:25:09,7.2861447,-3.7447674,5.7930236,-0.4689067,0.72411895,-0.3260367,10.033459544605789,0.9222373170816625,jump
05/08/2020, 15:25:09,7.2861447,-3.7447674,5.7930236,-0.27230778,0.72900337,-0.3162678,10.033459544605789,0.8400135451639297,jump
05/08/2020, 15:25:09,7.594819,-3.414558,5.474778,-0.27230778,0.72900337,-0.3162678,9.965624849557527,0.8400135451639297,jump
05/08/2020, 15:25:09,7.594819,-3.414558,5.474778,-0.12699556,0.77296335,-0.2735289,9.965624849557527,0.829709748716018,jump
05/08/2020, 15:25:09,7.972885,-3.199204,5.1996036,-0.12699556,0.77296335,-0.2735289,10.041796677422482,0.829709748716018,jump
05/08/2020, 15:25:09,7.972885,-3.199204,5.1996036,-0.017095556,0.8523356,-0.22590557,10.041796677422482,0.8819305591414549,jump
05/08/2020, 15:25:09,8.329415,-3.010171,4.9531426,-0.017095556,0.8523356,-0.22590557,10.147606156362963,0.8819305591414549,jump
05/08/2020, 15:25:09,8.329415,-3.010171,4.9531426,0.046402223,0.9463611,-0.18194556,10.147606156362963,0.964809168693478,jump
05/08/2020, 15:25:10,7.499106,-3.9984066,4.7784667,0.52996224,-0.18316667,-0.06594,9.749748176212462,0.5645866535702289,jump
05/08/2020, 15:25:10,7.499106,-3.9984066,4.7784667,0.5336256,-0.17706113,0.024422223,9.749748176212462,0.5627640456319971,jump
05/08/2020, 15:25:10,7.5469627,-3.900301,4.7425747,0.5336256,-0.17706113,0.024422223,9.729388932915631,0.5627640456319971,jump
05/08/2020, 15:25:10,7.5469627,-3.900301,4.7425747,0.5556056,-0.16118668,0.09524667,9.729388932915631,0.5863025213498811,jump
05/08/2020, 15:25:10,7.6402826,-3.7998023,4.733003,0.5556056,-0.16118668,0.09524667,9.757752555947176,0.5863025213498811,jump
05/08/2020, 15:25:10,7.6402826,-3.7998023,4.733003,0.57514334,-0.14409111,0.14531223,9.757752555947176,0.6104651940963505,jump
05/08/2020, 15:25:10,7.8077803,-3.7016966,4.74736,0.57514334,-0.14409111,0.14531223,9.859078040062355,0.6104651940963505,jump
05/08/2020, 15:25:10,7.8077803,-3.7016966,4.74736,0.5873545,-0.117226675,0.16607112,9.859078040062355,0.6215359972305373,jump
05/08/2020, 15:25:10,8.037491,-3.6083765,4.792824,0.5873545,-0.117226675,0.16607112,10.029596201383422,0.6215359972305373,jump
05/08/2020, 15:25:10,8.037491,-3.6083765,4.792824,0.58979666,-0.068382226,0.17095557,10.029596201383422,0.617868949000132,jump
05/08/2020, 15:25:10,8.281559,-3.5150564,4.847859,0.58979666,-0.068382226,0.17095557,10.219666167707972,0.617868949000132,jump
05/08/2020, 15:25:10,8.281559,-3.5150564,4.847859,0.57270116,0.008547778,0.16729222,10.219666167707972,0.5966962094946567,jump
05/08/2020, 15:25:10,8.477771,-3.4217365,4.9052863,0.57270116,0.008547778,0.16729222,10.375100585646953,0.5966962094946567,jump
05/08/2020, 15:25:10,8.477771,-3.4217365,4.9052863,0.52996224,0.10501556,0.14531223,10.375100585646953,0.5594675068258762,jump
05/08/2020, 15:25:10,8.63809,-3.330809,4.938786,0.52996224,0.10501556,0.14531223,10.492973743191577,0.5594675068258762,jump
05/08/2020, 15:25:10,8.63809,-3.330809,4.938786,0.4713489,0.1965989,0.12211112,10.492973743191577,0.5251019427328749,jump
05/08/2020, 15:25:10,8.738588,-3.2757742,4.9459643,0.4713489,0.1965989,0.12211112,10.5620161970852,0.5251019427328749,jump
05/08/2020, 15:25:10,8.738588,-3.2757742,4.9459643,0.4041878,0.27475002,0.09280445,10.5620161970852,0.49746157393043405,jump
05/08/2020, 15:25:10,8.7984085,-3.2063823,4.9363933,0.4041878,0.27475002,0.09280445,10.585880123862925,0.49746157393043405,jump
05/08/2020, 15:25:10,8.7984085,-3.2063823,4.9363933,0.3309211,0.34191114,0.06227667,10.585880123862925,0.4798858119517243,jump
05/08/2020, 15:25:11,7.4416785,-3.9649072,4.1443686,0.20270446,-0.5324045,0.5458367,9.395470164458576,0.7889748536458622,jump
05/08/2020, 15:25:11,7.623533,-3.993621,3.9984066,0.20270446,-0.5324045,0.5458367,9.489705855933973,0.7889748536458622,jump
05/08/2020, 15:25:11,7.623533,-3.993621,3.9984066,0.2295689,-0.58124894,0.50554,9.489705855933973,0.8038177115695875,jump
05/08/2020, 15:25:11,7.989635,-3.991228,3.9457645,0.2295689,-0.58124894,0.50554,9.763873559080555,0.8038177115695875,jump
05/08/2020, 15:25:11,7.989635,-3.991228,3.9457645,0.25521225,-0.6227667,0.46280113,9.763873559080555,0.8167964896894351,jump
05/08/2020, 15:25:11,8.535198,-4.0773697,4.024728,0.25521225,-0.6227667,0.46280113,10.279736676437574,0.8167964896894351,jump
05/08/2020, 15:25:11,8.535198,-4.0773697,4.024728,0.27963445,-0.61299783,0.4261678,10.279736676437574,0.7972331809100494,jump
05/08/2020, 15:25:11,9.140582,-4.213761,4.141976,0.27963445,-0.61299783,0.4261678,10.884024327370673,0.7972331809100494,jump
05/08/2020, 15:25:11,9.140582,-4.213761,4.141976,0.3052778,-0.5140878,0.39930335,10.884024327370673,0.7189742393941044,jump
05/08/2020, 15:25:11,9.611969,-4.3669014,4.3118663,0.3052778,-0.5140878,0.39930335,11.404032909794038,0.7189742393941044,jump
05/08/2020, 15:25:11,9.611969,-4.3669014,4.3118663,0.32115224,-0.3309211,0.37854445,11.404032909794038,0.5966099606230383,jump
05/08/2020, 15:25:11,9.8321085,-4.479364,4.4195433,0.32115224,-0.3309211,0.37854445,11.673363752759425,0.5966099606230383,jump
05/08/2020, 15:25:11,9.8321085,-4.479364,4.4195433,0.30649891,-0.14287001,0.35900667,11.673363752759425,0.4931928787548931,jump
05/08/2020, 15:25:11,9.669396,-4.453043,4.3669014,0.30649891,-0.14287001,0.35900667,11.506374163209538,0.4931928787548931,jump
05/08/2020, 15:25:11,9.669396,-4.453043,4.3669014,0.25399113,-0.01099,0.32970002,11.506374163209538,0.4163344542949648,jump
05/08/2020, 15:25:11,9.253045,-4.2329035,4.1922255,0.25399113,-0.01099,0.32970002,11.00504745299363,0.4163344542949648,jump
05/08/2020, 15:25:11,9.253045,-4.2329035,4.1922255,0.14653334,0.045181114,0.3052778,11.00504745299363,0.34162535730398447,jump
05/08/2020, 15:25:11,8.7577305,-3.9768713,3.9481573,0.14653334,0.045181114,0.3052778,10.397177229149284,0.34162535730398447,jump
05/08/2020, 15:25:11,8.7577305,-3.9768713,3.9481573,0.017095556,0.026864445,0.29306668,10.397177229149284,0.29479151213512145,jump
05/08/2020, 15:25:11,8.410771,-3.735196,3.6131623,0.017095556,0.026864445,0.29306668,9.88674398877481,0.29479151213512145,jump
05/08/2020, 15:25:12,10.358529,-4.223332,2.388037,-0.78029,1.0342811,-0.81326,11.438460475753153,1.529699911606032,jump
05/08/2020, 15:25:12,10.358529,-4.223332,2.388037,-0.8853056,1.0245123,-0.8364611,11.438460475753153,1.591558552836626,jump
05/08/2020, 15:25:12,9.123833,-4.0510488,2.306681,-0.8853056,1.0245123,-0.8364611,10.245784306854576,1.591558552836626,jump
05/08/2020, 15:25:12,9.123833,-4.0510488,2.306681,-1.009859,0.8816423,-0.80104893,10.245784306854576,1.5616618199151797,jump
05/08/2020, 15:25:12,8.075776,-3.900301,2.2971098,-1.009859,0.8816423,-0.80104893,9.257819450554633,1.5616618199151797,jump
05/08/2020, 15:25:12,8.075776,-3.900301,2.2971098,-1.0977789,0.68138003,-0.68626446,9.257819450554633,1.462995626062749,jump
05/08/2020, 15:25:12,7.3363943,-3.7567315,2.3162522,-1.0977789,0.68138003,-0.68626446,8.561584988283041,1.462995626062749,jump
05/08/2020, 15:25:12,7.3363943,-3.7567315,2.3162522,-1.0855678,0.48356003,-0.53118336,8.561584988283041,1.3017079474208681,jump
05/08/2020, 15:25:12,7.070791,-3.5700915,2.3976083,-1.0855678,0.48356003,-0.53118336,8.275878247268153,1.3017079474208681,jump
05/08/2020, 15:25:12,7.070791,-3.5700915,2.3976083,-0.9610145,0.31993112,-0.35778558,8.275878247268153,1.0742045109336074,jump
05/08/2020, 15:25:12,7.123433,-3.2973096,2.5411777,-0.9610145,0.31993112,-0.35778558,8.250644490870377,1.0742045109336074,jump
05/08/2020, 15:25:12,7.123433,-3.2973096,2.5411777,-0.79250115,0.22468445,-0.20026223,8.250644490870377,0.8477299913211302,jump
05/08/2020, 15:25:12,7.34118,-3.0652058,2.6081767,-0.79250115,0.22468445,-0.20026223,8.37203642912179,0.8477299913211302,jump
05/08/2020, 15:25:12,7.34118,-3.0652058,2.6081767,-0.65085226,0.17339778,-0.08303556,8.37203642912179,0.6786533445806583,jump
05/08/2020, 15:25:12,7.6331043,-2.8546374,2.6656044,-0.65085226,0.17339778,-0.08303556,8.574303632904538,0.6786533445806583,jump
05/08/2020, 15:25:12,7.6331043,-2.8546374,2.6656044,-0.5580478,0.12821667,0.008547778,8.574303632904538,0.5726516340128247,jump
05/08/2020, 15:25:12,7.9704924,-2.656033,2.7110682,-0.5580478,0.12821667,0.008547778,8.827975449971085,0.5726516340128247,jump
05/08/2020, 15:25:12,7.9704924,-2.656033,2.7110682,-0.52019334,0.09036223,0.06716111,8.827975449971085,0.5322377821456095,jump
05/08/2020, 15:25:12,8.319844,-2.4789643,2.7565317,-0.52019334,0.09036223,0.06716111,9.108432330399888,0.5322377821456095,jump
05/08/2020, 15:25:12,8.319844,-2.4789643,2.7565317,-0.5140878,0.07693,0.08669889,9.108432330399888,0.5269925851529454,jump
05/08/2020, 15:25:13,8.549556,-3.9290147,3.65384,0.06105556,0.06349778,0.12455334,10.093691475757455,0.15255583759444333,jump
05/08/2020, 15:25:13,8.549556,-3.9290147,3.65384,0.08425667,0.03297,0.14287001,10.093691475757455,0.16910957107782348,jump
05/08/2020, 15:25:13,8.573483,-4.019942,3.7591243,0.08425667,0.03297,0.14287001,10.1880109067379,0.16910957107782348,jump
05/08/2020, 15:25:13,8.573483,-4.019942,3.7591243,0.10013112,0.036633335,0.16240779,10.1880109067379,0.19427951675701655,jump
05/08/2020, 15:25:13,8.611769,-4.1276193,3.888337,0.10013112,0.036633335,0.16240779,10.311108823179408,0.19427951675701655,jump
05/08/2020, 15:25:13,8.611769,-4.1276193,3.888337,0.11478445,0.04029667,0.19904111,10.311108823179408,0.23327377948208924,jump
05/08/2020, 15:25:13,8.69791,-4.213761,4.024728,0.11478445,0.04029667,0.19904111,10.469377168735653,0.23327377948208924,jump
05/08/2020, 15:25:13,8.69791,-4.213761,4.024728,0.11844778,0.045181114,0.22224224,10.469377168735653,0.25585703300345586,jump
05/08/2020, 15:25:13,8.7673025,-4.2687955,4.1443686,0.11844778,0.045181114,0.22224224,10.595470720511738,0.25585703300345586,jump
05/08/2020, 15:25:13,8.7673025,-4.2687955,4.1443686,0.11356334,0.06227667,0.26620224,10.595470720511738,0.2960382544109579,jump
05/08/2020, 15:25:13,8.829515,-4.4482574,4.359723,0.11356334,0.06227667,0.26620224,10.805300687526852,0.2960382544109579,jump
05/08/2020, 15:25:13,8.829515,-4.4482574,4.359723,0.091583334,0.09646778,0.33458444,10.805300687526852,0.36005595389490525,jump
05/08/2020, 15:25:13,8.920443,-4.790431,4.685147,0.091583334,0.09646778,0.33458444,11.156752477542202,0.36005595389490525,jump
05/08/2020, 15:25:13,8.920443,-4.790431,4.685147,0.046402223,0.14287001,0.4151778,11.156752477542202,0.44151738926264594,jump
05/08/2020, 15:25:13,9.08794,-5.316852,5.3312087,0.046402223,0.14287001,0.4151778,11.80175240431491,0.44151738926264594,jump
05/08/2020, 15:25:13,9.08794,-5.316852,5.3312087,-0.0061055557,0.20148334,0.52996224,11.80175240431491,0.5670033432951314,jump
05/08/2020, 15:25:13,9.442079,-5.9557357,6.2787666,-0.0061055557,0.20148334,0.52996224,12.808065664193625,0.5670033432951314,jump
05/08/2020, 15:25:13,9.442079,-5.9557357,6.2787666,-0.06105556,0.26620224,0.67161113,12.808065664193625,0.7250192582514583,jump
05/08/2020, 15:25:13,9.946963,-6.647261,7.3866434,-0.06105556,0.26620224,0.67161113,14.060251087994306,0.7250192582514583,jump
05/08/2020, 15:25:13,9.946963,-6.647261,7.3866434,-0.08303556,0.35168,0.8523356,14.060251087994306,0.9257697670074175,jump
05/08/2020, 15:25:14,11.0811615,2.821138,6.666404,-2.8598423,0.53484666,1.9269134,13.236007648750284,3.4896638968670026,jump
05/08/2020, 15:25:14,11.0811615,2.821138,6.666404,-3.966169,0.72778225,1.801139,13.236007648750284,4.41636345526243,jump
05/08/2020, 15:25:14,9.745967,2.8474588,6.4462643,-3.966169,0.72778225,1.801139,12.026895521215001,4.41636345526243,jump
05/08/2020, 15:25:14,9.745967,2.8474588,6.4462643,-5.0114403,0.8730945,1.6472789,12.026895521215001,5.346994992132673,jump
05/08/2020, 15:25:14,8.657232,2.251646,6.087341,-5.0114403,0.8730945,1.6472789,10.820041549292876,5.346994992132673,jump
05/08/2020, 15:25:14,8.657232,2.251646,6.087341,-5.864997,0.92560226,1.5105145,10.820041549292876,6.126710564568061,jump
05/08/2020, 15:25:14,7.7503524,1.2466606,5.800202,-5.864997,0.92560226,1.5105145,9.76035177031764,6.126710564568061,jump
05/08/2020, 15:25:14,7.7503524,1.2466606,5.800202,-6.3839693,0.9536878,1.3786345,9.76035177031764,6.600395250415507,jump
05/08/2020, 15:25:14,7.042077,0.069391854,5.608776,-6.3839693,0.9536878,1.3786345,9.003001381100697,6.600395250415507,jump
05/08/2020, 15:25:14,7.042077,0.069391854,5.608776,-6.5036383,1.020849,1.1808145,9.003001381100697,6.688330603998111,jump
05/08/2020, 15:25:14,6.4821568,-1.0671989,5.5106707,-6.5036383,1.020849,1.1808145,8.57465805471485,6.688330603998111,jump
05/08/2020, 15:25:14,6.4821568,-1.0671989,5.5106707,-6.25331,1.1002212,0.8779789,8.57465805471485,6.40977550948025,jump
05/08/2020, 15:25:14,5.977271,-2.1487548,5.548956,-6.25331,1.1002212,0.8779789,8.434205871229654,6.40977550948025,jump
05/08/2020, 15:25:14,5.977271,-2.1487548,5.548956,-5.70381,1.16494,0.48844448,8.434205871229654,5.842012853353118,jump
05/08/2020, 15:25:14,5.4891353,-3.141776,5.723632,-5.70381,1.16494,0.48844448,8.53002488767331,5.842012853353118,jump
05/08/2020, 15:25:14,5.4891353,-3.141776,5.723632,-4.95649,1.1905833,0.08303556,8.53002488767331,5.0981542864105025,jump
05/08/2020, 15:25:14,5.0081778,-4.0151563,6.0011992,-4.95649,1.1905833,0.08303556,8.787361190769959,5.0981542864105025,jump
05/08/2020, 15:25:14,5.0081778,-4.0151563,6.0011992,-4.140788,1.1466234,-0.2759711,8.787361190769959,4.305465262332757,jump
05/08/2020, 15:25:14,4.5726843,-4.5655055,6.2261243,-4.140788,1.1466234,-0.2759711,8.973177015048249,4.305465262332757,jump
05/08/2020, 15:25:14,4.5726843,-4.5655055,6.2261243,-3.2554824,1.0074167,-0.5226356,8.973177015048249,3.447637204339827,jump
05/08/2020, 15:25:15,8.853444,-2.87378,3.6179478,-0.5470578,0.20270446,-0.34679556,9.9865725043795,0.6786961781626653,jump
05/08/2020, 15:25:15,8.906086,-2.8594232,3.5700915,-0.5470578,0.20270446,-0.34679556,10.012003860320524,0.6786961781626653,jump
05/08/2020, 15:25:15,8.906086,-2.8594232,3.5700915,-0.57514334,0.21980001,-0.34801668,10.012003860320524,0.7072605686611748,jump
05/08/2020, 15:25:15,8.99462,-2.8881369,3.5676985,-0.57514334,0.21980001,-0.34801668,10.098168236695436,0.7072605686611748,jump
05/08/2020, 15:25:15,8.99462,-2.8881369,3.5676985,-0.60445005,0.2295689,-0.35900667,10.098168236695436,0.7395590104289061,jump
05/08/2020, 15:25:15,9.052048,-2.8929226,3.5413775,-0.60445005,0.2295689,-0.35900667,10.141495176212688,0.7395590104289061,jump
05/08/2020, 15:25:15,9.052048,-2.8929226,3.5413775,-0.6203245,0.24910668,-0.36755446,10.141495176212688,0.7628583681019959,jump
05/08/2020, 15:25:15,9.102298,-2.9479575,3.5557344,-0.6203245,0.24910668,-0.36755446,10.207131112010849,0.7628583681019959,jump
05/08/2020, 15:25:15,9.102298,-2.9479575,3.5557344,-0.62765115,0.26986557,-0.3712178,10.207131112010849,0.7775448830415856,jump
05/08/2020, 15:25:15,9.109476,-3.0197423,3.5389848,-0.62765115,0.26986557,-0.3712178,10.228675922395684,0.7775448830415856,jump
05/08/2020, 15:25:15,9.109476,-3.0197423,3.5389848,-0.62154555,0.2869611,-0.3834289,10.228675922395684,0.7846548763165612,jump
05/08/2020, 15:25:15,9.052048,-3.0699914,3.5653057,-0.62154555,0.2869611,-0.3834289,10.201755721039255,0.7846548763165612,jump
05/08/2020, 15:25:15,9.052048,-3.0699914,3.5653057,-0.6105556,0.29306668,-0.3944189,10.201755721039255,0.783729846061287,jump
05/08/2020, 15:25:15,8.987442,-3.1106694,3.5796626,-0.6105556,0.29306668,-0.3944189,10.161907400317292,0.783729846061287,jump
05/08/2020, 15:25:15,8.987442,-3.1106694,3.5796626,-0.6007867,0.2955089,-0.40907225,10.161907400317292,0.784608343503378,jump
05/08/2020, 15:25:15,8.9108715,-3.1058838,3.6179478,-0.6007867,0.2955089,-0.40907225,10.106418346999252,0.784608343503378,jump
05/08/2020, 15:25:15,8.9108715,-3.1058838,3.6179478,-0.58491224,0.30039334,-0.4163989,10.106418346999252,0.7782972080547969,jump
05/08/2020, 15:25:15,8.839087,-3.0652058,3.629912,-0.58491224,0.30039334,-0.4163989,10.034998644842045,0.7782972080547969,jump
05/08/2020, 15:25:15,8.839087,-3.0652058,3.629912,-0.5739222,0.30161446,-0.42006224,10.034998644842045,0.7725349728747168,jump
05/08/2020, 15:25:15,8.834301,-2.993421,3.6179478,-0.5739222,0.30161446,-0.42006224,10.004748383744763,0.7725349728747168,jump
05/08/2020, 15:25:16,9.2075815,-2.4909284,2.1176481,-0.26986557,0.64108336,0.50676113,9.770809351332657,0.8605940668527722,jump
05/08/2020, 15:25:16,9.2075815,-2.4909284,2.1176481,-0.35778558,0.6789378,0.54950005,9.770809351332657,0.943884183820214,jump
05/08/2020, 15:25:16,9.260223,-2.4095724,1.9477576,-0.35778558,0.6789378,0.54950005,9.764811101874123,0.943884183820214,jump
05/08/2020, 15:25:16,9.260223,-2.4095724,1.9477576,-0.45181113,0.69237006,0.5775856,9.764811101874123,1.008521044595955,jump
05/08/2020, 15:25:16,9.281759,-2.3904297,1.8329022,-0.45181113,0.69237006,0.5775856,9.758316441246885,1.008521044595955,jump
05/08/2020, 15:25:16,9.281759,-2.3904297,1.8329022,-0.5421733,0.6740534,0.5702589,9.758316441246885,1.0360960828785157,jump
05/08/2020, 15:25:16,9.243474,-2.3952155,1.753939,-0.5421733,0.6740534,0.5702589,9.708510245514645,1.0360960828785157,jump
05/08/2020, 15:25:16,9.243474,-2.3952155,1.753939,-0.6191034,0.6569578,0.55316335,9.708510245514645,1.0587125362771423,jump
05/08/2020, 15:25:16,9.253045,-2.4909284,1.7467605,-0.6191034,0.6569578,0.55316335,9.740366514831859,1.0587125362771423,jump
05/08/2020, 15:25:16,9.253045,-2.4909284,1.7467605,-0.68260115,0.63131446,0.5287411,9.740366514831859,1.0696118228228166,jump
05/08/2020, 15:25:16,9.245867,-2.6225336,1.7850457,-0.68260115,0.63131446,0.5287411,9.774974322593602,1.0696118228228166,jump
05/08/2020, 15:25:16,9.245867,-2.6225336,1.7850457,-0.71923447,0.6007867,0.5030978,9.774974322593602,1.0636494858165597,jump
05/08/2020, 15:25:16,9.262616,-2.8761728,1.8400806,-0.71923447,0.6007867,0.5030978,9.871895695953098,1.0636494858165597,jump
05/08/2020, 15:25:16,9.262616,-2.8761728,1.8400806,-0.7314456,0.5885756,0.48111778,9.871895695953098,1.0549446634527557,jump
05/08/2020, 15:25:16,9.29133,-3.1202407,1.9477576,-0.7314456,0.5885756,0.48111778,9.992921548236136,1.0549446634527557,jump
05/08/2020, 15:25:16,9.29133,-3.1202407,1.9477576,-0.69114894,0.5739222,0.4591378,9.992921548236136,1.0089009271339253,jump
05/08/2020, 15:25:16,9.23151,-3.359523,2.0315065,-0.69114894,0.5739222,0.4591378,10.031659577057857,1.0089009271339253,jump
05/08/2020, 15:25:16,9.23151,-3.359523,2.0315065,-0.60445005,0.5519422,0.42861003,10.031659577057857,0.9239624661722377,jump
05/08/2020, 15:25:16,9.123833,-3.5676985,2.0697916,-0.60445005,0.5519422,0.42861003,10.012833400363602,0.9239624661722377,jump
05/08/2020, 15:25:16,9.123833,-3.5676985,2.0697916,-0.47867557,0.50676113,0.40174556,10.012833400363602,0.8045723367137808,jump
05/08/2020, 15:25:17,8.623733,-3.7280176,2.4837499,-1.3554333,0.106236674,0.15386,9.717813116912392,1.3682684983710331,jump
05/08/2020, 15:25:17,8.623733,-3.7280176,2.4837499,-1.3334534,0.085477784,0.15141778,9.717813116912392,1.344742283718103,jump
05/08/2020, 15:25:17,8.46102,-3.9098723,2.469393,-1.3334534,0.085477784,0.15141778,9.642295919615668,1.344742283718103,jump
05/08/2020, 15:25:17,8.46102,-3.9098723,2.469393,-1.2723979,0.06716111,0.13676445,9.642295919615668,1.281487996315151,jump
05/08/2020, 15:25:17,8.377272,-4.0438704,2.4382863,-1.2723979,0.06716111,0.13676445,9.616486294199788,1.281487996315151,jump
05/08/2020, 15:25:17,8.377272,-4.0438704,2.4382863,-1.1808145,0.045181114,0.10867889,9.616486294199788,1.1866656348919558,jump
05/08/2020, 15:25:17,8.34138,-4.1467614,2.4119651,-1.1808145,0.045181114,0.10867889,9.622464774922214,1.1866656348919558,jump
05/08/2020, 15:25:17,8.34138,-4.1467614,2.4119651,-1.0587034,0.028085556,0.078151114,9.622464774922214,1.0619554284547814,jump
05/08/2020, 15:25:17,8.348558,-4.2257247,2.3641088,-1.0587034,0.028085556,0.078151114,9.651123635564348,1.0619554284547814,jump
05/08/2020, 15:25:17,8.348558,-4.2257247,2.3641088,-0.92193896,0.025643334,0.048844445,9.651123635564348,0.9235880026373758,jump
05/08/2020, 15:25:17,8.374879,-4.2975097,2.3521447,-0.92193896,0.025643334,0.048844445,9.70256514804991,0.9235880026373758,jump
05/08/2020, 15:25:17,8.374879,-4.2975097,2.3521447,-0.77418447,0.03052778,0.0,9.70256514804991,0.7747861200493171,jump
05/08/2020, 15:25:17,8.405986,-4.3405805,2.3425734,-0.77418447,0.03052778,0.0,9.746224229172576,0.7747861200493171,jump
05/08/2020, 15:25:17,8.405986,-4.3405805,2.3425734,-0.6252089,0.036633335,-0.04151778,9.746224229172576,0.6276558879868421,jump
05/08/2020, 15:25:17,8.372486,-4.347759,2.3353949,-0.6252089,0.036633335,-0.04151778,9.718827049004139,0.6276558879868421,jump
05/08/2020, 15:25:17,8.372486,-4.347759,2.3353949,-0.48722336,0.026864445,-0.089141116,9.718827049004139,0.49603874490481464,jump
05/08/2020, 15:25:17,8.3174515,-4.3932223,2.3641088,-0.48722336,0.026864445,-0.089141116,9.698938702451963,0.49603874490481464,jump
05/08/2020, 15:25:17,8.3174515,-4.3932223,2.3641088,-0.35290113,0.0036633336,-0.12699556,9.698938702451963,0.3750739945189492,jump
05/08/2020, 15:25:17,8.26481,-4.4195433,2.3449662,-0.35290113,0.0036633336,-0.12699556,9.661175233897307,0.3750739945189492,jump
05/08/2020, 15:25:17,8.26481,-4.4195433,2.3449662,-0.22468445,-0.02075889,-0.15996556,9.661175233897307,0.2765917796668334,jump
05/08/2020, 15:25:18,10.660025,-7.1066833,9.341579,1.2785034,1.2259957,1.0916734,15.8557932203616,2.08071792984061,jump
05/08/2020, 15:25:18,10.660025,-7.1066833,9.341579,1.3285689,1.35177,1.284609,15.8557932203616,2.2896719954521005,jump
05/08/2020, 15:25:18,11.583654,-7.84128,9.848858,1.3285689,1.35177,1.284609,17.107504863577457,2.2896719954521005,jump
05/08/2020, 15:25:18,11.583654,-7.84128,9.848858,1.2577446,1.5373789,1.4958612,17.107504863577457,2.486575136017943,jump
05/08/2020, 15:25:18,12.669996,-8.422736,10.286744,1.2577446,1.5373789,1.4958612,18.365412992003407,2.486575136017943,jump
05/08/2020, 15:25:18,12.669996,-8.422736,10.286744,1.0049745,1.790149,1.7058923,18.365412992003407,2.6692088123992517,jump
05/08/2020, 15:25:18,13.911871,-8.585447,10.729417,1.0049745,1.790149,1.7058923,19.554294794918018,2.6692088123992517,jump
05/08/2020, 15:25:18,13.911871,-8.585447,10.729417,0.55316335,2.0697834,1.8817323,19.554294794918018,2.8514750278863383,jump
05/08/2020, 15:25:18,15.14896,-8.425129,11.009377,0.55316335,2.0697834,1.8817323,20.534852363991202,2.8514750278863383,jump
05/08/2020, 15:25:18,15.14896,-8.425129,11.009377,0.0061055557,2.3469756,2.0307078,20.534852363991202,3.103563419058725,jump
05/08/2020, 15:25:18,16.27598,-8.13799,11.174481,0.0061055557,2.3469756,2.0307078,21.354237059766938,3.103563419058725,jump
05/08/2020, 15:25:18,16.27598,-8.13799,11.174481,-0.5043189,2.6608012,2.1955578,21.354237059766938,3.486355492614379,jump
05/08/2020, 15:25:18,17.3025,-7.9944205,11.272588,-0.5043189,2.6608012,2.1955578,22.14403967406155,3.486355492614379,jump
05/08/2020, 15:25:18,17.3025,-7.9944205,11.272588,-0.8755367,2.9831746,2.4214635,22.14403967406155,3.940733482440306,jump
05/08/2020, 15:25:18,18.087347,-8.123632,11.224731,-0.8755367,2.9831746,2.4214635,22.784646639802492,3.940733482440306,jump
05/08/2020, 15:25:18,18.087347,-8.123632,11.224731,-1.0977789,3.2908945,2.71453,22.784646639802492,4.404971996190268,jump
05/08/2020, 15:25:18,18.587446,-8.374879,11.066805,-1.0977789,3.2908945,2.71453,23.1971102382459,4.404971996190268,jump
05/08/2020, 15:25:18,18.587446,-8.374879,11.066805,-1.1795933,3.602278,3.0723157,23.1971102382459,4.879238759849188,jump
05/08/2020, 15:25:18,18.781265,-8.563912,10.77488,-1.1795933,3.602278,3.0723157,23.284642320776772,4.879238759849188,jump
05/08/2020, 15:25:18,18.781265,-8.563912,10.77488,-1.174709,4.0076866,3.4765034,23.284642320776772,5.433927571036893,jump
05/08/2020, 15:25:19,9.561719,-1.1892328,1.7228323,-2.177241,1.5788968,1.0855678,9.788201828055112,2.900301923992196,jump
05/08/2020, 15:25:19,9.561719,-1.1892328,1.7228323,-2.1064167,1.526389,1.053819,9.788201828055112,2.8066686787236663,jump
05/08/2020, 15:25:19,9.300901,-1.2729816,1.8113668,-2.1064167,1.526389,1.053819,9.560768746824206,2.8066686787236663,jump
05/08/2020, 15:25:19,9.300901,-1.2729816,1.8113668,-1.9891901,1.4396901,1.00009,9.560768746824206,2.6513703808011226,jump
05/08/2020, 15:25:19,9.02812,-1.457229,1.9764715,-1.9891901,1.4396901,1.00009,9.356116055598259,2.6513703808011226,jump
05/08/2020, 15:25:19,9.02812,-1.457229,1.9764715,-1.8084656,1.3139156,0.9268234,9.356116055598259,2.4199015745978865,jump
05/08/2020, 15:25:19,8.772088,-1.6606189,2.1894326,-1.8084656,1.3139156,0.9268234,9.192431621112904,2.4199015745978865,jump
05/08/2020, 15:25:19,8.772088,-1.6606189,2.1894326,-1.5508112,1.1710457,0.8425667,9.192431621112904,2.1180844935838334,jump
05/08/2020, 15:25:19,8.611769,-1.9046868,2.4646072,-1.5508112,1.1710457,0.8425667,9.15776616924756,2.1180844935838334,jump
05/08/2020, 15:25:19,8.611769,-1.9046868,2.4646072,-1.2272167,1.0245123,0.75831,9.15776616924756,1.7693841866529585,jump
05/08/2020, 15:25:19,8.563912,-2.0817556,2.7684958,-1.2272167,1.0245123,0.75831,9.237904035715315,1.7693841866529585,jump
05/08/2020, 15:25:19,8.563912,-2.0817556,2.7684958,-0.8816423,0.8755367,0.6569578,9.237904035715315,1.4055074349130858,jump
05/08/2020, 15:25:19,8.635697,-2.1272194,3.034099,-0.8816423,0.8755367,0.6569578,9.39713194954578,1.4055074349130858,jump
05/08/2020, 15:25:19,8.635697,-2.1272194,3.034099,-0.53851,0.75831,0.54095227,9.39713194954578,1.0759444624225665,jump
05/08/2020, 15:25:19,8.755338,-2.0482562,3.2015967,-0.53851,0.75831,0.54095227,9.544711282394495,1.0759444624225665,jump
05/08/2020, 15:25:19,8.755338,-2.0482562,3.2015967,-0.2613178,0.6972545,0.4163989,9.544711282394495,0.8531347197242172,jump
05/08/2020, 15:25:19,8.851051,-1.835295,3.2805598,-0.2613178,0.6972545,0.4163989,9.616209737315254,0.8531347197242172,jump
05/08/2020, 15:25:19,8.851051,-1.835295,3.2805598,-0.07204556,0.6667267,0.3052778,9.616209737315254,0.7368239938398256,jump
05/08/2020, 15:25:19,8.822337,-1.5984055,3.2039895,-0.07204556,0.6667267,0.3052778,9.521243701911425,0.7368239938398256,jump
05/08/2020, 15:25:19,8.822337,-1.5984055,3.2039895,0.037854444,0.6557367,0.1856089,9.521243701911425,0.6825497931546433,jump
05/08/2020, 15:25:20,8.293523,-2.8929226,3.3403804,0.67161113,0.4249467,0.29673,9.397322162708198,0.8483453920285264,jump
05/08/2020, 15:25:20,8.293523,-2.8929226,3.3403804,0.46646446,0.42861003,0.32115224,9.397322162708198,0.7102354600639261,jump
05/08/2020, 15:25:20,8.403593,-2.926422,3.1322048,0.46646446,0.42861003,0.32115224,9.433717693549701,0.7102354600639261,jump
05/08/2020, 15:25:20,8.403593,-2.926422,3.1322048,0.29306668,0.41151446,0.3382478,9.433717693549701,0.6079833953126534,jump
05/08/2020, 15:25:20,8.652447,-3.1058838,3.1154552,0.29306668,0.41151446,0.3382478,9.706565299293604,0.6079833953126534,jump
05/08/2020, 15:25:20,8.652447,-3.1058838,3.1154552,0.15141778,0.37976557,0.34313223,9.706565299293604,0.5337499012780208,jump
05/08/2020, 15:25:20,9.052048,-3.3882368,3.1920254,0.15141778,0.37976557,0.34313223,10.178837986117308,0.5337499012780208,jump
05/08/2020, 15:25:20,9.052048,-3.3882368,3.1920254,0.036633335,0.37366003,0.3492378,10.178837986117308,0.5127678406923541,jump
05/08/2020, 15:25:20,9.470792,-3.6777685,3.3810585,0.036633335,0.37366003,0.3492378,10.707634417500582,0.5127678406923541,jump
05/08/2020, 15:25:20,9.470792,-3.6777685,3.3810585,-0.07326667,0.41273558,0.3614489,10.707634417500582,0.5535015649453758,jump
05/08/2020, 15:25:20,9.769895,-3.9074793,3.5964124,-0.07326667,0.41273558,0.3614489,11.119955807563542,0.5535015649453758,jump
05/08/2020, 15:25:20,9.769895,-3.9074793,3.5964124,-0.1856089,0.4713489,0.36877558,11.119955807563542,0.6265906825870101,jump
05/08/2020, 15:25:20,9.858429,-4.0366917,3.7543387,-0.1856089,0.4713489,0.36877558,11.295067970149226,0.6265906825870101,jump
05/08/2020, 15:25:20,9.858429,-4.0366917,3.7543387,-0.2942878,0.5189722,0.3809867,11.295067970149226,0.7078759292004244,jump
05/08/2020, 15:25:20,9.757931,-4.0773697,3.900301,-0.2942878,0.5189722,0.3809867,11.271845631990109,0.7078759292004244,jump
05/08/2020, 15:25:20,9.757931,-4.0773697,3.900301,-0.3944189,0.52019334,0.3944189,11.271845631990109,0.7627146512042399,jump
05/08/2020, 15:25:20,9.49472,-4.173083,3.9577286,-0.3944189,0.52019334,0.3944189,11.100808653062632,0.7627146512042399,jump
05/08/2020, 15:25:20,9.49472,-4.173083,3.9577286,-0.46524334,0.47867557,0.41151446,11.100808653062632,0.7841720613718647,jump
05/08/2020, 15:25:20,9.221938,-4.302295,4.063013,-0.46524334,0.47867557,0.41151446,10.95727896204113,0.7841720613718647,jump
05/08/2020, 15:25:20,9.221938,-4.302295,4.063013,-0.5030978,0.40663,0.44082114,10.95727896204113,0.78280177037672,jump
05/08/2020, 15:25:21,9.638289,-2.8689942,4.2448673,-3.779339,0.49455002,-1.4152678,10.915431740630622,4.065829138456212,jump
05/08/2020, 15:25:21,9.556933,-3.158526,4.1347976,-3.779339,0.49455002,-1.4152678,10.88153542371087,4.065829138456212,jump
05/08/2020, 15:25:21,9.556933,-3.158526,4.1347976,-3.7610223,0.53973114,-1.3725289,10.88153542371087,4.039855725274961,jump
05/08/2020, 15:25:21,9.45165,-3.3954153,4.0558343,-3.7610223,0.53973114,-1.3725289,10.831081124325058,4.039855725274961,jump
05/08/2020, 15:25:21,9.45165,-3.3954153,4.0558343,-3.7085147,0.58247,-1.3249056,10.831081124325058,3.980920427284616,jump
05/08/2020, 15:25:21,9.238688,-3.5653057,3.8835511,-3.7085147,0.58247,-1.3249056,10.637045583156459,3.980920427284616,jump
05/08/2020, 15:25:21,9.238688,-3.5653057,3.8835511,-3.60472,0.6068922,-1.2540811,10.637045583156459,3.8645885640657327,jump
05/08/2020, 15:25:21,8.956335,-3.7280176,3.7543387,-3.60472,0.6068922,-1.2540811,10.402360896543552,3.8645885640657327,jump
05/08/2020, 15:25:21,8.956335,-3.7280176,3.7543387,-3.4557445,0.6142189,-1.1698245,10.402360896543552,3.699719481983415,jump
05/08/2020, 15:25:21,8.709874,-3.8931224,3.6203406,-3.4557445,0.6142189,-1.1698245,10.204174440439937,3.699719481983415,jump
05/08/2020, 15:25:21,8.709874,-3.8931224,3.6203406,-3.250598,0.59834445,-1.0684723,10.204174440439937,3.4736200304572376,jump
05/08/2020, 15:25:21,8.496913,-4.0271206,3.4911282,-3.250598,0.59834445,-1.0684723,10.03011496377137,3.4736200304572376,jump
05/08/2020, 15:25:21,8.496913,-4.0271206,3.4911282,-2.9892802,0.57514334,-0.9536878,10.03011496377137,3.1900010204139266,jump
05/08/2020, 15:25:21,8.305488,-4.113262,3.4169507,-2.9892802,0.57514334,-0.9536878,9.878036376476027,3.1900010204139266,jump
05/08/2020, 15:25:21,8.305488,-4.113262,3.4169507,-2.6974347,0.54461557,-0.8523356,9.878036376476027,2.880839427763624,jump
05/08/2020, 15:25:21,8.193025,-4.1587257,3.3403804,-2.6974347,0.54461557,-0.8523356,9.776440756316086,2.880839427763624,jump
05/08/2020, 15:25:21,8.193025,-4.1587257,3.3403804,-2.3933778,0.52019334,-0.74732006,9.776440756316086,2.560731453613678,jump
05/08/2020, 15:25:21,8.126026,-4.130012,3.251846,-2.3933778,0.52019334,-0.74732006,9.678006166384867,2.560731453613678,jump
05/08/2020, 15:25:21,8.126026,-4.130012,3.251846,-2.0905423,0.5006556,-0.6520734,9.678006166384867,2.246379953469585,jump
05/08/2020, 15:25:21,8.090134,-4.024728,3.1800613,-2.0905423,0.5006556,-0.6520734,9.579221623598878,2.246379953469585,jump
05/08/2020, 15:25:22,7.448857,-3.6897326,2.8833513,-0.8071545,-0.18194556,0.2283478,8.79848334964394,0.8583386578133301,jump
05/08/2020, 15:25:22,7.472785,-3.7615173,2.8354948,-0.8071545,-0.18194556,0.2283478,8.833547328640723,0.8583386578133301,jump
05/08/2020, 15:25:22,7.472785,-3.7615173,2.8354948,-0.61788225,-0.21613668,0.19537778,8.833547328640723,0.6831295768308553,jump
05/08/2020, 15:25:22,7.472785,-3.7878382,2.7684958,-0.61788225,-0.21613668,0.19537778,8.823536873980862,0.6831295768308553,jump
05/08/2020, 15:25:22,7.472785,-3.7878382,2.7684958,-0.43349445,-0.28818223,0.16485001,8.823536873980862,0.5460237726507976,jump
05/08/2020, 15:25:22,7.5589266,-3.8117664,2.7326035,-0.43349445,-0.28818223,0.16485001,8.895732472375482,0.5460237726507976,jump
05/08/2020, 15:25:22,7.5589266,-3.8117664,2.7326035,-0.24178001,-0.37610224,0.14897557,8.895732472375482,0.47127930994935796,jump
05/08/2020, 15:25:22,7.8053875,-3.859623,2.7014968,-0.24178001,-0.37610224,0.14897557,9.116953905154999,0.47127930994935796,jump
05/08/2020, 15:25:22,7.8053875,-3.859623,2.7014968,-0.046402223,-0.44448447,0.12943779,9.116953905154999,0.4652674002494802,jump
05/08/2020, 15:25:22,8.2145605,-3.8668015,2.6703901,-0.046402223,-0.44448447,0.12943779,9.46372768183723,0.4652674002494802,jump
05/08/2020, 15:25:22,8.2145605,-3.8668015,2.6703901,0.13188,-0.46158,0.109900005,9.46372768183723,0.492469744887134,jump
05/08/2020, 15:25:22,8.673982,-3.845266,2.6823542,0.13188,-0.46158,0.109900005,9.85997228586933,0.492469744887134,jump
05/08/2020, 15:25:22,8.673982,-3.845266,2.6823542,0.28085557,-0.42250445,0.089141116,9.85997228586933,0.5151077576108863,jump
05/08/2020, 15:25:22,9.111869,-3.8333018,2.6225336,0.28085557,-0.42250445,0.089141116,10.22731826630803,0.5151077576108863,jump
05/08/2020, 15:25:22,9.111869,-3.8333018,2.6225336,0.35534334,-0.35534334,0.06105556,10.22731826630803,0.5062267896191591,jump
05/08/2020, 15:25:22,9.4229355,-3.7471602,2.5507488,0.35534334,-0.35534334,0.06105556,10.456540645724079,0.5062267896191591,jump
05/08/2020, 15:25:22,9.4229355,-3.7471602,2.5507488,0.3602278,-0.2759711,0.051286668,10.456540645724079,0.456677612285409,jump
05/08/2020, 15:25:22,9.602397,-3.6777685,2.455036,0.3602278,-0.2759711,0.051286668,10.571622854466593,0.456677612285409,jump
05/08/2020, 15:25:22,9.602397,-3.6777685,2.455036,0.30405667,-0.2075889,0.034191113,10.571622854466593,0.36974672840192435,jump
05/08/2020, 15:25:22,9.619147,-3.5940197,2.347359,0.30405667,-0.2075889,0.034191113,10.533521066121835,0.36974672840192435,jump
05/08/2020, 15:25:23,-0.567099,4.017549,-1.253839,-1.0196278,-0.6618422,-2.7267413,4.24669445543195,2.9854303201529837,jump
05/08/2020, 15:25:23,-0.33260235,3.7256248,-1.0336994,-1.0196278,-0.6618422,-2.7267413,3.8806492895512954,2.9854303201529837,jump
05/08/2020, 15:25:23,-0.33260235,3.7256248,-1.0336994,-0.9329289,-0.7778478,-3.1724467,3.8806492895512954,3.397031329112866,jump
05/08/2020, 15:25:23,-0.086141616,3.3954153,-0.8542377,-0.9329289,-0.7778478,-3.1724467,3.502283181782011,3.397031329112866,jump
05/08/2020, 15:25:23,-0.086141616,3.3954153,-0.8542377,-0.81081784,-0.9194967,-3.6181524,3.502283181782011,3.8201997879435567,jump
05/08/2020, 15:25:23,0.19142582,3.0005996,-0.73459655,-0.81081784,-0.9194967,-3.6181524,3.0951371586078396,3.8201997879435567,jump
05/08/2020, 15:25:23,0.19142582,3.0005996,-0.73459655,-0.67283225,-1.0855678,-4.072406,3.0951371586078396,4.267979601445982,jump
05/08/2020, 15:25:23,0.6197411,2.6129622,-0.6628119,-0.67283225,-1.0855678,-4.072406,2.7660387361289547,4.267979601445982,jump
05/08/2020, 15:25:23,0.6197411,2.6129622,-0.6628119,-0.5519422,-1.27484,-4.512006,2.7660387361289547,4.721022520201216,jump
05/08/2020, 15:25:23,1.174876,2.2420747,-0.63888365,-0.5519422,-1.27484,-4.512006,2.610633057409007,4.721022520201216,jump
05/08/2020, 15:25:23,1.174876,2.2420747,-0.63888365,-0.4798967,-1.4653333,-4.941837,2.610633057409007,5.17679958425427,jump
05/08/2020, 15:25:23,1.861616,1.8376877,-0.69152576,-0.4798967,-1.4653333,-4.941837,2.705719545304254,5.17679958425427,jump
05/08/2020, 15:25:23,1.861616,1.8376877,-0.69152576,-0.4798967,-1.6497211,-5.3557935,2.705719545304254,5.624624827874421,jump
05/08/2020, 15:25:23,2.6823542,1.4404793,-0.7465607,-0.4798967,-1.6497211,-5.3557935,3.1348616456852647,5.624624827874421,jump
05/08/2020, 15:25:23,2.6823542,1.4404793,-0.7465607,-0.54950005,-1.8683001,-5.784404,3.1348616456852647,6.103427137730571,jump
05/08/2020, 15:25:23,3.5676985,1.0887343,-0.7848458,-0.54950005,-1.8683001,-5.784404,3.811797177058105,6.103427137730571,jump
05/08/2020, 15:25:23,3.5676985,1.0887343,-0.7848458,-0.6838223,-2.129618,-6.2203403,3.811797177058105,6.610258563616352,jump
05/08/2020, 15:25:23,4.587041,0.6867401,-0.715454,-0.6838223,-2.129618,-6.2203403,4.693019347443162,6.610258563616352,jump
05/08/2020, 15:25:23,4.587041,0.6867401,-0.715454,-0.82791334,-2.4300113,-6.6404023,4.693019347443162,7.119363610702991,jump
05/08/2020, 15:25:23,5.845666,0.20817557,-0.46660042,-0.82791334,-2.4300113,-6.6404023,5.867952215472632,7.119363610702991,jump
05/08/2020, 15:25:24,10.3848505,-4.0845485,0.8422736,-0.7558678,-0.3944189,-0.32115224,11.190982127846299,0.9110659284174205,jump
05/08/2020, 15:25:24,10.3848505,-4.0845485,0.8422736,-0.80104893,-0.3284789,-0.31993112,11.190982127846299,0.923002549388698,jump
05/08/2020, 15:25:24,10.164711,-4.1180477,0.7752745,-0.80104893,-0.3284789,-0.31993112,10.994576719196088,0.923002549388698,jump
05/08/2020, 15:25:24,10.164711,-4.1180477,0.7752745,-0.81448114,-0.27719223,-0.29673,10.994576719196088,0.9100899741617506,jump
05/08/2020, 15:25:24,9.882358,-4.1778684,0.63888365,-0.81448114,-0.27719223,-0.29673,10.748197434276497,0.9100899741617506,jump
05/08/2020, 15:25:24,9.882358,-4.1778684,0.63888365,-0.79250115,-0.24300112,-0.2625389,10.748197434276497,0.8695023277373721,jump
05/08/2020, 15:25:24,9.631111,-4.17069,0.5886344,-0.79250115,-0.24300112,-0.2625389,10.511871759353616,0.8695023277373721,jump
05/08/2020, 15:25:24,9.631111,-4.17069,0.5886344,-0.70946556,-0.21369445,-0.22102112,10.511871759353616,0.7732121561839288,jump
05/08/2020, 15:25:24,9.355937,-4.165904,0.55752766,-0.70946556,-0.21369445,-0.22102112,10.256663728067302,0.7732121561839288,jump
05/08/2020, 15:25:24,9.355937,-4.165904,0.55752766,-0.57636446,-0.18438779,-0.17828223,10.256663728067302,0.6308560837028203,jump
05/08/2020, 15:25:24,9.083155,-4.098905,0.5072784,-0.57636446,-0.18438779,-0.17828223,9.978078631512552,0.6308560837028203,jump
05/08/2020, 15:25:24,9.083155,-4.098905,0.5072784,-0.43227336,-0.16973445,-0.13676445,9.978078631512552,0.48412245798517245,jump
05/08/2020, 15:25:24,8.853444,-3.9840498,0.44985065,-0.43227336,-0.16973445,-0.13676445,9.7189758109169,0.48412245798517245,jump
05/08/2020, 15:25:24,8.853444,-3.9840498,0.44985065,-0.2820767,-0.17828223,-0.098910004,9.7189758109169,0.34804453727910284,jump
05/08/2020, 15:25:24,8.652447,-3.8548372,0.35413775,-0.2820767,-0.17828223,-0.098910004,9.478924935327852,0.34804453727910284,jump
05/08/2020, 15:25:24,8.652447,-3.8548372,0.35413775,-0.13920668,-0.1856089,-0.078151114,9.478924935327852,0.24481984635439813,jump
05/08/2020, 15:25:24,8.520842,-3.7543387,0.28713873,-0.13920668,-0.1856089,-0.078151114,9.315699092488282,0.24481984635439813,jump
05/08/2020, 15:25:24,8.520842,-3.7543387,0.28713873,-0.0061055557,-0.18072446,-0.070824444,9.315699092488282,0.1942027524106767,jump
05/08/2020, 15:25:24,8.420342,-3.644269,0.35174492,-0.0061055557,-0.18072446,-0.070824444,9.18186189475785,0.1942027524106767,jump
05/08/2020, 15:25:24,8.420342,-3.644269,0.35174492,0.11112112,-0.18072446,-0.085477784,9.18186189475785,0.22872622020585345,jump
05/08/2020, 15:25:25,9.047262,-2.1655045,2.4358935,-0.27108666,-0.03052778,0.03297,9.616441131239744,0.27478527090443217,jump
05/08/2020, 15:25:25,9.047262,-2.1655045,2.4358935,-0.28085557,0.036633335,0.0036633336,9.616441131239744,0.2832583102951244,jump
05/08/2020, 15:25:25,9.241081,-2.3952155,2.548356,-0.28085557,0.036633335,0.0036633336,9.880726611864446,0.2832583102951244,jump
05/08/2020, 15:25:25,9.241081,-2.3952155,2.548356,-0.27841336,0.11234222,-0.04396,9.880726611864446,0.3034258613567665,jump
05/08/2020, 15:25:25,9.274581,-2.5627131,2.6512475,-0.27841336,0.11234222,-0.04396,9.980704578511336,0.3034258613567665,jump
05/08/2020, 15:25:25,9.274581,-2.5627131,2.6512475,-0.25887558,0.15508112,-0.10745778,9.980704578511336,0.32033403550940526,jump
05/08/2020, 15:25:25,9.131011,-2.7086751,2.7565317,-0.25887558,0.15508112,-0.10745778,9.915177769234038,0.32033403550940526,jump
05/08/2020, 15:25:25,9.131011,-2.7086751,2.7565317,-0.24666445,0.15141778,-0.14653334,9.915177769234038,0.3244113340372598,jump
05/08/2020, 15:25:25,8.872586,-2.8426733,2.8977082,-0.24666445,0.15141778,-0.14653334,9.757063643925873,0.3244113340372598,jump
05/08/2020, 15:25:25,8.872586,-2.8426733,2.8977082,-0.23811668,0.117226675,-0.17828223,9.757063643925873,0.3197283242619224,jump
05/08/2020, 15:25:25,8.671589,-2.952743,3.0843484,-0.23811668,0.117226675,-0.17828223,9.665834203564588,0.3197283242619224,jump
05/08/2020, 15:25:25,8.671589,-2.952743,3.0843484,-0.23201112,0.07204556,-0.20270446,9.665834203564588,0.31639978203627994,jump
05/08/2020, 15:25:25,8.532805,-3.0269206,3.2877383,-0.23201112,0.07204556,-0.20270446,9.63225000014465,0.31639978203627994,jump
05/08/2020, 15:25:25,8.532805,-3.0269206,3.2877383,-0.23323223,0.026864445,-0.20392556,9.63225000014465,0.3109736443762706,jump
05/08/2020, 15:25:25,8.489735,-3.101098,3.4097722,-0.23323223,0.026864445,-0.20392556,9.660173382001402,0.3109736443762706,jump
05/08/2020, 15:25:25,8.489735,-3.101098,3.4097722,-0.23201112,0.0061055557,-0.20636779,9.660173382001402,0.3105706115139291,jump
05/08/2020, 15:25:25,8.547162,-3.1513474,3.4169507,-0.23201112,0.0061055557,-0.20636779,9.729363892008399,0.3105706115139291,jump
05/08/2020, 15:25:25,8.547162,-3.1513474,3.4169507,-0.24055889,0.01099,-0.1965989,9.729363892008399,0.3108705345729596,jump
05/08/2020, 15:25:25,8.592627,-3.1752756,3.4073794,-0.24055889,0.01099,-0.1965989,9.773732173932526,0.3108705345729596,jump
05/08/2020, 15:25:25,8.592627,-3.1752756,3.4073794,-0.25277,0.029306669,-0.18805112,9.773732173932526,0.3164091980740125,jump
05/08/2020, 15:25:26,8.640483,-4.182654,1.4356936,-0.7082445,0.3162678,-0.15996556,9.706377009182432,0.7919751067459311,jump
05/08/2020, 15:25:26,8.62134,-4.347759,1.4524434,-0.7082445,0.3162678,-0.15996556,9.764225414843391,0.7919751067459311,jump
05/08/2020, 15:25:26,8.62134,-4.347759,1.4524434,-0.71923447,0.32970002,-0.19537778,9.764225414843391,0.8149679752576428,jump
05/08/2020, 15:25:26,8.508878,-4.5128636,1.442872,-0.71923447,0.32970002,-0.19537778,9.739035813602685,0.8149679752576428,jump
05/08/2020, 15:25:26,8.508878,-4.5128636,1.442872,-0.7167922,0.30649891,-0.21735778,9.739035813602685,0.8093065466052831,jump
05/08/2020, 15:25:26,8.372486,-4.6229334,1.4189439,-0.7167922,0.30649891,-0.21735778,9.668683394619613,0.8093065466052831,jump
05/08/2020, 15:25:26,8.372486,-4.6229334,1.4189439,-0.70336,0.26742333,-0.23323223,9.668683394619613,0.7877993594476388,jump
05/08/2020, 15:25:26,8.327023,-4.6899323,1.4404793,-0.70336,0.26742333,-0.23323223,9.664871988543782,0.7877993594476388,jump
05/08/2020, 15:25:26,8.327023,-4.6899323,1.4404793,-0.6789378,0.21980001,-0.24422224,9.664871988543782,0.7542632649523225,jump
05/08/2020, 15:25:26,8.327023,-4.7784667,1.4883357,-0.6789378,0.21980001,-0.24422224,9.715358554796618,0.7542632649523225,jump
05/08/2020, 15:25:26,8.327023,-4.7784667,1.4883357,-0.66428447,0.17828223,-0.23689556,9.715358554796618,0.727446159431676,jump
05/08/2020, 15:25:26,8.408379,-4.8885365,1.5577276,-0.66428447,0.17828223,-0.23689556,9.850133732725912,0.727446159431676,jump
05/08/2020, 15:25:26,8.408379,-4.8885365,1.5577276,-0.65085226,0.15386,-0.22468445,9.850133732725912,0.7055243932086382,jump
05/08/2020, 15:25:26,8.508878,-5.072784,1.5625132,-0.65085226,0.15386,-0.22468445,10.028737966955799,0.7055243932086382,jump
05/08/2020, 15:25:26,8.508878,-5.072784,1.5625132,-0.6117767,0.13310112,-0.21491556,10.028737966955799,0.661948146026578,jump
05/08/2020, 15:25:26,8.63809,-5.194818,1.6103697,-0.6117767,0.13310112,-0.21491556,10.20764546458188,0.661948146026578,jump
05/08/2020, 15:25:26,8.63809,-5.194818,1.6103697,-0.5470578,0.11234222,-0.1965989,10.20764546458188,0.5920676889315953,jump
05/08/2020, 15:25:26,8.7266245,-5.3216376,1.6677973,-0.5470578,0.11234222,-0.1965989,10.356415884035394,0.5920676889315953,jump
05/08/2020, 15:25:26,8.7266245,-5.3216376,1.6677973,-0.45181113,0.102573335,-0.18194556,10.356415884035394,0.49775373257719735,jump
05/08/2020, 15:25:26,8.7266245,-5.4149575,1.7467605,-0.45181113,0.102573335,-0.18194556,10.417625072423498,0.49775373257719735,jump
05/08/2020, 15:25:27,9.45165,-3.3786657,3.2398818,0.16973445,-0.017095556,0.12821667,10.547317052238412,0.21340467463348436,jump
05/08/2020, 15:25:27,9.262616,-3.2733815,3.1561332,0.16973445,-0.017095556,0.12821667,10.318539671789068,0.21340467463348436,jump
05/08/2020, 15:25:27,9.262616,-3.2733815,3.1561332,0.13310112,-0.03174889,0.14409111,10.318539671789068,0.1987112216863611,jump
05/08/2020, 15:25:27,9.102298,-3.2231321,3.101098,0.13310112,-0.03174889,0.14409111,10.141854606527913,0.1987112216863611,jump
05/08/2020, 15:25:27,9.102298,-3.2231321,3.101098,0.10013112,-0.047623336,0.16240779,10.141854606527913,0.196648192353638,jump
05/08/2020, 15:25:27,9.001799,-3.2183464,3.0723844,0.10013112,-0.047623336,0.16240779,10.041398183844723,0.196648192353638,jump
05/08/2020, 15:25:27,9.001799,-3.2183464,3.0723844,0.078151114,-0.034191113,0.1746189,10.041398183844723,0.19434090934469433,jump
05/08/2020, 15:25:27,8.956335,-3.237489,3.0987053,0.078151114,-0.034191113,0.1746189,10.014951186066448,0.19434090934469433,jump
05/08/2020, 15:25:27,8.956335,-3.237489,3.0987053,0.07693,-0.007326667,0.17706113,10.014951186066448,0.1931904432827038,jump
05/08/2020, 15:25:27,8.898908,-3.2470603,3.1561332,0.07693,-0.007326667,0.17706113,9.984745102870713,0.1931904432827038,jump
05/08/2020, 15:25:27,8.898908,-3.2470603,3.1561332,0.09036223,0.012211111,0.16851334,9.984745102870713,0.19160164470275245,jump
05/08/2020, 15:25:27,8.810373,-3.2350962,3.1561332,0.09036223,0.012211111,0.16851334,9.90200494554898,0.19160164470275245,jump
05/08/2020, 15:25:27,8.810373,-3.2350962,3.1561332,0.09524667,0.013432222,0.16485001,9.90200494554898,0.19086089051249608,jump
05/08/2020, 15:25:27,8.71466,-3.2422748,3.1633115,0.09524667,0.013432222,0.16485001,9.821617925952815,0.19086089051249608,jump
05/08/2020, 15:25:27,8.71466,-3.2422748,3.1633115,0.09768889,0.024422223,0.15874445,9.821617925952815,0.18798767562039054,jump
05/08/2020, 15:25:27,8.657232,-3.2303107,3.1441689,0.09768889,0.024422223,0.15874445,9.76055201763978,0.18798767562039054,jump
05/08/2020, 15:25:27,8.657232,-3.2303107,3.1441689,0.10501556,0.046402223,0.15508112,9.76055201763978,0.19295488885313264,jump
05/08/2020, 15:25:27,8.623733,-3.2183464,3.1657043,0.10501556,0.046402223,0.15508112,9.733868709855177,0.19295488885313264,jump
05/08/2020, 15:25:27,8.623733,-3.2183464,3.1657043,0.10013112,0.07937223,0.14042778,9.733868709855177,0.1898582452193516,jump
05/08/2020, 15:25:27,8.585447,-3.1752756,3.1728828,0.10013112,0.07937223,0.14042778,9.688109499708412,0.1898582452193516,jump
05/08/2020, 15:25:28,-0.85902333,4.3094735,-1.5720844,-1.3859612,1.8866167,2.8048923,4.667004660791497,3.6534410903169214,jump
05/08/2020, 15:25:28,-0.85902333,4.3094735,-1.5720844,-1.1478444,1.4995245,1.900049,4.667004660791497,2.6788629277352634,jump
05/08/2020, 15:25:28,-1.6342978,4.8191447,-1.753939,-1.1478444,1.4995245,1.900049,5.382507545119977,2.6788629277352634,jump
05/08/2020, 15:25:28,-1.6342978,4.8191447,-1.753939,-0.7558678,1.1600556,1.2272167,5.382507545119977,1.8501691978733472,jump
05/08/2020, 15:25:28,-2.2229323,5.8624153,-1.9884356,-0.7558678,1.1600556,1.2272167,6.577478067763918,1.8501691978733472,jump
05/08/2020, 15:25:28,-2.2229323,5.8624153,-1.9884356,-0.5006556,0.9292656,0.67161113,6.577478067763918,1.251100364058251,jump
05/08/2020, 15:25:28,-2.629712,7.312466,-2.2731814,-0.5006556,0.9292656,0.67161113,8.096598095593942,1.251100364058251,jump
05/08/2020, 15:25:28,-2.629712,7.312466,-2.2731814,-0.45181113,0.76075226,0.12699556,8.096598095593942,0.8938708949455633,jump
05/08/2020, 15:25:28,-2.993421,8.676374,-2.6608188,-0.45181113,0.76075226,0.12699556,9.556149844983073,0.8938708949455633,jump
05/08/2020, 15:25:28,-2.993421,8.676374,-2.6608188,-0.6349778,0.6618422,-0.42983112,9.556149844983073,1.0129100412458985,jump
05/08/2020, 15:25:28,-3.2997024,9.468399,-2.9431717,-0.6349778,0.6618422,-0.42983112,10.449922314816785,1.0129100412458985,jump
05/08/2020, 15:25:28,-3.2997024,9.468399,-2.9431717,-0.8523356,0.50676113,-0.9634567,10.449922314816785,1.3825814870797069,jump
05/08/2020, 15:25:28,-3.4480574,9.442079,-3.1465619,-0.8523356,0.50676113,-0.9634567,10.532938791075427,1.3825814870797069,jump
05/08/2020, 15:25:28,-3.4480574,9.442079,-3.1465619,-1.1112112,0.31382558,-1.4958612,10.532938791075427,1.8896765408649152,jump
05/08/2020, 15:25:28,-3.4408789,8.535198,-3.3284163,-1.1112112,0.31382558,-1.4958612,9.786092748374145,1.8896765408649152,jump
05/08/2020, 15:25:28,-3.4408789,8.535198,-3.3284163,-1.3102523,0.11600556,-2.0893211,9.786092748374145,2.468902836206104,jump
05/08/2020, 15:25:28,-3.1561332,7.2789664,-3.3116665,-1.3102523,0.11600556,-2.0893211,8.597189296096222,2.468902836206104,jump
05/08/2020, 15:25:28,-3.1561332,7.2789664,-3.3116665,-1.3761923,-0.059834447,-2.75849,8.597189296096222,3.0833022956158556,jump
05/08/2020, 15:25:28,-2.6943183,5.962914,-3.1345978,-1.3761923,-0.059834447,-2.75849,7.25543917047402,3.0833022956158556,jump
05/08/2020, 15:25:28,-2.6943183,5.962914,-3.1345978,-1.3065889,-0.21980001,-3.4288802,7.25543917047402,3.6759632878911748,jump
05/08/2020, 15:25:29,8.855837,-2.8642087,1.7659031,0.30649891,-0.12089001,-0.081814446,9.473539566470716,0.33948428833203076,jump
05/08/2020, 15:25:29,8.841479,-2.926422,1.8807586,0.30649891,-0.12089001,-0.081814446,9.501208119560143,0.33948428833203076,jump
05/08/2020, 15:25:29,8.841479,-2.926422,1.8807586,0.30649891,-0.12699556,-0.11478445,9.501208119560143,0.35106256968005733,jump
05/08/2020, 15:25:29,8.863015,-3.0317063,2.0673988,0.30649891,-0.12699556,-0.11478445,9.592623156521467,0.35106256968005733,jump
05/08/2020, 15:25:29,8.863015,-3.0317063,2.0673988,0.28329778,-0.14287001,-0.14042778,9.592623156521467,0.34697180329839566,jump
05/08/2020, 15:25:29,8.925228,-3.1537402,2.28036,0.28329778,-0.14287001,-0.14042778,9.736827803411135,0.34697180329839566,jump
05/08/2020, 15:25:29,8.925228,-3.1537402,2.28036,0.26620224,-0.1746189,-0.15508112,9.736827803411135,0.35412645782517754,jump
05/08/2020, 15:25:29,9.0544405,-3.2566316,2.469393,0.26620224,-0.1746189,-0.15508112,9.934105096163242,0.35412645782517754,jump
05/08/2020, 15:25:29,9.0544405,-3.2566316,2.469393,0.24300112,-0.17339778,-0.18316667,9.934105096163242,0.35023757882244877,jump
05/08/2020, 15:25:29,9.219545,-3.3092737,2.6799614,0.24300112,-0.17339778,-0.18316667,10.155466636940918,0.35023757882244877,jump
05/08/2020, 15:25:29,9.219545,-3.3092737,2.6799614,0.21491556,-0.12943779,-0.20270446,10.155466636940918,0.32253982164398753,jump
05/08/2020, 15:25:29,9.30808,-3.3020952,2.78046,0.21491556,-0.12943779,-0.20270446,10.260367330541468,0.32253982164398753,jump
05/08/2020, 15:25:29,9.30808,-3.3020952,2.78046,0.16485001,-0.07570889,-0.22590557,10.260367330541468,0.28972519300237715,jump
05/08/2020, 15:25:29,9.327223,-3.2614172,2.8594232,0.16485001,-0.07570889,-0.22590557,10.286409881538633,0.28972519300237715,jump
05/08/2020, 15:25:29,9.327223,-3.2614172,2.8594232,0.10013112,-0.054950003,-0.23567446,10.286409881538633,0.2618934753586283,jump
05/08/2020, 15:25:29,9.253045,-3.2877383,2.9120653,0.10013112,-0.054950003,-0.23567446,10.242469950929458,0.2618934753586283,jump
05/08/2020, 15:25:29,9.253045,-3.2877383,2.9120653,0.028085556,-0.04396,-0.23811668,10.242469950929458,0.2437638902910805,jump
05/08/2020, 15:25:29,9.174082,-3.333202,2.9216363,0.028085556,-0.04396,-0.23811668,10.18871781162632,0.2437638902910805,jump
05/08/2020, 15:25:29,9.174082,-3.333202,2.9216363,-0.042738892,-0.04029667,-0.23079,10.18871781162632,0.23814798031163414,jump
05/08/2020, 15:25:29,9.109476,-3.4672,2.8881369,-0.042738892,-0.04029667,-0.23079,10.1658922525924,0.23814798031163414,jump
05/08/2020, 15:25:30,6.195018,-8.152347,8.123632,0.18072446,3.624258,2.8317568,13.070287099540103,4.60290717105145,jump
05/08/2020, 15:25:30,5.8504515,-7.960921,7.745567,0.18072446,3.624258,2.8317568,12.553798162298106,4.60290717105145,jump
05/08/2020, 15:25:30,5.8504515,-7.960921,7.745567,0.32115224,3.6779869,2.8366413,12.553798162298106,4.655884452665556,jump
05/08/2020, 15:25:30,5.426922,-7.9154572,7.5086775,0.32115224,3.6779869,2.8366413,12.185490622035,4.655884452665556,jump
05/08/2020, 15:25:30,5.426922,-7.9154572,7.5086775,0.47867557,3.7036302,2.8598423,12.185490622035,4.703690573713108,jump
05/08/2020, 15:25:30,4.941179,-7.948957,7.274181,0.47867557,3.7036302,2.8598423,11.853896928096722,4.703690573713108,jump
05/08/2020, 15:25:30,4.941179,-7.948957,7.274181,0.5971234,3.668218,2.8720534,11.853896928096722,4.696921281460438,jump
05/08/2020, 15:25:30,4.479364,-7.8317084,7.042077,0.5971234,3.668218,2.8720534,11.445139031360906,4.696921281460438,jump
05/08/2020, 15:25:30,4.479364,-7.8317084,7.042077,0.6667267,3.6120467,2.84641,11.445139031360906,4.646875949988063,jump
05/08/2020, 15:25:30,4.0701914,-7.396215,6.977471,0.6667267,3.6120467,2.84641,10.952422264954938,4.646875949988063,jump
05/08/2020, 15:25:30,4.0701914,-7.396215,6.977471,0.6887067,3.5656445,2.7963445,10.952422264954938,4.583413607718026,jump
05/08/2020, 15:25:30,3.778267,-6.8506513,6.8602223,0.6887067,3.5656445,2.7963445,10.40525704205673,4.583413607718026,jump
05/08/2020, 15:25:30,3.778267,-6.8506513,6.8602223,0.6740534,3.5412223,2.7487211,10.40525704205673,4.533218655179602,jump
05/08/2020, 15:25:30,3.4911282,-6.4151573,6.687939,0.6740534,3.5412223,2.7487211,9.90306769998365,4.533218655179602,jump
05/08/2020, 15:25:30,3.4911282,-6.4151573,6.687939,0.6655056,3.5412223,2.6974347,9.90306769998365,4.501034000229645,jump
05/08/2020, 15:25:30,3.2135608,-6.202196,6.513263,0.6655056,3.5412223,2.6974347,9.550749065535726,4.501034000229645,jump
05/08/2020, 15:25:30,3.2135608,-6.202196,6.513263,0.68260115,3.5290112,2.6522534,9.550749065535726,4.467025047612507,jump
05/08/2020, 15:25:30,2.8809586,-6.1399827,6.2668023,0.68260115,3.5290112,2.6522534,9.234290496454713,4.467025047612507,jump
05/08/2020, 15:25:30,2.8809586,-6.1399827,6.2668023,0.7228978,3.4911568,2.5985246,9.234290496454713,4.4116988938240835,jump
05/08/2020, 15:25:30,2.5411777,-6.111269,6.029913,0.7228978,3.4911568,2.5985246,8.953493356175224,4.4116988938240835,jump
05/08/2020, 15:25:31,-7.972885,-2.0075781,2.4861426,0.21613668,0.018316668,0.051286668,8.589422128117993,0.22289209634596244,jump
05/08/2020, 15:25:31,-7.972885,-2.0075781,2.4861426,0.35656446,0.01099,0.035412222,8.589422128117993,0.358487128468862,jump
05/08/2020, 15:25:31,-8.054241,-1.8137596,2.400001,0.35656446,0.01099,0.035412222,8.597704914027029,0.358487128468862,jump
05/08/2020, 15:25:31,-8.054241,-1.8137596,2.400001,0.4566956,-0.024422223,0.058613338,8.597704914027029,0.4610887408973286,jump
05/08/2020, 15:25:31,-8.188239,-1.4261223,2.37368,0.4566956,-0.024422223,0.058613338,8.643809440476362,0.4610887408973286,jump
05/08/2020, 15:25:31,-8.188239,-1.4261223,2.37368,0.4566956,-0.06349778,0.12089001,8.643809440476362,0.4766730751962397,jump
05/08/2020, 15:25:31,-8.274381,-0.9499506,2.3234308,0.4566956,-0.06349778,0.12089001,8.64673998523319,0.4766730751962397,jump
05/08/2020, 15:25:31,-8.274381,-0.9499506,2.3234308,0.35656446,-0.07693,0.15019667,8.64673998523319,0.39448128083685174,jump
05/08/2020, 15:25:31,-8.298309,-0.65324056,2.2301106,0.35656446,-0.07693,0.15019667,8.617543408318591,0.39448128083685174,jump
05/08/2020, 15:25:31,-8.298309,-0.65324056,2.2301106,0.17706113,-0.07570889,0.109900005,8.617543408318591,0.22172164788223073,jump
05/08/2020, 15:25:31,-8.405986,-0.46181476,2.1296122,0.17706113,-0.07570889,0.109900005,8.683842400629844,0.22172164788223073,jump
05/08/2020, 15:25:31,-8.405986,-0.46181476,2.1296122,-0.0061055557,-0.06105556,0.07326667,8.683842400629844,0.09556706611035838,jump
05/08/2020, 15:25:31,-8.52802,-0.48095736,1.9908284,-0.0061055557,-0.06105556,0.07326667,8.770509744636595,0.09556706611035838,jump
05/08/2020, 15:25:31,-8.52802,-0.48095736,1.9908284,-0.18072446,-0.07204556,0.06594,8.770509744636595,0.20542632560575125,jump
05/08/2020, 15:25:31,-8.544769,-0.51206404,2.0147567,-0.18072446,-0.07204556,0.06594,8.794005698680177,0.20542632560575125,jump
05/08/2020, 15:25:31,-8.544769,-0.51206404,2.0147567,-0.3162678,-0.10135223,0.018316668,8.794005698680177,0.33261552694250923,jump
05/08/2020, 15:25:31,-8.499306,-0.5910272,2.1463618,-0.3162678,-0.10135223,0.018316668,8.78603323782315,0.33261552694250923,jump
05/08/2020, 15:25:31,-8.499306,-0.5910272,2.1463618,-0.40174556,-0.11234222,-0.0036633336,8.78603323782315,0.4171734512161746,jump
05/08/2020, 15:25:31,-8.353344,-0.701097,2.4478576,-0.40174556,-0.11234222,-0.0036633336,8.73280592443518,0.4171734512161746,jump
05/08/2020, 15:25:31,-8.353344,-0.701097,2.4478576,-0.42128336,-0.089141116,0.046402223,8.73280592443518,0.43310388805755873,jump
05/08/2020, 15:25:32,-0.6125626,-6.2811594,9.260223,-2.1503768,-4.393558,-2.1235123,11.206245292831925,5.332614447221633,jump
05/08/2020, 15:25:32,-0.011964113,-6.71426,10.057034,-2.1503768,-4.393558,-2.1235123,12.092367652742105,5.332614447221633,jump
05/08/2020, 15:25:32,-0.011964113,-6.71426,10.057034,-1.6717012,-4.4961314,-2.1174068,12.092367652742105,5.243395309622478,jump
05/08/2020, 15:25:32,0.5383851,-6.7908306,11.432906,-1.6717012,-4.4961314,-2.1174068,13.308515392986502,5.243395309622478,jump
05/08/2020, 15:25:32,0.5383851,-6.7908306,11.432906,-1.3847401,-4.6109157,-2.0636778,13.308515392986502,5.238016268324742,jump
05/08/2020, 15:25:32,0.8566305,-6.3792653,12.626925,-1.3847401,-4.6109157,-2.0636778,14.172793954650261,5.238016268324742,jump
05/08/2020, 15:25:32,0.8566305,-6.3792653,12.626925,-1.3273479,-4.5852723,-1.9855268,14.172793954650261,5.169999151948866,jump
05/08/2020, 15:25:32,1.0169497,-5.599205,13.418949,-1.3273479,-4.5852723,-1.9855268,14.575783996057343,5.169999151948866,jump
05/08/2020, 15:25:32,1.0169497,-5.599205,13.418949,-1.3322322,-4.378905,-1.944009,14.575783996057343,4.972808153833288,jump
05/08/2020, 15:25:32,1.1102697,-4.8598228,13.639089,-1.3322322,-4.378905,-1.944009,14.521546562551931,4.972808153833288,jump
05/08/2020, 15:25:32,1.1102697,-4.8598228,13.639089,-1.2443123,-4.1615467,-1.976979,14.521546562551931,4.77234010696267,jump
05/08/2020, 15:25:32,1.1820544,-4.575077,13.371093,-1.2443123,-4.1615467,-1.976979,14.181491644040658,4.77234010696267,jump
05/08/2020, 15:25:32,1.1820544,-4.575077,13.371093,-1.1112112,-4.0809536,-2.0490246,14.181491644040658,4.699731300251563,jump
05/08/2020, 15:25:32,1.1629118,-4.9435716,12.705888,-1.1112112,-4.0809536,-2.0490246,13.683232376919618,4.699731300251563,jump
05/08/2020, 15:25:32,1.1629118,-4.9435716,12.705888,-1.0391656,-4.1420093,-2.074668,13.683232376919618,4.74766815346435,jump
05/08/2020, 15:25:32,1.2155539,-5.5896335,11.964113,-1.0391656,-4.1420093,-2.074668,13.261281198162607,4.74766815346435,jump
05/08/2020, 15:25:32,1.2155539,-5.5896335,11.964113,-0.9634567,-4.2226024,-2.0184968,13.261281198162607,4.778383480242575,jump
05/08/2020, 15:25:32,1.6127625,-6.020342,11.363515,-0.9634567,-4.2226024,-2.0184968,12.960516574619223,4.778383480242575,jump
05/08/2020, 15:25:32,1.6127625,-6.020342,11.363515,-0.76075226,-4.317849,-1.9843056,12.960516574619223,4.812487315144274,jump
05/08/2020, 15:25:32,2.2612174,-6.166304,10.69831,-0.76075226,-4.317849,-1.9843056,12.553495330258023,4.812487315144274,jump
05/08/2020, 15:25:33,8.927621,-3.1465619,2.8378878,0.07570889,-0.026864445,-0.064718895,9.882149220780585,0.10316040672663951,jump
05/08/2020, 15:25:33,8.941978,-3.1226335,2.8785655,0.07570889,-0.026864445,-0.064718895,9.89929078343791,0.10316040672663951,jump
05/08/2020, 15:25:33,8.941978,-3.1226335,2.8785655,0.16362889,-0.058613338,-0.07326667,9.89929078343791,0.18862116078680252,jump
05/08/2020, 15:25:33,9.020942,-3.0388846,2.9431717,0.16362889,-0.058613338,-0.07326667,9.963657436714048,0.18862116078680252,jump
05/08/2020, 15:25:33,9.020942,-3.0388846,2.9431717,0.21491556,-0.05617111,-0.06227667,9.963657436714048,0.23069953326522533,jump
05/08/2020, 15:25:33,9.085547,-2.9455647,2.9766715,0.21491556,-0.05617111,-0.06227667,10.004203969231115,0.23069953326522533,jump
05/08/2020, 15:25:33,9.085547,-2.9455647,2.9766715,0.21247335,-0.03174889,-0.039075557,10.004203969231115,0.21835708084707234,jump
05/08/2020, 15:25:33,9.109476,-2.9096723,3.0460632,0.21247335,-0.03174889,-0.039075557,10.036296538686411,0.21835708084707234,jump
05/08/2020, 15:25:33,9.109476,-2.9096723,3.0460632,0.18438779,0.0012211112,-0.029306669,10.036296538686411,0.18670626228534234,jump
05/08/2020, 15:25:33,9.049655,-2.9120653,3.0747771,0.18438779,0.0012211112,-0.029306669,9.99152808160675,0.18670626228534234,jump
05/08/2020, 15:25:33,9.049655,-2.9120653,3.0747771,0.13920668,0.013432222,-0.026864445,9.99152808160675,0.1424100491709721,jump
05/08/2020, 15:25:33,8.965906,-2.9240294,3.0652058,0.13920668,0.013432222,-0.026864445,9.91629503809116,0.1424100491709721,jump
05/08/2020, 15:25:33,8.965906,-2.9240294,3.0652058,0.10013112,-0.0036633336,-0.034191113,9.91629503809116,0.10587111396397245,jump
05/08/2020, 15:25:33,8.879765,-2.940779,3.0652058,0.10013112,-0.0036633336,-0.034191113,9.843469216339813,0.10587111396397245,jump
05/08/2020, 15:25:33,8.879765,-2.940779,3.0652058,0.07570889,-0.03297,-0.03052778,9.843469216339813,0.08803863946521276,jump
05/08/2020, 15:25:33,8.836694,-3.0077782,3.050849,0.07570889,-0.03297,-0.03052778,9.820466667237252,0.08803863946521276,jump
05/08/2020, 15:25:33,8.836694,-3.0077782,3.050849,0.04396,-0.059834447,-0.02198,9.820466667237252,0.07743231343482472,jump
05/08/2020, 15:25:33,8.836694,-3.034099,3.0867412,0.04396,-0.059834447,-0.02198,9.839760430335751,0.07743231343482472,jump
05/08/2020, 15:25:33,8.836694,-3.034099,3.0867412,0.01099,-0.06349778,-0.013432222,9.839760430335751,0.06582684098429278,jump
05/08/2020, 15:25:33,8.877372,-3.0245278,3.1441689,0.01099,-0.06349778,-0.013432222,9.89147592551986,0.06582684098429278,jump
05/08/2020, 15:25:34,18.329021,-9.4636135,-0.50488555,5.73678,-7.2680535,-7.6319447,20.634144458834975,11.999242811819496,jump
05/08/2020, 15:25:34,18.329021,-9.4636135,-0.50488555,6.902941,-7.743066,-7.6978846,20.634144458834975,12.917549798108983,jump
05/08/2020, 15:25:34,22.38007,-9.74836,0.94277215,6.902941,-7.743066,-7.6978846,24.429221375638658,12.917549798108983,jump
05/08/2020, 15:25:34,22.38007,-9.74836,0.94277215,7.393828,-7.691779,-7.3681846,24.429221375638658,12.966198414823314,jump
05/08/2020, 15:25:34,26.536404,-9.449257,3.0149565,7.393828,-7.691779,-7.3681846,28.32947471170998,12.966198414823314,jump
05/08/2020, 15:25:34,26.536404,-9.449257,3.0149565,7.3767323,-7.106867,-6.5280604,28.32947471170998,12.146576037977207,jump
05/08/2020, 15:25:34,29.599216,-7.7096744,5.1876397,7.3767323,-7.106867,-6.5280604,31.023608745966968,12.146576037977207,jump
05/08/2020, 15:25:34,29.599216,-7.7096744,5.1876397,7.38528,-6.3461146,-5.5609403,31.023608745966968,11.213366588011652,jump
05/08/2020, 15:25:34,30.223743,-6.367301,7.1856465,7.38528,-6.3461146,-5.5609403,31.711996238377445,11.213366588011652,jump
05/08/2020, 15:25:34,30.223743,-6.367301,7.1856465,7.2643905,-5.9297156,-4.65976,31.711996238377445,10.471210990859838,jump
05/08/2020, 15:25:34,28.94119,-5.541777,8.626125,7.2643905,-5.9297156,-4.65976,30.703645587745612,10.471210990859838,jump
05/08/2020, 15:25:34,28.94119,-5.541777,8.626125,6.876077,-5.9504747,-3.9490736,30.703645587745612,9.913817068441938,jump
05/08/2020, 15:25:34,27.419355,-4.2855453,9.360723,6.876077,-5.9504747,-3.9490736,29.288394895963744,9.913817068441938,jump
05/08/2020, 15:25:34,27.419355,-4.2855453,9.360723,6.2105713,-6.076249,-3.3360758,29.288394895963744,9.307061876074906,jump
05/08/2020, 15:25:34,26.718258,-3.0915267,9.738789,6.2105713,-6.076249,-3.3360758,28.605363947013302,9.307061876074906,jump
05/08/2020, 15:25:34,26.718258,-3.0915267,9.738789,5.243451,-5.9724545,-2.5948613,28.605363947013302,8.360460391846575,jump
05/08/2020, 15:25:34,26.699116,-2.7972097,9.786645,5.243451,-5.9724545,-2.5948613,28.573511919692752,8.360460391846575,jump
05/08/2020, 15:25:34,26.699116,-2.7972097,9.786645,4.0455413,-5.521865,-1.7840434,28.573511919692752,7.0739103146885665,jump
05/08/2020, 15:25:34,26.909683,-3.1609187,9.848858,4.0455413,-5.521865,-1.7840434,28.82919457854457,7.0739103146885665,jump
05/08/2020, 15:25:34,26.909683,-3.1609187,9.848858,2.8757167,-4.8404846,-1.23088,28.82919457854457,5.763254587156969,jump
05/08/2020, 15:25:35,8.298309,-4.3645086,4.1036906,1.0416079,-0.97078335,0.15752333,10.234800925447773,1.4325434884084436,jump
05/08/2020, 15:25:35,8.212168,-4.338187,4.168297,1.0416079,-0.97078335,0.15752333,10.180091632837307,1.4325434884084436,jump
05/08/2020, 15:25:35,8.212168,-4.338187,4.168297,1.0721356,-0.96956223,0.15386,10.180091632837307,1.4536844563316056,jump
05/08/2020, 15:25:35,8.070991,-4.319045,4.2185464,1.0721356,-0.96956223,0.15386,10.07924464418839,1.4536844563316056,jump
05/08/2020, 15:25:35,8.070991,-4.319045,4.2185464,1.0880101,-0.9732256,0.15630223,10.07924464418839,1.4681159221750604,jump
05/08/2020, 15:25:35,7.9633136,-4.2568316,4.2424746,1.0880101,-0.9732256,0.15630223,9.976651201005994,1.4681159221750604,jump
05/08/2020, 15:25:35,7.9633136,-4.2568316,4.2424746,1.1051056,-0.97811,0.16240779,9.976651201005994,1.4846999573331934,jump
05/08/2020, 15:25:35,7.853244,-4.165904,4.2664027,1.1051056,-0.97811,0.16240779,9.860547008833965,1.4846999573331934,jump
05/08/2020, 15:25:35,7.853244,-4.165904,4.2664027,1.1124322,-0.9878789,0.17339778,9.860547008833965,1.4978241016977916,jump
05/08/2020, 15:25:35,7.8580294,-4.0869412,4.2975097,1.1124322,-0.9878789,0.17339778,9.844810998337234,1.4978241016977916,jump
05/08/2020, 15:25:35,7.8580294,-4.0869412,4.2975097,1.10999,-0.99886894,0.19049335,9.844810998337234,1.5053586549758502,jump
05/08/2020, 15:25:35,7.893922,-3.9888353,4.338187,1.10999,-0.99886894,0.19049335,9.851125715934392,1.5053586549758502,jump
05/08/2020, 15:25:35,7.893922,-3.9888353,4.338187,1.1063267,-1.0025322,0.20026223,9.851125715934392,1.506364705978162,jump
05/08/2020, 15:25:35,7.982456,-3.95055,4.412365,1.1063267,-1.0025322,0.20026223,9.93958840034256,1.506364705978162,jump
05/08/2020, 15:25:35,7.982456,-3.95055,4.412365,1.0990001,-0.99886894,0.2075889,9.93958840034256,1.4995444392661037,jump
05/08/2020, 15:25:35,8.118847,-3.9481573,4.4195433,1.0990001,-0.99886894,0.2075889,10.051665718080105,1.4995444392661037,jump
05/08/2020, 15:25:35,8.118847,-3.9481573,4.4195433,1.0941156,-0.96589893,0.21125223,10.051665718080105,1.474678686120725,jump
05/08/2020, 15:25:35,8.221739,-3.9768713,4.4745784,1.0941156,-0.96589893,0.21125223,10.170267734263087,1.474678686120725,jump
05/08/2020, 15:25:35,8.221739,-3.9768713,4.4745784,1.0880101,-0.9133912,0.20392556,10.170267734263087,1.4351428462121614,jump
05/08/2020, 15:25:35,8.238488,-3.9864426,4.5655055,1.0880101,-0.9133912,0.20392556,10.227817588393952,1.4351428462121614,jump
05/08/2020, 15:25:36,8.748159,-4.5559344,2.065006,0.62643003,-0.43471557,0.14897557,10.07725564892049,0.7769079311717005,jump
05/08/2020, 15:25:36,8.748159,-4.5559344,2.065006,0.6447467,-0.39197668,0.13676445,10.07725564892049,0.7668432501648172,jump
05/08/2020, 15:25:36,8.8701935,-4.6205406,2.0817556,0.6447467,-0.39197668,0.13676445,10.21584233169259,0.7668432501648172,jump
05/08/2020, 15:25:36,8.8701935,-4.6205406,2.0817556,0.67161113,-0.35656446,0.11478445,10.21584233169259,0.7690092299590737,jump
05/08/2020, 15:25:36,8.882157,-4.7018967,2.0673988,0.67161113,-0.35656446,0.11478445,10.26034545098506,0.7690092299590737,jump
05/08/2020, 15:25:36,8.882157,-4.7018967,2.0673988,0.6984756,-0.34191114,0.09036223,10.26034545098506,0.7829027530982626,jump
05/08/2020, 15:25:36,8.867801,-4.752146,2.07697,0.6984756,-0.34191114,0.09036223,10.273002660806064,0.7829027530982626,jump
05/08/2020, 15:25:36,8.867801,-4.752146,2.07697,0.7070234,-0.34191114,0.07937223,10.273002660806064,0.7893574849738039,jump
05/08/2020, 15:25:36,8.82473,-4.7569313,2.053042,0.7070234,-0.34191114,0.07937223,10.233241655385564,0.7893574849738039,jump
05/08/2020, 15:25:36,8.82473,-4.7569313,2.053042,0.6899278,-0.3504589,0.068382226,10.233241655385564,0.7768513077631108,jump
05/08/2020, 15:25:36,8.877372,-4.76411,2.0291135,0.6899278,-0.3504589,0.068382226,10.27724557062192,0.7768513077631108,jump
05/08/2020, 15:25:36,8.877372,-4.76411,2.0291135,0.6581789,-0.3602278,0.06960334,10.27724557062192,0.7535304810994358,jump
05/08/2020, 15:25:36,8.980264,-4.7832522,2.0673988,0.6581789,-0.3602278,0.06960334,10.382618938794655,0.7535304810994358,jump
05/08/2020, 15:25:36,8.980264,-4.7832522,2.0673988,0.6117767,-0.35778558,0.068382226,10.382618938794655,0.7120094060153489,jump
05/08/2020, 15:25:36,9.131011,-4.7832522,2.0817556,0.6117767,-0.35778558,0.068382226,10.516110049412635,0.7120094060153489,jump
05/08/2020, 15:25:36,9.131011,-4.7832522,2.0817556,0.5739222,-0.32725778,0.07204556,10.516110049412635,0.6645862843747218,jump
05/08/2020, 15:25:36,9.236296,-4.800002,2.091327,0.5739222,-0.32725778,0.07204556,10.617100678663542,0.6645862843747218,jump
05/08/2020, 15:25:36,9.236296,-4.800002,2.091327,0.52141446,-0.26986557,0.07693,10.617100678663542,0.5921306360107319,jump
05/08/2020, 15:25:36,9.276974,-4.8191447,2.0841484,0.52141446,-0.26986557,0.07693,10.65974070759191,0.5921306360107319,jump
05/08/2020, 15:25:36,9.276974,-4.8191447,2.0841484,0.4566956,-0.22102112,0.08059334,10.65974070759191,0.5137280202260136,jump
05/08/2020, 15:25:37,8.343773,-3.1920254,3.8261235,1.5556957,-0.5128667,0.5592689,9.718373997989614,1.7308965553126505,jump
05/08/2020, 15:25:37,8.685946,-2.8929226,3.8835511,1.5556957,-0.5128667,0.5592689,9.94467881293858,1.7308965553126505,jump
05/08/2020, 15:25:37,8.685946,-2.8929226,3.8835511,1.5483689,-0.41395667,0.5800278,9.94467881293858,1.7044760903618816,jump
05/08/2020, 15:25:37,8.941978,-2.548356,3.845266,1.5483689,-0.41395667,0.5800278,10.061767671746095,1.7044760903618816,jump
05/08/2020, 15:25:37,8.941978,-2.548356,3.845266,1.4909767,-0.31504667,0.5678167,10.061767671746095,1.6262477280439191,jump
05/08/2020, 15:25:37,9.119047,-2.2492533,3.7998023,1.4909767,-0.31504667,0.5678167,10.131863551509166,1.6262477280439191,jump
05/08/2020, 15:25:37,9.119047,-2.2492533,3.7998023,1.3786345,-0.2185789,0.5250778,10.131863551509166,1.4913471792396642,jump
05/08/2020, 15:25:37,9.260223,-2.0147567,3.6729827,1.3786345,-0.2185789,0.5250778,10.163748498799341,1.4913471792396642,jump
05/08/2020, 15:25:37,9.260223,-2.0147567,3.6729827,1.2101212,-0.11356334,0.46402225,10.163748498799341,1.3010021092187822,jump
05/08/2020, 15:25:37,9.363115,-1.8161523,3.4983068,1.2101212,-0.11356334,0.46402225,10.158960958080376,1.3010021092187822,jump
05/08/2020, 15:25:37,9.363115,-1.8161523,3.4983068,1.01108,-0.012211111,0.38831335,10.158960958080376,1.0831524323243773,jump
05/08/2020, 15:25:37,9.427721,-1.6582261,3.3140593,1.01108,-0.012211111,0.38831335,10.129887776598899,1.0831524323243773,jump
05/08/2020, 15:25:37,9.427721,-1.6582261,3.3140593,0.79250115,0.09768889,0.29184556,10.129887776598899,0.8501617643631466,jump
05/08/2020, 15:25:37,9.444471,-1.5625132,3.158526,0.79250115,0.09768889,0.29184556,10.080464919537524,0.8501617643631466,jump
05/08/2020, 15:25:37,9.444471,-1.5625132,3.158526,0.5775856,0.21247335,0.1965989,10.080464919537524,0.6460659035997859,jump
05/08/2020, 15:25:37,9.425328,-1.605584,2.955136,0.5775856,0.21247335,0.1965989,10.007374376365771,0.6460659035997859,jump
05/08/2020, 15:25:37,9.425328,-1.605584,2.955136,0.37854445,0.30405667,0.117226675,10.007374376365771,0.4994881930512287,jump
05/08/2020, 15:25:37,9.341579,-1.6917256,2.7852457,0.37854445,0.30405667,0.117226675,9.893666423396976,0.4994881930512287,jump
05/08/2020, 15:25:37,9.341579,-1.6917256,2.7852457,0.22346334,0.37976557,0.042738892,9.893666423396976,0.44270121551584435,jump
05/08/2020, 15:25:37,9.193225,-1.8185452,2.6368906,0.22346334,0.37976557,0.042738892,9.735280335650588,0.44270121551584435,jump
05/08/2020, 15:25:38,10.037891,-3.6729827,3.8093736,0.30649891,-0.4273889,-0.13920668,11.347307730571453,0.5440416908293347,jump
05/08/2020, 15:25:38,10.135997,-3.7208393,3.802195,0.30649891,-0.4273889,-0.13920668,11.447260095152608,0.5440416908293347,jump
05/08/2020, 15:25:38,10.135997,-3.7208393,3.802195,0.34313223,-0.4151778,-0.16485001,11.447260095152608,0.5632831003743671,jump
05/08/2020, 15:25:38,10.152746,-3.7136607,3.751946,0.34313223,-0.4151778,-0.16485001,11.443191421723741,0.5632831003743671,jump
05/08/2020, 15:25:38,10.152746,-3.7136607,3.751946,0.3602278,-0.3809867,-0.17706113,11.443191421723741,0.5534126523159709,jump
05/08/2020, 15:25:38,10.054641,-3.586841,3.6323047,0.3602278,-0.3809867,-0.17706113,11.27629670325553,0.5534126523159709,jump
05/08/2020, 15:25:38,10.054641,-3.586841,3.6323047,0.35534334,-0.3394689,-0.17339778,11.27629670325553,0.5211284027184914,jump
05/08/2020, 15:25:38,9.887143,-3.4504502,3.4695928,0.35534334,-0.3394689,-0.17339778,11.031739667728566,0.5211284027184914,jump
05/08/2020, 15:25:38,9.887143,-3.4504502,3.4695928,0.30039334,-0.3309211,-0.15874445,11.031739667728566,0.4742834022539295,jump
05/08/2020, 15:25:38,9.643075,-3.2470603,3.237489,0.30039334,-0.3309211,-0.15874445,10.677716551905773,0.4742834022539295,jump
05/08/2020, 15:25:38,9.643075,-3.2470603,3.237489,0.22102112,-0.33580557,-0.13554333,10.677716551905773,0.42424957972931315,jump
05/08/2020, 15:25:38,9.396614,-3.0843484,3.0604203,0.22102112,-0.33580557,-0.13554333,10.352571353406319,0.42424957972931315,jump
05/08/2020, 15:25:38,9.396614,-3.0843484,3.0604203,0.13310112,-0.33336335,-0.10379445,10.352571353406319,0.3736580277230843,jump
05/08/2020, 15:25:38,9.219545,-3.0125637,2.900101,0.13310112,-0.33336335,-0.10379445,10.12354395973477,0.3736580277230843,jump
05/08/2020, 15:25:38,9.219545,-3.0125637,2.900101,0.058613338,-0.3284789,-0.070824444,10.12354395973477,0.34110117955010644,jump
05/08/2020, 15:25:38,9.0951185,-2.955136,2.7397819,0.058613338,-0.3284789,-0.070824444,9.947884935989553,0.34110117955010644,jump
05/08/2020, 15:25:38,9.0951185,-2.955136,2.7397819,0.0048844446,-0.32115224,-0.026864445,9.947884935989553,0.32231090189014716,jump
05/08/2020, 15:25:38,8.949157,-2.9192436,2.6129622,0.0048844446,-0.32115224,-0.026864445,9.769184279143806,0.32231090189014716,jump
05/08/2020, 15:25:38,8.949157,-2.9192436,2.6129622,-0.034191113,-0.31138334,0.0024422223,9.769184279143806,0.31326439165895037,jump
05/08/2020, 15:25:38,8.810373,-2.8594232,2.57707,-0.034191113,-0.31138334,0.0024422223,9.61458623033336,0.31326439165895037,jump
05/08/2020, 15:25:39,14.952748,-5.4676,0.8566305,1.2345434,5.4534826,6.2875013,15.94406302760566,8.414109776077408,jump
05/08/2020, 15:25:39,12.9021,-3.6801612,-1.5337993,1.2345434,5.4534826,6.2875013,13.50408461650944,8.414109776077408,jump
05/08/2020, 15:25:39,12.9021,-3.6801612,-1.5337993,1.5227256,5.251999,6.1678324,13.50408461650944,8.242835789899077,jump
05/08/2020, 15:25:39,11.318051,-2.4765713,-3.1633115,1.5227256,5.251999,6.1678324,12.009922195138758,8.242835789899077,jump
05/08/2020, 15:25:39,11.318051,-2.4765713,-3.1633115,1.67048,5.0358624,6.0261836,12.009922195138758,8.029028763824508,jump
05/08/2020, 15:25:39,10.217353,-1.6534405,-4.1276193,1.67048,5.0358624,6.0261836,11.142953191436469,8.029028763824508,jump
05/08/2020, 15:25:39,10.217353,-1.6534405,-4.1276193,1.6936811,4.745238,5.7526546,11.142953191436469,7.647147976650117,jump
05/08/2020, 15:25:39,9.552148,-1.0504491,-4.1180477,1.6936811,4.745238,5.7526546,10.454916986663333,7.647147976650117,jump
05/08/2020, 15:25:39,9.552148,-1.0504491,-4.1180477,1.7498523,4.382568,5.3472457,10.454916986663333,7.1317543998165,jump
05/08/2020, 15:25:39,8.956335,-0.41874397,-4.6731825,1.7498523,4.382568,5.3472457,10.11088121371714,7.1317543998165,jump
