DATE,TIME,ax,ay,az,gx,gy,gz,ma,mg,label
05/08/2020, 15:22:33,-1.1700903,-4.5942197,8.678768,0.02075889,0.051286668,-0.042738892,9.889235693500938,0.06991327964890866,jump
05/08/2020, 15:22:33,-1.1700903,-4.5942197,8.678768,0.009768889,0.054950003,-0.03297,9.889235693500938,0.06482248749751389,jump
05/08/2020, 15:22:33,-1.2969099,-4.570291,8.63809,0.009768889,0.054950003,-0.03297,9.858302933624897,0.06482248749751389,jump
05/08/2020, 15:22:33,-1.2969099,-4.570291,8.63809,-0.0012211112,0.03174889,-0.019537779,9.858302933624897,0.03729890046463788,jump
05/08/2020, 15:22:33,-1.3615161,-4.517649,8.60459,-0.0012211112,0.03174889,-0.019537779,9.81335092733411,0.03729890046463788,jump
05/08/2020, 15:22:33,-1.3615161,-4.517649,8.60459,-0.0061055557,0.007326667,-0.013432222,9.81335092733411,0.016473689980216668,jump
05/08/2020, 15:22:33,-1.3782659,-4.486542,8.609376,-0.0061055557,0.007326667,-0.013432222,9.805612281844764,0.016473689980216668,jump
05/08/2020, 15:22:33,-1.3782659,-4.486542,8.609376,-0.01099,0.0048844446,-0.01099,9.805612281844764,0.016291654733992307,jump
05/08/2020, 15:22:33,-1.3304094,-4.5320063,8.599805,-0.01099,0.0048844446,-0.01099,9.811509257504614,0.016291654733992307,jump
05/08/2020, 15:22:33,-1.3304094,-4.5320063,8.599805,-0.013432222,0.01099,-0.012211111,9.811509257504614,0.021220649079240435,jump
05/08/2020, 15:22:33,-1.294517,-4.56072,8.590233,-0.013432222,0.01099,-0.012211111,9.811627866261462,0.021220649079240435,jump
05/08/2020, 15:22:33,-1.294517,-4.56072,8.590233,-0.012211111,0.045181114,-0.017095556,9.811627866261462,0.04982672350456724,jump
05/08/2020, 15:22:33,-1.038485,-4.551149,8.547162,-0.012211111,0.045181114,-0.017095556,9.738859617153816,0.04982672350456724,jump
05/08/2020, 15:22:33,-1.038485,-4.551149,8.547162,-0.025643334,0.048844445,-0.036633335,9.738859617153816,0.06622206324983827,jump
05/08/2020, 15:22:33,-0.83988076,-4.922036,8.035098,-0.025643334,0.048844445,-0.036633335,9.460160720388476,0.06622206324983827,jump
05/08/2020, 15:22:33,-0.83988076,-4.922036,8.035098,0.012211111,0.07937223,0.08303556,9.460160720388476,0.11551608398625546,jump
05/08/2020, 15:22:33,0.6652047,-3.694518,8.070991,0.012211111,0.07937223,0.08303556,8.901283607945018,0.11551608398625546,jump
05/08/2020, 15:22:33,0.6652047,-3.694518,8.070991,-0.015874445,0.16118668,0.11966889,8.901283607945018,0.20137971091074677,jump
05/08/2020, 15:22:33,2.1367905,-3.8165522,10.370493,-0.015874445,0.16118668,0.11966889,11.255179599894761,0.20137971091074677,jump
05/08/2020, 15:22:33,2.1367905,-3.8165522,10.370493,0.018316668,0.49821335,0.05372889,11.255179599894761,0.5014367724680819,jump
05/08/2020, 15:22:34,-2.8402805,-4.914858,4.6612186,0.014653334,0.2942878,-0.045181114,7.345065048852661,0.298096231081132,jump
05/08/2020, 15:22:34,-2.8402805,-4.914858,4.6612186,-0.068382226,0.14287001,0.047623336,7.345065048852661,0.16539634349374135,jump
05/08/2020, 15:22:34,3.0795627,-3.5365918,9.221938,-0.068382226,0.14287001,0.047623336,10.345788054583338,0.16539634349374135,jump
05/08/2020, 15:22:34,3.0795627,-3.5365918,9.221938,0.017095556,-0.43349445,0.025643334,10.345788054583338,0.4345886280611321,jump
05/08/2020, 15:22:34,-1.5625132,-4.610969,12.535997,0.017095556,-0.43349445,0.025643334,13.44818626860292,0.4345886280611321,jump
05/08/2020, 15:22:34,-1.5625132,-4.610969,12.535997,0.15508112,-0.054950003,-0.05372889,13.44818626860292,0.17307932029973916,jump
05/08/2020, 15:22:34,-5.7260246,-5.541777,6.735796,0.15508112,-0.054950003,-0.05372889,10.43405957680654,0.17307932029973916,jump
05/08/2020, 15:22:34,-5.7260246,-5.541777,6.735796,0.0012211112,0.5360678,0.0036633336,10.43405957680654,0.5360816915253331,jump
05/08/2020, 15:22:34,0.6125626,-4.1204405,5.568098,0.0012211112,0.5360678,0.0036633336,6.953918234148118,0.5360816915253331,jump
05/08/2020, 15:22:34,0.6125626,-4.1204405,5.568098,-0.09280445,-0.03174889,0.045181114,6.953918234148118,0.10799069637504218,jump
05/08/2020, 15:22:34,2.481357,-3.6083765,11.784652,-0.09280445,-0.03174889,0.045181114,12.572013802498885,0.10799069637504218,jump
05/08/2020, 15:22:34,2.481357,-3.6083765,11.784652,0.013432222,-0.45181113,-0.042738892,12.572013802498885,0.4540268043224948,jump
05/08/2020, 15:22:34,-4.395615,-5.3072805,10.660025,0.013432222,-0.45181113,-0.042738892,12.69349377588009,0.4540268043224948,jump
05/08/2020, 15:22:34,-4.395615,-5.3072805,10.660025,0.0061055557,0.20636779,-0.06716111,12.69349377588009,0.21710724988085187,jump
05/08/2020, 15:22:34,-3.7160535,-5.2977095,4.7832522,0.0061055557,0.20636779,-0.06716111,8.047004478050036,0.21710724988085187,jump
05/08/2020, 15:22:34,-3.7160535,-5.2977095,4.7832522,-0.068382226,0.25643334,0.025643334,8.047004478050036,0.2666303924753379,jump
05/08/2020, 15:22:34,2.861816,-3.7471602,7.9920278,-0.068382226,0.25643334,0.025643334,9.279208353090166,0.2666303924753379,jump
05/08/2020, 15:22:34,2.861816,-3.7471602,7.9920278,-0.018316668,-0.36633334,0.02198,9.279208353090166,0.36744895364934227,jump
05/08/2020, 15:22:34,-0.04546363,-4.3932223,12.593426,-0.018316668,-0.36633334,0.02198,13.337797477063758,0.36744895364934227,jump
05/08/2020, 15:22:34,-0.04546363,-4.3932223,12.593426,0.15141778,-0.13920668,-0.06594,13.337797477063758,0.21599519878673457,jump
05/08/2020, 15:22:35,10.169497,-3.9960139,5.359923,1.3835189,-1.6985656,0.037854444,12.170273623505803,2.191046030028062,jump
05/08/2020, 15:22:35,10.241281,-3.629912,5.3407803,1.3835189,-1.6985656,0.037854444,12.10718883910877,2.191046030028062,jump
05/08/2020, 15:22:35,10.241281,-3.629912,5.3407803,1.2174479,-1.559359,0.08792,12.10718883910877,1.9802801843844957,jump
05/08/2020, 15:22:35,10.3848505,-3.129812,5.343173,1.2174479,-1.559359,0.08792,12.090919779531202,1.9802801843844957,jump
05/08/2020, 15:22:35,10.3848505,-3.129812,5.343173,0.97811,-1.3676445,0.10013112,12.090919779531202,1.6843921911408348,jump
05/08/2020, 15:22:35,10.499705,-2.6129622,5.407779,0.97811,-1.3676445,0.10013112,12.096092734854688,1.6843921911408348,jump
05/08/2020, 15:22:35,10.499705,-2.6129622,5.407779,0.6935911,-1.1539501,0.081814446,12.096092734854688,1.3488376716390131,jump
05/08/2020, 15:22:35,10.526027,-2.1415763,5.4843497,0.6935911,-1.1539501,0.081814446,12.060749544411234,1.3488376716390131,jump
05/08/2020, 15:22:35,10.526027,-2.1415763,5.4843497,0.39197668,-0.94758224,0.059834447,12.060749544411234,1.0271991008939347,jump
05/08/2020, 15:22:35,10.473385,-1.7060826,5.5226345,0.39197668,-0.94758224,0.059834447,11.962524818537837,1.0271991008939347,jump
05/08/2020, 15:22:35,10.473385,-1.7060826,5.5226345,0.098910004,-0.75098336,0.039075557,11.962524818537837,0.758476163879716,jump
05/08/2020, 15:22:35,10.296316,-1.442872,5.556134,0.098910004,-0.75098336,0.039075557,11.788410980940117,0.758476163879716,jump
05/08/2020, 15:22:35,10.296316,-1.442872,5.556134,-0.18072446,-0.5580478,0.04151778,11.788410980940117,0.5880496327190252,jump
05/08/2020, 15:22:35,10.064212,-1.3160524,5.5704913,-0.18072446,-0.5580478,0.04151778,11.578027792510635,0.5880496327190252,jump
05/08/2020, 15:22:35,10.064212,-1.3160524,5.5704913,-0.42983112,-0.3834289,0.04151778,11.578027792510635,0.577491331471929,jump
05/08/2020, 15:22:35,9.815358,-1.253839,5.680561,-0.42983112,-0.3834289,0.04151778,11.409738916631147,0.577491331471929,jump
05/08/2020, 15:22:35,9.815358,-1.253839,5.680561,-0.6459678,-0.23811668,0.04396,11.409738916631147,0.6898597035290673,jump
05/08/2020, 15:22:35,9.585648,-1.2514462,5.749953,-0.6459678,-0.23811668,0.04396,11.247787089829277,0.6898597035290673,jump
05/08/2020, 15:22:35,9.585648,-1.2514462,5.749953,-0.8315767,-0.11600556,0.036633335,11.247787089829277,0.8404279314568164,jump
05/08/2020, 15:22:35,9.3511505,-1.2729816,5.852844,-0.8315767,-0.11600556,0.036633335,11.104966630017481,0.8404279314568164,jump
05/08/2020, 15:22:36,8.592627,-2.6919255,4.5822554,-0.064718895,0.04396,-0.035412222,10.10330434321576,0.08587806774424048,jump
05/08/2020, 15:22:36,8.559127,-2.766103,4.56072,-0.064718895,0.04396,-0.035412222,10.085144772718579,0.08587806774424048,jump
05/08/2020, 15:22:36,8.559127,-2.766103,4.56072,-0.037854444,0.03297,-0.028085556,10.085144772718579,0.057521981028078074,jump
05/08/2020, 15:22:36,8.568698,-2.8187451,4.5320063,-0.037854444,0.03297,-0.028085556,10.094899163573167,0.057521981028078074,jump
05/08/2020, 15:22:36,8.568698,-2.8187451,4.5320063,-0.007326667,0.03297,-0.02075889,10.094899163573167,0.039643819873191204,jump
05/08/2020, 15:22:36,8.58784,-2.821138,4.510471,-0.007326667,0.03297,-0.02075889,10.102186088531667,0.039643819873191204,jump
05/08/2020, 15:22:36,8.58784,-2.821138,4.510471,0.026864445,0.03052778,-0.015874445,10.102186088531667,0.0436536568442508,jump
05/08/2020, 15:22:36,8.616554,-2.778067,4.503292,0.026864445,0.03052778,-0.015874445,10.111493647823794,0.0436536568442508,jump
05/08/2020, 15:22:36,8.616554,-2.778067,4.503292,0.05006556,0.03297,-0.0061055557,10.111493647823794,0.060256608371010545,jump
05/08/2020, 15:22:36,8.583055,-2.7421749,4.476971,0.05006556,0.03297,-0.0061055557,10.06139249492544,0.060256608371010545,jump
05/08/2020, 15:22:36,8.583055,-2.7421749,4.476971,0.064718895,0.035412222,0.0024422223,10.06139249492544,0.07381412638057962,jump
05/08/2020, 15:22:36,8.559127,-2.7421749,4.469793,0.064718895,0.035412222,0.0024422223,10.037789773837344,0.07381412638057962,jump
05/08/2020, 15:22:36,8.559127,-2.7421749,4.469793,0.06349778,0.03297,0.0036633336,10.037789773837344,0.07164083475592675,jump
05/08/2020, 15:22:36,8.530413,-2.6799614,4.4195433,0.06349778,0.03297,0.0036633336,9.97409125716426,0.07164083475592675,jump
05/08/2020, 15:22:36,8.530413,-2.6799614,4.4195433,0.05006556,0.039075557,-0.0012211112,9.97409125716426,0.06352125956512994,jump
05/08/2020, 15:22:36,8.504091,-2.6608188,4.3764725,0.05006556,0.039075557,-0.0012211112,9.927388190355396,0.06352125956512994,jump
05/08/2020, 15:22:36,8.504091,-2.6608188,4.3764725,0.029306669,0.042738892,-0.008547778,9.927388190355396,0.0525219787280332,jump
05/08/2020, 15:22:36,8.49452,-2.617748,4.3334017,0.029306669,0.042738892,-0.008547778,9.88877383910844,0.0525219787280332,jump
05/08/2020, 15:22:36,8.49452,-2.617748,4.3334017,0.015874445,0.05006556,-0.01099,9.88877383910844,0.05365946574002634,jump
05/08/2020, 15:22:36,8.518449,-2.6321049,4.290331,0.015874445,0.05006556,-0.01099,9.894386572592103,0.05365946574002634,jump
05/08/2020, 15:22:37,8.7984085,-3.696911,9.238688,-0.4383789,0.41884112,0.50554,13.282789938898407,0.7894141195104161,jump
05/08/2020, 15:22:37,9.327223,-3.5102708,11.006984,-0.4383789,0.41884112,0.50554,14.848325776512493,0.7894141195104161,jump
05/08/2020, 15:22:37,9.327223,-3.5102708,11.006984,-0.56659555,0.6191034,0.5836911,14.848325776512493,1.0222596692095454,jump
05/08/2020, 15:22:37,9.999606,-3.2039895,12.691531,-0.56659555,0.6191034,0.5836911,16.472177612117907,1.0222596692095454,jump
05/08/2020, 15:22:37,9.999606,-3.2039895,12.691531,-0.6471889,0.86821,0.6667267,16.472177612117907,1.271678659589804,jump
05/08/2020, 15:22:37,10.865808,-2.940779,14.163117,-0.6471889,0.86821,0.6667267,18.091651362953744,1.271678659589804,jump
05/08/2020, 15:22:37,10.865808,-2.940779,14.163117,-0.7424356,1.2272167,0.7546467,18.091651362953744,1.6207291974138132,jump
05/08/2020, 15:22:37,11.877972,-2.7876384,15.304494,-0.7424356,1.2272167,0.7546467,19.572548943678424,1.6207291974138132,jump
05/08/2020, 15:22:37,11.877972,-2.7876384,15.304494,-0.8975167,1.7266512,0.8095967,19.572548943678424,2.1076782151559175,jump
05/08/2020, 15:22:37,12.937992,-2.5986054,16.345371,-0.8975167,1.7266512,0.8095967,21.007511767246925,2.1076782151559175,jump
05/08/2020, 15:22:37,12.937992,-2.5986054,16.345371,-1.0855678,2.2663822,0.85111445,21.007511767246925,2.653175773190647,jump
05/08/2020, 15:22:37,13.794622,-2.347359,17.029718,-1.0855678,2.2663822,0.85111445,22.04116626902631,2.653175773190647,jump
05/08/2020, 15:22:37,13.794622,-2.347359,17.029718,-1.3383378,2.8244302,0.89263225,22.04116626902631,3.2504378853041636,jump
05/08/2020, 15:22:37,14.629718,-2.091327,17.546568,-1.3383378,2.8244302,0.89263225,22.940887902922842,3.2504378853041636,jump
05/08/2020, 15:22:37,14.629718,-2.091327,17.546568,-1.62652,3.41789,0.9646778,22.940887902922842,3.906167335721476,jump
05/08/2020, 15:22:37,15.366707,-1.969293,17.879171,-1.62652,3.41789,0.9646778,23.65752656555739,3.906167335721476,jump
05/08/2020, 15:22:37,15.366707,-1.969293,17.879171,-1.8878379,3.9759378,1.06603,23.65752656555739,4.5286238126026666,jump
05/08/2020, 15:22:37,15.862021,-2.1511476,17.991634,-1.8878379,3.9759378,1.06603,24.08173722219394,4.5286238126026666,jump
05/08/2020, 15:22:37,15.862021,-2.1511476,17.991634,-2.07711,4.5742826,1.2455333,24.08173722219394,5.175886514841672,jump
05/08/2020, 15:22:37,16.106089,-2.8283165,17.814564,-2.07711,4.5742826,1.2455333,24.181897088799282,5.175886514841672,jump
05/08/2020, 15:22:38,8.420342,-1.8879371,7.3746796,-1.0696933,0.5788067,0.3504589,11.351315869378322,1.2657339536665089,jump
05/08/2020, 15:22:38,8.233703,-2.132005,7.635497,-1.0696933,0.5788067,0.3504589,11.42979092398218,1.2657339536665089,jump
05/08/2020, 15:22:38,8.233703,-2.132005,7.635497,-0.6032289,0.58491224,0.2942878,11.42979092398218,0.89028803021478,jump
05/08/2020, 15:22:38,8.085348,-2.1942184,7.8867435,-0.6032289,0.58491224,0.2942878,11.506005931637345,0.89028803021478,jump
05/08/2020, 15:22:38,8.085348,-2.1942184,7.8867435,-0.16607112,0.5556056,0.22712667,11.506005931637345,0.6227870530314948,jump
05/08/2020, 15:22:38,8.003992,-2.091327,8.169097,-0.16607112,0.5556056,0.22712667,11.626335732837497,0.6227870530314948,jump
05/08/2020, 15:22:38,8.003992,-2.091327,8.169097,0.19171445,0.52019334,0.16729222,11.626335732837497,0.5790874092850142,jump
05/08/2020, 15:22:38,8.037491,-1.7874385,8.425129,0.19171445,0.52019334,0.16729222,11.780449614249054,0.5790874092850142,jump
05/08/2020, 15:22:38,8.037491,-1.7874385,8.425129,0.44082114,0.5189722,0.10867889,11.780449614249054,0.6895408204538604,jump
05/08/2020, 15:22:38,8.274381,-1.3639089,8.618947,0.44082114,0.5189722,0.10867889,12.025467601908018,0.6895408204538604,jump
05/08/2020, 15:22:38,8.274381,-1.3639089,8.618947,0.5739222,0.56659555,0.045181114,12.025467601908018,0.8077490738691642,jump
05/08/2020, 15:22:38,8.652447,-0.9834501,8.626125,0.5739222,0.56659555,0.045181114,12.257326263990457,0.8077490738691642,jump
05/08/2020, 15:22:38,8.652447,-0.9834501,8.626125,0.5788067,0.6471889,-0.023201112,12.257326263990457,0.868567188161747,jump
05/08/2020, 15:22:38,9.128618,-0.62452674,8.516056,0.5788067,0.6471889,-0.023201112,12.499796616608618,0.868567188161747,jump
05/08/2020, 15:22:38,9.128618,-0.62452674,8.516056,0.4701278,0.7815111,-0.12943779,12.499796616608618,0.9211590114844166,jump
05/08/2020, 15:22:38,9.542577,-0.4235296,8.262417,0.4701278,0.7815111,-0.12943779,12.629635035881023,0.9211590114844166,jump
05/08/2020, 15:22:38,9.542577,-0.4235296,8.262417,0.2869611,0.9512456,-0.22346334,12.629635035881023,1.0184059827139937,jump
05/08/2020, 15:22:38,9.793823,-0.32542387,7.874779,0.2869611,0.9512456,-0.22346334,12.571277668760706,1.0184059827139937,jump
05/08/2020, 15:22:38,9.793823,-0.32542387,7.874779,0.08669889,1.1087689,-0.31138334,12.571277668760706,1.1549220069567745,jump
05/08/2020, 15:22:38,9.927821,-0.37088752,7.391429,0.08669889,1.1087689,-0.31138334,12.382746561584398,1.1549220069567745,jump
05/08/2020, 15:22:39,7.1569324,-3.0532417,5.5250273,-0.05617111,0.26742333,-0.20026223,9.54305465613566,0.33878517436078887,jump
05/08/2020, 15:22:39,7.1377897,-3.0843484,5.54417,-0.05617111,0.26742333,-0.20026223,9.54982028039144,0.33878517436078887,jump
05/08/2020, 15:22:39,7.1377897,-3.0843484,5.54417,-0.045181114,0.25887558,-0.21369445,9.54982028039144,0.33870815999209847,jump
05/08/2020, 15:22:39,7.1617184,-3.1393833,5.534599,-0.045181114,0.25887558,-0.21369445,9.580068985921342,0.33870815999209847,jump
05/08/2020, 15:22:39,7.1617184,-3.1393833,5.534599,-0.04151778,0.26009667,-0.23079,9.580068985921342,0.35019712924001895,jump
05/08/2020, 15:22:39,7.152147,-3.1848469,5.5369916,-0.04151778,0.26009667,-0.23079,9.589302876357365,0.35019712924001895,jump
05/08/2020, 15:22:39,7.152147,-3.1848469,5.5369916,-0.03297,0.26009667,-0.24178001,9.589302876357365,0.3566439020130259,jump
05/08/2020, 15:22:39,7.200003,-3.1369905,5.541777,-0.03297,0.26009667,-0.24178001,9.612078277562544,0.3566439020130259,jump
05/08/2020, 15:22:39,7.200003,-3.1369905,5.541777,-0.03174889,0.2735289,-0.2613178,9.612078277562544,0.3796222337816658,jump
05/08/2020, 15:22:39,7.2526455,-3.101098,5.558527,-0.03174889,0.2735289,-0.2613178,9.64960611381771,0.3796222337816658,jump
05/08/2020, 15:22:39,7.2526455,-3.101098,5.558527,-0.028085556,0.29062447,-0.2759711,9.64960611381771,0.4017604221987343,jump
05/08/2020, 15:22:39,7.3100734,-3.1561332,5.611169,-0.028085556,0.29062447,-0.2759711,9.740819542874705,0.4017604221987343,jump
05/08/2020, 15:22:39,7.3100734,-3.1561332,5.611169,-0.0061055557,0.31504667,-0.27841336,9.740819542874705,0.4204826718175914,jump
05/08/2020, 15:22:39,7.3698936,-3.3212378,5.65424,-0.0061055557,0.31504667,-0.27841336,9.864906636926449,0.4204826718175914,jump
05/08/2020, 15:22:39,7.3698936,-3.3212378,5.65424,0.05006556,0.3382478,-0.2845189,9.864906636926449,0.44482484344211204,jump
05/08/2020, 15:22:39,7.3866434,-3.5006995,5.6853466,0.05006556,0.3382478,-0.2845189,9.956935471987228,0.44482484344211204,jump
05/08/2020, 15:22:39,7.3866434,-3.5006995,5.6853466,0.13554333,0.35290113,-0.29062447,9.956935471987228,0.47683727329041375,jump
05/08/2020, 15:22:39,7.3579297,-3.6275191,5.73081,0.13554333,0.35290113,-0.29062447,10.007008032495664,0.47683727329041375,jump
05/08/2020, 15:22:39,7.3579297,-3.6275191,5.73081,0.22468445,0.36389112,-0.2955089,10.007008032495664,0.5198320462067365,jump
05/08/2020, 15:22:39,7.391429,-3.6658044,5.733203,0.22468445,0.36389112,-0.2955089,10.046937820454785,0.5198320462067365,jump
05/08/2020, 15:22:40,7.7671022,-2.7278178,5.300102,0.03052778,-0.057392225,-0.11356334,9.790809503150303,0.1308527576154702,jump
05/08/2020, 15:22:40,7.733603,-2.684747,5.3144593,0.03052778,-0.057392225,-0.11356334,9.760120881778576,0.1308527576154702,jump
05/08/2020, 15:22:40,7.733603,-2.684747,5.3144593,-0.0061055557,-0.06716111,-0.11844778,9.760120881778576,0.13630029216427622,jump
05/08/2020, 15:22:40,7.6977105,-2.713461,5.319245,-0.0061055557,-0.06716111,-0.11844778,9.742278133610231,0.13630029216427622,jump
05/08/2020, 15:22:40,7.6977105,-2.713461,5.319245,-0.017095556,-0.09036223,-0.11844778,9.742278133610231,0.14995821789319186,jump
05/08/2020, 15:22:40,7.6426754,-2.7852457,5.3312087,-0.017095556,-0.09036223,-0.11844778,9.725732203898447,0.14995821789319186,jump
05/08/2020, 15:22:40,7.6426754,-2.7852457,5.3312087,0.0,-0.11234222,-0.11478445,9.725732203898447,0.16061209480169658,jump
05/08/2020, 15:22:40,7.647461,-2.926422,5.3479586,0.0,-0.11234222,-0.11478445,9.779993150322527,0.16061209480169658,jump
05/08/2020, 15:22:40,7.647461,-2.926422,5.3479586,0.03052778,-0.13798556,-0.10501556,9.779993150322527,0.1760688144411121,jump
05/08/2020, 15:22:40,7.668997,-3.0580273,5.3790655,0.03052778,-0.13798556,-0.10501556,9.853902204407007,0.1760688144411121,jump
05/08/2020, 15:22:40,7.668997,-3.0580273,5.3790655,0.078151114,-0.14409111,-0.098910004,9.853902204407007,0.19144982315255862,jump
05/08/2020, 15:22:40,7.690532,-3.1441689,5.436493,0.078151114,-0.14409111,-0.098910004,9.929025062096455,0.19144982315255862,jump
05/08/2020, 15:22:40,7.690532,-3.1441689,5.436493,0.13432223,-0.13798556,-0.09280445,9.929025062096455,0.2137642154046177,jump
05/08/2020, 15:22:40,7.661818,-3.1728828,5.4963136,0.13432223,-0.13798556,-0.09280445,9.948874489125625,0.2137642154046177,jump
05/08/2020, 15:22:40,7.661818,-3.1728828,5.4963136,0.19415668,-0.1526389,-0.07448778,9.948874489125625,0.2579610005966895,jump
05/08/2020, 15:22:40,7.6307116,-3.17049,5.5250273,0.19415668,-0.1526389,-0.07448778,9.94010524297202,0.2579610005966895,jump
05/08/2020, 15:22:40,7.6307116,-3.17049,5.5250273,0.23811668,-0.17706113,-0.057392225,9.94010524297202,0.30223180459490284,jump
05/08/2020, 15:22:40,7.6833534,-3.141776,5.568098,0.23811668,-0.17706113,-0.057392225,9.995418595754755,0.30223180459490284,jump
05/08/2020, 15:22:40,7.6833534,-3.141776,5.568098,0.26376,-0.18316667,-0.036633335,9.995418595754755,0.3232048379644208,jump
05/08/2020, 15:22:40,7.776674,-3.0843484,5.5872407,0.26376,-0.18316667,-0.036633335,10.060174908517292,0.3232048379644208,jump
05/08/2020, 15:22:41,8.142776,-4.599005,3.0915267,0.054950003,0.058613338,0.0,9.84952689644019,0.08034317721799787,jump
05/08/2020, 15:22:41,8.092526,-4.546363,3.101098,0.054950003,0.058613338,0.0,9.786480915265352,0.08034317721799787,jump
05/08/2020, 15:22:41,8.092526,-4.546363,3.101098,0.05617111,0.05617111,0.0036633336,9.786480915265352,0.07952237173481386,jump
05/08/2020, 15:22:41,8.075776,-4.5296135,3.0795627,0.05617111,0.05617111,0.0036633336,9.758035879957099,0.07952237173481386,jump
05/08/2020, 15:22:41,8.075776,-4.5296135,3.0795627,0.06105556,0.051286668,0.007326667,9.758035879957099,0.08007361419488265,jump
05/08/2020, 15:22:41,8.054241,-4.5535417,3.048456,0.06105556,0.051286668,0.007326667,9.741592598008166,0.08007361419488265,jump
05/08/2020, 15:22:41,8.054241,-4.5535417,3.048456,0.059834447,0.036633335,0.009768889,9.741592598008166,0.0708349733810026,jump
05/08/2020, 15:22:41,8.008778,-4.56072,3.022135,0.059834447,0.036633335,0.009768889,9.699174482005398,0.0708349733810026,jump
05/08/2020, 15:22:41,8.008778,-4.56072,3.022135,0.064718895,0.028085556,-0.0024422223,9.699174482005398,0.07059247994722978,jump
05/08/2020, 15:22:41,8.018349,-4.56072,3.010171,0.064718895,0.028085556,-0.0024422223,9.703360833235104,0.07059247994722978,jump
05/08/2020, 15:22:41,8.018349,-4.56072,3.010171,0.07937223,0.02198,-0.0012211112,9.703360833235104,0.0823684526434678,jump
05/08/2020, 15:22:41,8.049456,-4.6085763,3.0125637,0.07937223,0.02198,-0.0012211112,9.752345959585,0.0823684526434678,jump
05/08/2020, 15:22:41,8.049456,-4.6085763,3.0125637,0.07448778,0.012211111,-0.0024422223,9.752345959585,0.07552155658695323,jump
05/08/2020, 15:22:41,8.073383,-4.57747,3.0269206,0.07448778,0.012211111,-0.0024422223,9.761915615196603,0.07552155658695323,jump
05/08/2020, 15:22:41,8.073383,-4.57747,3.0269206,0.05617111,0.0061055557,-0.0024422223,9.761915615196603,0.05655471736958263,jump
05/08/2020, 15:22:41,8.092526,-4.551149,3.0005996,0.05617111,0.0061055557,-0.0024422223,9.757332547525865,0.05655471736958263,jump
05/08/2020, 15:22:41,8.092526,-4.551149,3.0005996,0.012211111,0.0024422223,-0.0048844446,9.757332547525865,0.013376602346222692,jump
05/08/2020, 15:22:41,8.106883,-4.508078,2.9910283,0.012211111,0.0024422223,-0.0048844446,9.746310648401476,0.013376602346222692,jump
05/08/2020, 15:22:41,8.106883,-4.508078,2.9910283,-0.026864445,-0.0036633336,-0.01099,9.746310648401476,0.029255743311431406,jump
05/08/2020, 15:22:41,8.106883,-4.5320063,2.969493,-0.026864445,-0.0036633336,-0.01099,9.750821591077095,0.029255743311431406,jump
05/08/2020, 15:22:42,11.947364,-0.11724831,10.4016,-0.27841336,-1.8426567,-0.02075889,15.841291941029779,1.863686872429691,jump
05/08/2020, 15:22:42,11.947364,-0.11724831,10.4016,-0.5458367,-1.56058,0.023201112,15.841291941029779,1.653446692319568,jump
05/08/2020, 15:22:42,11.696117,-0.15792629,10.399207,-0.5458367,-1.56058,0.023201112,15.651441198770993,1.653446692319568,jump
05/08/2020, 15:22:42,11.696117,-0.15792629,10.399207,-0.75098336,-1.3004833,0.07204556,15.651441198770993,1.5034704847897395,jump
05/08/2020, 15:22:42,11.583654,-0.3900301,10.454242,-0.75098336,-1.3004833,0.07204556,15.608470246452102,1.5034704847897395,jump
05/08/2020, 15:22:42,11.583654,-0.3900301,10.454242,-0.93537116,-1.0257334,0.11966889,15.608470246452102,1.3933300975680407,jump
05/08/2020, 15:22:42,11.49512,-0.6963114,10.559526,-0.93537116,-1.0257334,0.11966889,15.624539456449318,1.3933300975680407,jump
05/08/2020, 15:22:42,11.49512,-0.6963114,10.559526,-1.1087689,-0.74121445,0.16485001,15.624539456449318,1.343853770171429,jump
05/08/2020, 15:22:42,11.356337,-0.9212367,10.705488,-1.1087689,-0.74121445,0.16485001,15.634018535883168,1.343853770171429,jump
05/08/2020, 15:22:42,11.356337,-0.9212367,10.705488,-1.2186689,-0.47501224,0.21247335,15.634018535883168,1.325117177458674,jump
05/08/2020, 15:22:42,11.186446,-1.2059826,10.760524,-1.2186689,-0.47501224,0.21247335,15.568553069387415,1.325117177458674,jump
05/08/2020, 15:22:42,11.186446,-1.2059826,10.760524,-1.2235534,-0.24544334,0.2625389,15.568553069387415,1.2752458915096687,jump
05/08/2020, 15:22:42,10.913664,-1.4979069,10.700703,-1.2235534,-0.24544334,0.2625389,15.357630730773327,1.2752458915096687,jump
05/08/2020, 15:22:42,10.913664,-1.4979069,10.700703,-1.119759,-0.057392225,0.31260446,15.357630730773327,1.1639912158624794,jump
05/08/2020, 15:22:42,10.583454,-1.7587247,10.597812,-1.119759,-0.057392225,0.31260446,15.080325815607289,1.1639912158624794,jump
05/08/2020, 15:22:42,10.583454,-1.7587247,10.597812,-0.9378134,0.085477784,0.34313223,15.080325815607289,1.0022675055967463,jump
05/08/2020, 15:22:42,10.155139,-1.9860427,10.497313,-0.9378134,0.085477784,0.34313223,14.739904474893372,1.0022675055967463,jump
05/08/2020, 15:22:42,10.155139,-1.9860427,10.497313,-0.7131289,0.18927222,0.34557447,14.739904474893372,0.8147383328926928,jump
05/08/2020, 15:22:42,9.726824,-2.1296122,10.293923,-0.7131289,0.18927222,0.34557447,14.321704089727268,0.8147383328926928,jump
05/08/2020, 15:22:42,9.726824,-2.1296122,10.293923,-0.4701278,0.24422224,0.33580557,14.321704089727268,0.6272400014728748,jump
05/08/2020, 15:22:43,8.645268,-2.0937197,5.4628143,-0.31504667,0.5641534,-0.047623336,10.438710125726084,0.6479131220715906,jump
05/08/2020, 15:22:43,8.645268,-2.0937197,5.4628143,-0.41884112,0.63131446,-0.064718895,10.438710125726084,0.7603777778628251,jump
05/08/2020, 15:22:43,8.657232,-2.0554347,5.285745,-0.41884112,0.63131446,-0.064718895,10.349472661756275,0.7603777778628251,jump
05/08/2020, 15:22:43,8.657232,-2.0554347,5.285745,-0.54339445,0.6874856,-0.09280445,10.349472661756275,0.8812074707243591,jump
05/08/2020, 15:22:43,8.599805,-2.0554347,5.1421757,-0.54339445,0.6874856,-0.09280445,10.22855935272387,0.8812074707243591,jump
05/08/2020, 15:22:43,8.599805,-2.0554347,5.1421757,-0.67161113,0.7204556,-0.11844778,10.22855935272387,0.9920421562113261,jump
05/08/2020, 15:22:43,8.525627,-2.050649,5.0775695,-0.67161113,0.7204556,-0.11844778,10.1327780476395,0.9920421562113261,jump
05/08/2020, 15:22:43,8.525627,-2.050649,5.0775695,-0.77906895,0.7448778,-0.12821667,10.1327780476395,1.0854634483825147,jump
05/08/2020, 15:22:43,8.532805,-2.2588246,5.0799623,-0.77906895,0.7448778,-0.12821667,10.184157978782109,1.0854634483825147,jump
05/08/2020, 15:22:43,8.532805,-2.2588246,5.0799623,-0.82547116,0.7717422,-0.11478445,10.184157978782109,1.1358539394624703,jump
05/08/2020, 15:22:43,8.58784,-2.5842485,5.058427,-0.82547116,0.7717422,-0.11478445,10.296456674147446,1.1358539394624703,jump
05/08/2020, 15:22:43,8.58784,-2.5842485,5.058427,-0.7986067,0.7937223,-0.089141116,10.296456674147446,1.129475026158285,jump
05/08/2020, 15:22:43,8.630911,-3.0149565,5.0177493,-0.7986067,0.7937223,-0.089141116,10.428825110247853,1.129475026158285,jump
05/08/2020, 15:22:43,8.630911,-3.0149565,5.0177493,-0.7106867,0.81570226,-0.06227667,10.428825110247853,1.0836623653271522,jump
05/08/2020, 15:22:43,8.630911,-3.3667014,4.9459643,-0.7106867,0.81570226,-0.06227667,10.50189810460643,1.0836623653271522,jump
05/08/2020, 15:22:43,8.630911,-3.3667014,4.9459643,-0.6007867,0.82425004,-0.042738892,10.50189810460643,1.0208620804830408,jump
05/08/2020, 15:22:43,8.530413,-3.5533416,4.8622155,-0.6007867,0.82425004,-0.042738892,10.441997742752717,1.0208620804830408,jump
05/08/2020, 15:22:43,8.530413,-3.5533416,4.8622155,-0.4933289,0.8205867,-0.024422223,10.441997742752717,0.9577746860984192,jump
05/08/2020, 15:22:43,8.374879,-3.5940197,4.8191447,-0.4933289,0.8205867,-0.024422223,10.30920605351954,0.9577746860984192,jump
05/08/2020, 15:22:43,8.374879,-3.5940197,4.8191447,-0.40785113,0.7998278,0.0036633336,10.30920605351954,0.8978198573652774,jump
05/08/2020, 15:22:44,8.082955,-2.78046,3.9816568,1.2797245,-0.24300112,-0.09280445,9.429672067411468,1.3058931618951128,jump
05/08/2020, 15:22:44,8.082955,-2.78046,3.9816568,1.2821667,-0.2515489,-0.106236674,9.429672067411468,1.3109212674713926,jump
05/08/2020, 15:22:44,8.2145605,-2.184647,3.8380876,1.2821667,-0.2515489,-0.106236674,9.326446447530383,1.3109212674713926,jump
05/08/2020, 15:22:44,8.2145605,-2.184647,3.8380876,1.2162267,-0.24300112,-0.123332225,9.326446447530383,1.2463818674807519,jump
05/08/2020, 15:22:44,8.283952,-1.8065811,3.8404803,1.2162267,-0.24300112,-0.123332225,9.307893494857248,1.2463818674807519,jump
05/08/2020, 15:22:44,8.283952,-1.8065811,3.8404803,1.0953367,-0.23079,-0.10501556,9.307893494857248,1.1243018843121462,jump
05/08/2020, 15:22:44,8.262417,-1.6462619,3.940979,1.0953367,-0.23079,-0.10501556,9.301022840754115,1.1243018843121462,jump
05/08/2020, 15:22:44,8.262417,-1.6462619,3.940979,0.99398446,-0.24055889,-0.068382226,9.301022840754115,1.02496332517383,jump
05/08/2020, 15:22:44,8.176275,-1.6749759,4.0295134,0.99398446,-0.24055889,-0.068382226,9.267901547842238,1.02496332517383,jump
05/08/2020, 15:22:44,8.176275,-1.6749759,4.0295134,0.95735115,-0.26498112,-0.02075889,9.267901547842238,0.9935628549390421,jump
05/08/2020, 15:22:44,8.092526,-1.8089739,4.173083,0.95735115,-0.26498112,-0.02075889,9.283102445304984,0.9935628549390421,jump
05/08/2020, 15:22:44,8.092526,-1.8089739,4.173083,0.9365923,-0.31382558,0.0024422223,9.283102445304984,0.9877740420343439,jump
05/08/2020, 15:22:44,8.037491,-1.9405792,4.1898327,0.9365923,-0.31382558,0.0024422223,9.269401521425811,0.9877740420343439,jump
05/08/2020, 15:22:44,8.037491,-1.9405792,4.1898327,0.9060645,-0.3724389,-0.007326667,9.269401521425811,0.9796516303622441,jump
05/08/2020, 15:22:44,8.099705,-2.0315065,4.1467614,0.9060645,-0.3724389,-0.007326667,9.323511462042656,0.9796516303622441,jump
05/08/2020, 15:22:44,8.099705,-2.0315065,4.1467614,0.86943114,-0.42006224,0.0061055557,9.323511462042656,0.965608652811276,jump
05/08/2020, 15:22:44,8.23131,-2.1463618,4.089334,0.86943114,-0.42006224,0.0061055557,9.438431239762354,0.965608652811276,jump
05/08/2020, 15:22:44,8.23131,-2.1463618,4.089334,0.78761667,-0.4249467,0.04151778,9.438431239762354,0.8959036996989209,jump
05/08/2020, 15:22:44,8.374879,-2.2612174,4.0965123,0.78761667,-0.4249467,0.04151778,9.593389047127467,0.8959036996989209,jump
05/08/2020, 15:22:44,8.374879,-2.2612174,4.0965123,0.71557117,-0.41151446,0.070824444,9.593389047127467,0.8284940228244708,jump
05/08/2020, 15:22:45,9.104691,-0.97866446,3.9290147,0.11356334,0.014653334,-0.0024422223,9.96445334886192,0.11453085191465012,jump
05/08/2020, 15:22:45,9.104691,-0.97866446,3.9290147,0.070824444,0.02198,-0.008547778,9.96445334886192,0.07464775181758247,jump
05/08/2020, 15:22:45,8.920443,-1.038485,3.900301,0.070824444,0.02198,-0.008547778,9.791072197422672,0.07464775181758247,jump
05/08/2020, 15:22:45,8.920443,-1.038485,3.900301,0.057392225,0.018316668,-0.0036633336,9.791072197422672,0.06035551155326786,jump
05/08/2020, 15:22:45,8.784052,-1.2514462,3.900301,0.057392225,0.018316668,-0.0036633336,9.69216349106346,0.06035551155326786,jump
05/08/2020, 15:22:45,8.784052,-1.2514462,3.900301,0.07204556,-0.0012211112,0.0012211112,9.69216349106346,0.07206625102864023,jump
05/08/2020, 15:22:45,8.69791,-1.4955142,3.9601214,0.07204556,-0.0012211112,0.0012211112,9.673301803190645,0.07206625102864023,jump
05/08/2020, 15:22:45,8.69791,-1.4955142,3.9601214,0.117226675,-0.018316668,-0.0061055557,9.673301803190645,0.11880602462382354,jump
05/08/2020, 15:22:45,8.611769,-1.7180467,4.0677986,0.117226675,-0.018316668,-0.0061055557,9.67787323962957,0.11880602462382354,jump
05/08/2020, 15:22:45,8.611769,-1.7180467,4.0677986,0.19537778,-0.034191113,-0.012211111,9.67787323962957,0.19872247266234425,jump
05/08/2020, 15:22:45,8.499306,-1.8807586,4.1515474,0.19537778,-0.034191113,-0.012211111,9.644210541156712,0.19872247266234425,jump
05/08/2020, 15:22:45,8.499306,-1.8807586,4.1515474,0.28940335,-0.054950003,-0.02075889,9.644210541156712,0.2953044747161787,jump
05/08/2020, 15:22:45,8.396415,-1.9501505,4.2161536,0.28940335,-0.054950003,-0.02075889,9.59577089463028,0.2953044747161787,jump
05/08/2020, 15:22:45,8.396415,-1.9501505,4.2161536,0.38709223,-0.07204556,-0.02075889,9.59577089463028,0.39428655877464674,jump
05/08/2020, 15:22:45,8.389236,-1.98365,4.273581,0.38709223,-0.07204556,-0.02075889,9.621728026708608,0.39428655877464674,jump
05/08/2020, 15:22:45,8.389236,-1.98365,4.273581,0.4701278,-0.10135223,-0.018316668,9.621728026708608,0.48127737823866373,jump
05/08/2020, 15:22:45,8.506484,-1.9190438,4.319045,0.4701278,-0.10135223,-0.018316668,9.731246060894236,0.48127737823866373,jump
05/08/2020, 15:22:45,8.506484,-1.9190438,4.319045,0.48966557,-0.1306589,-0.0036633336,9.731246060894236,0.5068111434841737,jump
05/08/2020, 15:22:45,8.721839,-1.7994026,4.3070807,0.48966557,-0.1306589,-0.0036633336,9.892384390853417,0.5068111434841737,jump
05/08/2020, 15:22:45,8.721839,-1.7994026,4.3070807,0.39075556,-0.13432223,0.009768889,9.892384390853417,0.41331320131973875,jump
05/08/2020, 15:22:46,8.4682,-1.6845472,3.7471602,-1.2540811,0.18316667,-1.0037534,9.41218972524945,1.616722129638439,jump
05/08/2020, 15:22:46,8.4682,-1.6845472,3.7471602,-1.1930256,0.18438779,-0.96956223,9.41218972524945,1.5483409944489737,jump
05/08/2020, 15:22:46,8.252846,-2.2157538,3.65384,-1.1930256,0.18438779,-0.96956223,9.2935232986205,1.5483409944489737,jump
05/08/2020, 15:22:46,8.252846,-2.2157538,3.65384,-1.1075479,0.15386,-0.9133912,9.2935232986205,1.4438208475834564,jump
05/08/2020, 15:22:46,8.02792,-2.5818555,3.6107693,-1.1075479,0.15386,-0.9133912,9.173392423900788,1.4438208475834564,jump
05/08/2020, 15:22:46,8.02792,-2.5818555,3.6107693,-0.9878789,0.09402556,-0.8486723,9.173392423900788,1.3057527281120647,jump
05/08/2020, 15:22:46,7.905886,-2.7397819,3.7208393,-0.9878789,0.09402556,-0.8486723,9.157187647933851,1.3057527281120647,jump
05/08/2020, 15:22:46,7.905886,-2.7397819,3.7208393,-0.8621045,0.012211111,-0.7815111,9.157187647933851,1.1636721535822552,jump
05/08/2020, 15:22:46,7.8436728,-2.8019953,3.8787656,-0.8621045,0.012211111,-0.7815111,9.187992284998701,1.1636721535822552,jump
05/08/2020, 15:22:46,7.8436728,-2.8019953,3.8787656,-0.7888378,-0.05617111,-0.70458114,9.187992284998701,1.0591764906843,jump
05/08/2020, 15:22:46,7.8987074,-2.7445676,4.2017965,-0.7888378,-0.05617111,-0.70458114,9.358275696629297,1.0591764906843,jump
05/08/2020, 15:22:46,7.8987074,-2.7445676,4.2017965,-0.7619734,-0.08303556,-0.62154555,9.358275696629297,0.9868217732186085,jump
05/08/2020, 15:22:46,8.039884,-2.6799614,4.6971107,-0.7619734,-0.08303556,-0.62154555,9.689415376662742,0.9868217732186085,jump
05/08/2020, 15:22:46,8.039884,-2.6799614,4.6971107,-0.70458114,-0.06349778,-0.5238567,9.689415376662742,0.8802797253041577,jump
05/08/2020, 15:22:46,8.2456665,-2.8378878,5.1469617,-0.70458114,-0.06349778,-0.5238567,10.125998107967341,0.8802797253041577,jump
05/08/2020, 15:22:46,8.2456665,-2.8378878,5.1469617,-0.5580478,-0.039075557,-0.43227336,10.125998107967341,0.706968507445262,jump
05/08/2020, 15:22:46,8.413164,-3.1154552,5.575277,-0.5580478,-0.039075557,-0.43227336,10.562722357153223,0.706968507445262,jump
05/08/2020, 15:22:46,8.413164,-3.1154552,5.575277,-0.34679556,-0.025643334,-0.35290113,10.562722357153223,0.4954431838889844,jump
05/08/2020, 15:22:46,8.472985,-3.2997024,5.948557,-0.34679556,-0.025643334,-0.35290113,10.865764791589944,0.4954431838889844,jump
05/08/2020, 15:22:46,8.472985,-3.2997024,5.948557,-0.13798556,-0.026864445,-0.29184556,10.865764791589944,0.3239375608963942,jump
05/08/2020, 15:22:47,17.699709,-11.397015,2.5962126,3.8110878,-6.4975324,-4.397221,21.211128180957576,8.7222629371875,jump
05/08/2020, 15:22:47,17.699709,-11.397015,2.5962126,4.447287,-6.175159,-3.9796014,21.211128180957576,8.587675934875946,jump
05/08/2020, 15:22:47,18.350557,-12.435499,3.034099,4.447287,-6.175159,-3.9796014,22.373876546516275,8.587675934875946,jump
05/08/2020, 15:22:47,18.350557,-12.435499,3.034099,5.139657,-5.8808713,-3.52779,22.373876546516275,8.57006559271232,jump
05/08/2020, 15:22:47,18.403198,-13.205988,3.8069808,5.139657,-5.8808713,-3.52779,22.968868625507934,8.57006559271232,jump
05/08/2020, 15:22:47,18.403198,-13.205988,3.8069808,6.0261836,-5.656187,-3.1040645,22.968868625507934,8.828508202017254,jump
05/08/2020, 15:22:47,18.070597,-13.636696,4.7545385,6.0261836,-5.656187,-3.1040645,23.132478804271624,8.828508202017254,jump
05/08/2020, 15:22:47,18.070597,-13.636696,4.7545385,7.086108,-5.51698,-2.614399,23.132478804271624,9.353346013241515,jump
05/08/2020, 15:22:47,17.532211,-13.643875,5.7930236,7.086108,-5.51698,-2.614399,22.95850351864721,9.353346013241515,jump
05/08/2020, 15:22:47,17.532211,-13.643875,5.7930236,8.229068,-5.391206,-1.9806423,22.95850351864721,10.03521802137792,jump
05/08/2020, 15:22:47,17.036898,-13.143775,6.6735826,8.229068,-5.391206,-1.9806423,22.52890158987725,10.03521802137792,jump
05/08/2020, 15:22:47,17.036898,-13.143775,6.6735826,9.245032,-5.200712,-1.2650712,22.52890158987725,10.682623033427806,jump
05/08/2020, 15:22:47,16.577475,-11.959328,7.0348988,9.245032,-5.200712,-1.2650712,21.617770084706276,10.682623033427806,jump
05/08/2020, 15:22:47,16.577475,-11.959328,7.0348988,9.86902,-4.92352,-0.5788067,21.617770084706276,11.044167335429966,jump
05/08/2020, 15:22:47,16.287943,-9.738789,7.0468626,9.86902,-4.92352,-0.5788067,20.24350166081913,11.044167335429966,jump
05/08/2020, 15:22:47,16.287943,-9.738789,7.0468626,9.853146,-4.515669,-0.025643334,20.24350166081913,10.838653104398249,jump
05/08/2020, 15:22:47,16.08216,-6.606583,7.0085773,9.853146,-4.515669,-0.025643334,18.74574612383364,10.838653104398249,jump
05/08/2020, 15:22:47,16.08216,-6.606583,7.0085773,9.1363535,-3.91244,0.3944189,18.74574612383364,9.946643084203933,jump
05/08/2020, 15:22:47,16.041483,-3.0245278,7.125826,9.1363535,-3.91244,0.3944189,17.81163488531388,9.946643084203933,jump
05/08/2020, 15:22:47,16.041483,-3.0245278,7.125826,7.8077846,-3.118718,0.67283225,17.81163488531388,8.434488978376626,jump
05/08/2020, 15:22:48,9.119047,0.011964113,7.32443,-1.29682,0.26620224,0.0,11.696342975379906,1.3238602120590033,jump
05/08/2020, 15:22:48,8.853444,-1.8855443,6.9535427,-1.29682,0.26620224,0.0,11.414486670016757,1.3238602120590033,jump
05/08/2020, 15:22:48,8.853444,-1.8855443,6.9535427,-0.9170545,0.28574002,0.026864445,11.414486670016757,0.960915170633191,jump
05/08/2020, 15:22:48,8.642876,-3.2303107,6.795616,-0.9170545,0.28574002,0.026864445,11.459258519091764,0.960915170633191,jump
05/08/2020, 15:22:48,8.642876,-3.2303107,6.795616,-0.36633334,0.20636779,0.01099,11.459258519091764,0.42060499039471383,jump
05/08/2020, 15:22:48,8.568698,-3.8787656,6.7118673,-0.36633334,0.20636779,0.01099,11.554937028893196,0.42060499039471383,jump
05/08/2020, 15:22:48,8.568698,-3.8787656,6.7118673,0.23933779,0.054950003,-0.01099,11.554937028893196,0.24581061651671243,jump
05/08/2020, 15:22:48,8.640483,-4.125226,6.580262,0.23933779,0.054950003,-0.01099,11.617886422396921,0.24581061651671243,jump
05/08/2020, 15:22:48,8.640483,-4.125226,6.580262,0.72778225,-0.04151778,0.02198,11.617886422396921,0.7292968182000954,jump
05/08/2020, 15:22:48,8.829515,-4.199404,6.4199433,0.72778225,-0.04151778,0.02198,11.696623767822722,0.7292968182000954,jump
05/08/2020, 15:22:48,8.829515,-4.199404,6.4199433,1.0025322,0.007326667,0.102573335,11.696623767822722,1.0077925723361147,jump
05/08/2020, 15:22:48,8.961121,-4.031906,6.04427,1.0025322,0.007326667,0.102573335,11.53651376412166,1.0077925723361147,jump
05/08/2020, 15:22:48,8.961121,-4.031906,6.04427,1.1185378,0.11112112,0.16729222,11.53651376412166,1.1364248166691737,jump
05/08/2020, 15:22:48,8.944371,-3.8093736,5.532206,1.1185378,0.11112112,0.16729222,11.18563399239451,1.1364248166691737,jump
05/08/2020, 15:22:48,8.944371,-3.8093736,5.532206,1.0831256,0.16851334,0.15996556,11.18563399239451,1.1077665699493089,jump
05/08/2020, 15:22:48,8.82473,-3.574877,5.1014977,1.0831256,0.16851334,0.15996556,10.801892526772916,1.1077665699493089,jump
05/08/2020, 15:22:48,8.82473,-3.574877,5.1014977,0.88286334,0.13554333,0.054950003,10.801892526772916,0.8948961836390227,jump
05/08/2020, 15:22:48,8.673982,-3.17049,4.85743,0.88286334,0.13554333,0.054950003,10.434777955588912,0.8948961836390227,jump
05/08/2020, 15:22:48,8.673982,-3.17049,4.85743,0.67283225,0.15141778,-0.051286668,10.434777955588912,0.6915640988997362,jump
05/08/2020, 15:22:48,8.573483,-2.7637103,4.8909297,0.67283225,0.15141778,-0.051286668,10.250068608749764,0.6915640988997362,jump
05/08/2020, 15:22:49,8.5423765,-2.9671001,4.220939,0.07937223,-0.035412222,-0.007326667,9.979589532039803,0.08722187786909026,jump
05/08/2020, 15:22:49,8.573483,-2.914458,4.15394,0.07937223,-0.035412222,-0.007326667,9.962625336657533,0.08722187786909026,jump
05/08/2020, 15:22:49,8.573483,-2.914458,4.15394,0.09646778,-0.02198,-0.0036633336,9.962625336657533,0.09900794236341566,jump
05/08/2020, 15:22:49,8.623733,-2.9048867,4.115655,0.09646778,-0.02198,-0.0036633336,9.987279203295307,0.09900794236341566,jump
05/08/2020, 15:22:49,8.623733,-2.9048867,4.115655,0.102573335,-0.017095556,0.0,9.987279203295307,0.10398820673279456,jump
05/08/2020, 15:22:49,8.611769,-2.8666015,4.0845485,0.102573335,-0.017095556,0.0,9.95306489142902,0.10398820673279456,jump
05/08/2020, 15:22:49,8.611769,-2.8666015,4.0845485,0.098910004,-0.013432222,-0.007326667,9.95306489142902,0.10008643026363997,jump
05/08/2020, 15:22:49,8.640483,-2.8426733,4.0295134,0.098910004,-0.013432222,-0.007326667,9.948653888841482,0.10008643026363997,jump
05/08/2020, 15:22:49,8.640483,-2.8426733,4.0295134,0.09524667,-0.015874445,-0.007326667,9.948653888841482,0.09683804375005738,jump
05/08/2020, 15:22:49,8.633304,-2.7708886,4.005585,0.09524667,-0.015874445,-0.007326667,9.912440061544544,0.09683804375005738,jump
05/08/2020, 15:22:49,8.633304,-2.7708886,4.005585,0.07693,-0.01099,-0.018316668,9.912440061544544,0.07984050055312081,jump
05/08/2020, 15:22:49,8.671589,-2.7493532,3.9744785,0.07693,-0.01099,-0.018316668,9.927329755769312,0.07984050055312081,jump
05/08/2020, 15:22:49,8.671589,-2.7493532,3.9744785,0.057392225,-0.0024422223,-0.018316668,9.927329755769312,0.06029371618725908,jump
05/08/2020, 15:22:49,8.71466,-2.7038896,3.9553359,0.057392225,-0.0024422223,-0.018316668,9.944897901509428,0.06029371618725908,jump
05/08/2020, 15:22:49,8.71466,-2.7038896,3.9553359,0.04151778,0.0024422223,-0.023201112,9.944897901509428,0.0476233348942911,jump
05/08/2020, 15:22:49,8.736196,-2.6632116,3.9481573,0.04151778,0.0024422223,-0.023201112,9.94996256410804,0.0476233348942911,jump
05/08/2020, 15:22:49,8.736196,-2.6632116,3.9481573,0.02198,0.009768889,-0.02075889,9.94996256410804,0.03177236416999237,jump
05/08/2020, 15:22:49,8.750552,-2.6656044,3.9242291,0.02198,0.009768889,-0.02075889,9.953752275360419,0.03177236416999237,jump
05/08/2020, 15:22:49,8.750552,-2.6656044,3.9242291,0.0036633336,0.018316668,-0.014653334,9.953752275360419,0.02374111478453608,jump
05/08/2020, 15:22:49,8.724232,-2.6416762,3.9338005,0.0036633336,0.018316668,-0.014653334,9.928013811127256,0.02374111478453608,jump
05/08/2020, 15:22:50,8.571091,-2.7900312,4.1108694,-0.15630223,0.13676445,0.042738892,9.906922686263565,0.21204130458491283,jump
05/08/2020, 15:22:50,8.571091,-2.7900312,4.1108694,-0.17950334,0.13188,0.039075557,9.906922686263565,0.2261430552985824,jump
05/08/2020, 15:22:50,8.556734,-2.8354948,4.1180477,-0.17950334,0.13188,0.039075557,9.910400884666046,0.2261430552985824,jump
05/08/2020, 15:22:50,8.556734,-2.8354948,4.1180477,-0.17706113,0.13188,0.025643334,9.910400884666046,0.22226236127863344,jump
05/08/2020, 15:22:50,8.539984,-2.9072795,4.182654,-0.17706113,0.13188,0.025643334,9.943751312327699,0.22226236127863344,jump
05/08/2020, 15:22:50,8.539984,-2.9072795,4.182654,-0.15874445,0.11844778,0.02198,9.943751312327699,0.19928070392755265,jump
05/08/2020, 15:22:50,8.487342,-2.9838498,4.2281175,-0.15874445,0.11844778,0.02198,9.94058896247939,0.19928070392755265,jump
05/08/2020, 15:22:50,8.487342,-2.9838498,4.2281175,-0.12699556,0.09646778,0.009768889,9.94058896247939,0.15977902414689205,jump
05/08/2020, 15:22:50,8.444271,-3.062813,4.273581,-0.12699556,0.09646778,0.009768889,9.947363105085898,0.15977902414689205,jump
05/08/2020, 15:22:50,8.444271,-3.062813,4.273581,-0.098910004,0.070824444,0.008547778,9.947363105085898,0.12195226645706919,jump
05/08/2020, 15:22:50,8.382058,-3.0843484,4.319045,-0.098910004,0.070824444,0.008547778,9.921000670934072,0.12195226645706919,jump
05/08/2020, 15:22:50,8.382058,-3.0843484,4.319045,-0.07570889,0.05250778,0.0036633336,9.921000670934072,0.09220804096615284,jump
05/08/2020, 15:22:50,8.362915,-3.1345978,4.3788652,-0.07570889,0.05250778,0.0036633336,9.94678400238301,0.09220804096615284,jump
05/08/2020, 15:22:50,8.362915,-3.1345978,4.3788652,-0.046402223,0.045181114,-0.012211111,9.94678400238301,0.0659060745377458,jump
05/08/2020, 15:22:50,8.34138,-3.141776,4.426722,-0.046402223,0.045181114,-0.012211111,9.952147877122535,0.0659060745377458,jump
05/08/2020, 15:22:50,8.34138,-3.141776,4.426722,-0.014653334,0.03174889,-0.015874445,9.952147877122535,0.038401956965062975,jump
05/08/2020, 15:22:50,8.331808,-3.0939198,4.4554358,-0.014653334,0.03174889,-0.015874445,9.941945143903936,0.038401956965062975,jump
05/08/2020, 15:22:50,8.331808,-3.0939198,4.4554358,0.0,0.0048844446,-0.02075889,9.941945143903936,0.021325789493913054,jump
05/08/2020, 15:22:50,8.310273,-3.0388846,4.4434714,0.0,0.0048844446,-0.02075889,9.90150990435908,0.021325789493913054,jump
05/08/2020, 15:22:50,8.310273,-3.0388846,4.4434714,-0.01099,-0.018316668,-0.034191113,9.90150990435908,0.04031516615808092,jump
05/08/2020, 15:22:51,7.879565,-3.4719856,3.65384,0.24422224,-0.13554333,-0.20636779,9.353757101751029,0.3472810988366468,jump
05/08/2020, 15:22:51,7.865208,-3.507878,3.7064822,0.24422224,-0.13554333,-0.20636779,9.375751587874353,0.3472810988366468,jump
05/08/2020, 15:22:51,7.865208,-3.507878,3.7064822,0.25399113,-0.16240779,-0.19782001,9.375751587874353,0.36058360601861916,jump
05/08/2020, 15:22:51,7.9011,-3.5772698,3.8069808,0.25399113,-0.16240779,-0.19782001,9.471924095231639,0.36058360601861916,jump
05/08/2020, 15:22:51,7.9011,-3.5772698,3.8069808,0.29062447,-0.17339778,-0.17950334,9.471924095231639,0.38308069650982585,jump
05/08/2020, 15:22:51,7.941778,-3.6466618,3.9218364,0.29062447,-0.17339778,-0.17950334,9.57866291554637,0.38308069650982585,jump
05/08/2020, 15:22:51,7.941778,-3.6466618,3.9218364,0.33580557,-0.17217667,-0.15386,9.57866291554637,0.4075329251550688,jump
05/08/2020, 15:22:51,8.001599,-3.6849468,4.0941195,0.33580557,-0.17217667,-0.15386,9.714228696335185,0.4075329251550688,jump
05/08/2020, 15:22:51,8.001599,-3.6849468,4.0941195,0.37732336,-0.16607112,-0.12089001,9.714228696335185,0.42961253120213805,jump
05/08/2020, 15:22:51,8.109276,-3.6993039,4.314259,0.37732336,-0.16607112,-0.12089001,9.902425690166282,0.42961253120213805,jump
05/08/2020, 15:22:51,8.109276,-3.6993039,4.314259,0.40907225,-0.15019667,-0.08303556,9.902425690166282,0.4436147539466859,jump
05/08/2020, 15:22:51,8.212168,-3.7256248,4.6707897,0.40907225,-0.15019667,-0.08303556,10.155602184593635,0.4436147539466859,jump
05/08/2020, 15:22:51,8.212168,-3.7256248,4.6707897,0.37854445,-0.109900005,-0.037854444,10.155602184593635,0.3959884727640787,jump
05/08/2020, 15:22:51,8.367701,-3.7710886,5.1254263,0.37854445,-0.109900005,-0.037854444,10.51235068155324,0.3959884727640787,jump
05/08/2020, 15:22:51,8.367701,-3.7710886,5.1254263,0.26864445,-0.05250778,0.024422223,10.51235068155324,0.27481512625334215,jump
05/08/2020, 15:22:51,8.516056,-3.8787656,5.65424,0.26864445,-0.05250778,0.024422223,10.933364749334284,0.27481512625334215,jump
05/08/2020, 15:22:51,8.516056,-3.8787656,5.65424,0.11478445,0.048844445,0.09280445,10.933364749334284,0.15547962893843476,jump
05/08/2020, 15:22:51,8.712267,-4.017549,6.352944,0.11478445,0.048844445,0.09280445,11.506702018992904,0.15547962893843476,jump
05/08/2020, 15:22:51,8.712267,-4.017549,6.352944,-0.051286668,0.16973445,0.16851334,11.506702018992904,0.24461572283214128,jump
05/08/2020, 15:22:51,8.891729,-4.1515474,7.094719,-0.051286668,0.16973445,0.16851334,12.1092210211686,0.24461572283214128,jump
05/08/2020, 15:22:52,9.65504,5.2546387,9.078369,-1.8988279,-0.7766267,0.52996224,14.256500521503073,2.1188573457504734,jump
05/08/2020, 15:22:52,9.65504,5.2546387,9.078369,-2.5179312,-0.68504333,0.45303226,14.256500521503073,2.648490180902091,jump
05/08/2020, 15:22:52,9.19801,4.733003,9.152547,-2.5179312,-0.68504333,0.45303226,13.81208996846363,2.648490180902091,jump
05/08/2020, 15:22:52,9.19801,4.733003,9.152547,-3.1297078,-0.5739222,0.39075556,13.81208996846363,3.20579906079881,jump
05/08/2020, 15:22:52,8.9826565,3.938586,9.18126,-3.1297078,-0.5739222,0.39075556,13.434884229444846,3.20579906079881,jump
05/08/2020, 15:22:52,8.9826565,3.938586,9.18126,-3.6486802,-0.43960002,0.3858711,13.434884229444846,3.6952688629070827,jump
05/08/2020, 15:22:52,9.013762,2.806781,9.202796,-3.6486802,-0.43960002,0.3858711,13.183982240364957,3.6952688629070827,jump
05/08/2020, 15:22:52,9.013762,2.806781,9.202796,-3.997918,-0.24788557,0.42983112,13.183982240364957,4.028591503841891,jump
05/08/2020, 15:22:52,9.169296,1.4117653,9.3511505,-3.997918,-0.24788557,0.42983112,13.172436800634312,4.028591503841891,jump
05/08/2020, 15:22:52,9.169296,1.4117653,9.3511505,-4.131019,-0.019537779,0.48478112,13.172436800634312,4.159412625318401,jump
05/08/2020, 15:22:52,9.303294,-0.11724831,9.513863,-4.131019,-0.019537779,0.48478112,13.30708877100818,4.159412625318401,jump
05/08/2020, 15:22:52,9.303294,-0.11724831,9.513863,-4.0589733,0.18316667,0.48966557,13.30708877100818,4.092503725979788,jump
05/08/2020, 15:22:52,9.360723,-1.6007984,9.678967,-4.0589733,0.18316667,0.48966557,13.559796949826925,4.092503725979788,jump
05/08/2020, 15:22:52,9.360723,-1.6007984,9.678967,-3.8196356,0.34191114,0.46035892,13.559796949826925,3.8624409253884506,jump
05/08/2020, 15:22:52,9.317652,-3.0005996,9.923036,-3.8196356,0.34191114,0.46035892,13.938754182263146,3.8624409253884506,jump
05/08/2020, 15:22:52,9.317652,-3.0005996,9.923036,-3.4166691,0.48111778,0.41884112,13.938754182263146,3.475705706175601,jump
05/08/2020, 15:22:52,9.195618,-4.1084766,10.152746,-3.4166691,0.48111778,0.41884112,14.300951721604847,3.475705706175601,jump
05/08/2020, 15:22:52,9.195618,-4.1084766,10.152746,-2.867169,0.59468114,0.37732336,14.300951721604847,2.9524017512057856,jump
05/08/2020, 15:22:52,9.049655,-4.924429,10.131211,-2.867169,0.59468114,0.37732336,14.449487786994307,2.9524017512057856,jump
05/08/2020, 15:22:52,9.049655,-4.924429,10.131211,-2.1943367,0.6471889,0.3370267,14.449487786994307,2.3124778500765224,jump
05/08/2020, 15:22:53,8.3174515,-2.0434706,5.831309,-0.27475002,0.3809867,-0.10013112,10.361463895597982,0.4802756236158037,jump
05/08/2020, 15:22:53,8.3174515,-2.0434706,5.831309,-0.34435335,0.42372558,-0.11234222,10.361463895597982,0.5574435994455422,jump
05/08/2020, 15:22:53,8.372486,-1.942972,5.733203,-0.34435335,0.42372558,-0.11234222,10.331663931879952,0.5574435994455422,jump
05/08/2020, 15:22:53,8.372486,-1.942972,5.733203,-0.4371578,0.47623336,-0.12577444,10.331663931879952,0.658577540871194,jump
05/08/2020, 15:22:53,8.386844,-1.8807586,5.599205,-0.4371578,0.47623336,-0.12577444,10.258045468428433,0.658577540871194,jump
05/08/2020, 15:22:53,8.386844,-1.8807586,5.599205,-0.5421733,0.52019334,-0.15141778,10.258045468428433,0.7664726791781166,jump
05/08/2020, 15:22:53,8.386844,-1.8496519,5.4795637,-0.5421733,0.52019334,-0.15141778,10.187540316140698,0.7664726791781166,jump
05/08/2020, 15:22:53,8.386844,-1.8496519,5.4795637,-0.6459678,0.56659555,-0.18194556,10.187540316140698,0.878298972256731,jump
05/08/2020, 15:22:53,8.34138,-1.7874385,5.4053864,-0.6459678,0.56659555,-0.18194556,10.099097057653191,0.878298972256731,jump
05/08/2020, 15:22:53,8.34138,-1.7874385,5.4053864,-0.7216767,0.6007867,-0.19171445,10.099097057653191,0.9583925826265802,jump
05/08/2020, 15:22:53,8.315059,-1.820938,5.3479586,-0.7216767,0.6007867,-0.19171445,10.0526950266393,0.9583925826265802,jump
05/08/2020, 15:22:53,8.315059,-1.820938,5.3479586,-0.7631945,0.6203245,-0.1856089,10.0526950266393,1.000859123104635,jump
05/08/2020, 15:22:53,8.34138,-1.9286151,5.288138,-0.7631945,0.6203245,-0.1856089,10.062931037086306,1.000859123104635,jump
05/08/2020, 15:22:53,8.34138,-1.9286151,5.288138,-0.7815111,0.6337567,-0.18194556,10.062931037086306,1.022502509527012,jump
05/08/2020, 15:22:53,8.398808,-2.0745773,5.211568,-0.7815111,0.6337567,-0.18194556,10.099716763936996,1.022502509527012,jump
05/08/2020, 15:22:53,8.398808,-2.0745773,5.211568,-0.7888378,0.66306335,-0.1856089,10.099716763936996,1.0470762740530117,jump
05/08/2020, 15:22:53,8.437093,-2.2157538,5.13739,-0.7888378,0.66306335,-0.1856089,10.1235802405846,1.0470762740530117,jump
05/08/2020, 15:22:53,8.437093,-2.2157538,5.13739,-0.78029,0.70458114,-0.18438779,10.1235802405846,1.0673733823237197,jump
05/08/2020, 15:22:53,8.398808,-2.321038,5.0177493,-0.78029,0.70458114,-0.18438779,10.055097882139304,1.0673733823237197,jump
05/08/2020, 15:22:53,8.398808,-2.321038,5.0177493,-0.75831,0.7228978,-0.18438779,10.055097882139304,1.0637735717721077,jump
05/08/2020, 15:22:54,8.334201,-2.3904297,4.54397,-0.16485001,0.21247335,0.015874445,9.788805985454053,0.2693927389836398,jump
05/08/2020, 15:22:54,8.248059,-2.3808584,4.517649,-0.16485001,0.21247335,0.015874445,9.700934112054531,0.2693927389836398,jump
05/08/2020, 15:22:54,8.248059,-2.3808584,4.517649,-0.14409111,0.18927222,0.02075889,9.700934112054531,0.23878265403374635,jump
05/08/2020, 15:22:54,8.190632,-2.3952155,4.4889355,-0.14409111,0.18927222,0.02075889,9.64230518996924,0.23878265403374635,jump
05/08/2020, 15:22:54,8.190632,-2.3952155,4.4889355,-0.11844778,0.14897557,0.025643334,9.64230518996924,0.19204472544971482,jump
05/08/2020, 15:22:54,8.200203,-2.400001,4.493721,-0.11844778,0.14897557,0.025643334,9.653852175380614,0.19204472544971482,jump
05/08/2020, 15:22:54,8.200203,-2.400001,4.493721,-0.09402556,0.11966889,0.019537779,9.653852175380614,0.15343785304856325,jump
05/08/2020, 15:22:54,8.274381,-2.3808584,4.508078,-0.09402556,0.11966889,0.019537779,9.718880113718003,0.15343785304856325,jump
05/08/2020, 15:22:54,8.274381,-2.3808584,4.508078,-0.08669889,0.10745778,0.01099,9.718880113718003,0.13850867095765793,jump
05/08/2020, 15:22:54,8.327023,-2.3641088,4.5224347,-0.08669889,0.10745778,0.01099,9.766305889716039,0.13850867095765793,jump
05/08/2020, 15:22:54,8.327023,-2.3641088,4.5224347,-0.07448778,0.10135223,0.017095556,9.766305889716039,0.12693684389485807,jump
05/08/2020, 15:22:54,8.348558,-2.3641088,4.4913282,-0.07448778,0.10135223,0.017095556,9.770336103100915,0.12693684389485807,jump
05/08/2020, 15:22:54,8.348558,-2.3641088,4.4913282,-0.064718895,0.09524667,0.007326667,9.770336103100915,0.11538693177927536,jump
05/08/2020, 15:22:54,8.276773,-2.3545375,4.465007,-0.064718895,0.09524667,0.007326667,9.694591870881432,0.11538693177927536,jump
05/08/2020, 15:22:54,8.276773,-2.3545375,4.465007,-0.05250778,0.07448778,0.0024422223,9.694591870881432,0.09116721604036969,jump
05/08/2020, 15:22:54,8.23131,-2.3545375,4.4482574,-0.05250778,0.07448778,0.0024422223,9.648072533092106,0.09116721604036969,jump
05/08/2020, 15:22:54,8.23131,-2.3545375,4.4482574,-0.04029667,0.042738892,0.0,9.648072533092106,0.058740399370931326,jump
05/08/2020, 15:22:54,8.216953,-2.3904297,4.421936,-0.04029667,0.042738892,0.0,9.632548665017284,0.058740399370931326,jump
05/08/2020, 15:22:54,8.216953,-2.3904297,4.421936,-0.02198,0.013432222,-0.0024422223,9.632548665017284,0.025874881216591473,jump
05/08/2020, 15:22:54,8.23131,-2.3856442,4.4434714,-0.02198,0.013432222,-0.0024422223,9.653507089085508,0.025874881216591473,jump
05/08/2020, 15:22:55,8.367701,-2.9503503,4.618148,-0.97078335,0.078151114,-0.07693,10.002513149662919,0.9769575937318508,jump
05/08/2020, 15:22:55,8.348558,-2.9072795,4.56072,-0.97078335,0.078151114,-0.07693,9.947405111301839,0.9769575937318508,jump
05/08/2020, 15:22:55,8.348558,-2.9072795,4.56072,-1.0074167,0.089141116,-0.078151114,9.947405111301839,1.0143678786684218,jump
05/08/2020, 15:22:55,8.276773,-2.8785655,4.4602213,-1.0074167,0.089141116,-0.078151114,9.832837452846274,1.0143678786684218,jump
05/08/2020, 15:22:55,8.276773,-2.8785655,4.4602213,-1.0623667,0.08792,-0.07937223,9.832837452846274,1.0689494532513397,jump
05/08/2020, 15:22:55,8.209774,-2.926422,4.3932223,-1.0623667,0.08792,-0.07937223,9.760365684413554,1.0689494532513397,jump
05/08/2020, 15:22:55,8.209774,-2.926422,4.3932223,-1.1087689,0.08303556,-0.08059334,9.760365684413554,1.1147909008795658,jump
05/08/2020, 15:22:55,8.19781,-3.0197423,4.345366,-1.1087689,0.08303556,-0.08059334,9.75731215940063,1.1147909008795658,jump
05/08/2020, 15:22:55,8.19781,-3.0197423,4.345366,-1.130749,0.07570889,-0.078151114,9.75731215940063,1.1359721407264096,jump
05/08/2020, 15:22:55,8.238488,-3.1058838,4.3118663,-1.130749,0.07570889,-0.078151114,9.803641824899472,1.1359721407264096,jump
05/08/2020, 15:22:55,8.238488,-3.1058838,4.3118663,-1.1246433,0.06960334,-0.07693,9.803641824899472,1.1294181954301066,jump
05/08/2020, 15:22:55,8.295917,-3.1800613,4.2927237,-1.1246433,0.06960334,-0.07693,9.867243690026621,1.1294181954301066,jump
05/08/2020, 15:22:55,8.295917,-3.1800613,4.2927237,-1.1148745,0.06349778,-0.08059334,9.867243690026621,1.1195858009620998,jump
05/08/2020, 15:22:55,8.312666,-3.2327034,4.2687955,-1.1148745,0.06349778,-0.08059334,9.888043362317788,1.1195858009620998,jump
05/08/2020, 15:22:55,8.312666,-3.2327034,4.2687955,-1.1002212,0.059834447,-0.089141116,9.888043362317788,1.105446920468306,jump
05/08/2020, 15:22:55,8.3581295,-3.3092737,4.237689,-1.1002212,0.059834447,-0.089141116,9.938190455464504,1.105446920468306,jump
05/08/2020, 15:22:55,8.3581295,-3.3092737,4.237689,-1.1002212,0.06349778,-0.08669889,9.938190455464504,1.1054570368140229,jump
05/08/2020, 15:22:55,8.394022,-3.3762727,4.2592244,-1.1002212,0.06349778,-0.08669889,9.999990747405189,1.1054570368140229,jump
05/08/2020, 15:22:55,8.394022,-3.3762727,4.2592244,-1.1124322,0.06960334,-0.08303556,9.999990747405189,1.117696300674421,jump
05/08/2020, 15:22:55,8.451449,-3.426522,4.2257247,-1.1124322,0.06960334,-0.08303556,10.051109352140575,1.117696300674421,jump
05/08/2020, 15:22:56,8.846265,-11.062019,1.995614,-2.3591866,-0.08669889,1.1991311,14.304095536150408,2.647865897957951,jump
05/08/2020, 15:22:56,8.939586,-12.059826,1.9262222,-2.3591866,-0.08669889,1.1991311,15.134924013266422,2.647865897957951,jump
05/08/2020, 15:22:56,8.939586,-12.059826,1.9262222,-2.471529,-0.07326667,1.5215045,15.134924013266422,2.9032395088474323,jump
05/08/2020, 15:22:56,9.107083,-12.993027,1.5314065,-2.471529,-0.07326667,1.5215045,15.940605893079537,2.9032395088474323,jump
05/08/2020, 15:22:56,9.107083,-12.993027,1.5314065,-2.4739711,-0.102573335,1.8512045,15.940605893079537,3.091603562567214,jump
05/08/2020, 15:22:56,9.367901,-14.093725,0.9954142,-2.4739711,-0.102573335,1.8512045,16.952330396401738,3.091603562567214,jump
05/08/2020, 15:22:56,9.367901,-14.093725,0.9954142,-2.3823879,-0.15996556,2.2688246,16.952330396401738,3.2937707778750216,jump
05/08/2020, 15:22:56,9.7196455,-15.364314,0.44745782,-2.3823879,-0.15996556,2.2688246,18.186090131663057,3.2937707778750216,jump
05/08/2020, 15:22:56,9.7196455,-15.364314,0.44745782,-2.2602768,-0.23445335,2.757269,18.186090131663057,3.573003131671139,jump
05/08/2020, 15:22:56,10.1599245,-16.338194,0.019142581,-2.2602768,-0.23445335,2.757269,19.239568917432077,3.573003131671139,jump
05/08/2020, 15:22:56,10.1599245,-16.338194,0.019142581,-2.1125224,-0.3309211,3.2481556,19.239568917432077,3.8888011368970394,jump
05/08/2020, 15:22:56,10.794023,-16.838293,-0.27517462,-2.1125224,-0.3309211,3.2481556,20.002868739186837,3.8888011368970394,jump
05/08/2020, 15:22:56,10.794023,-16.838293,-0.27517462,-1.944009,-0.42250445,3.668218,20.002868739186837,4.17294899813575,jump
05/08/2020, 15:22:56,11.399407,-16.977077,-0.3278167,-1.944009,-0.42250445,3.668218,20.451775288650538,4.17294899813575,jump
05/08/2020, 15:22:56,11.399407,-16.977077,-0.3278167,-1.7681689,-0.46646446,4.0150137,20.451775288650538,4.41184149910208,jump
05/08/2020, 15:22:56,11.767901,-17.120646,-0.41874397,-1.7681689,-0.46646446,4.0150137,20.779204832769867,4.41184149910208,jump
05/08/2020, 15:22:56,11.767901,-17.120646,-0.41874397,-1.6228567,-0.4921078,4.3764625,20.779204832769867,4.693533609278309,jump
05/08/2020, 15:22:56,11.79183,-17.345572,-0.7178468,-1.6228567,-0.4921078,4.3764625,20.98645781353867,4.693533609278309,jump
05/08/2020, 15:22:56,11.79183,-17.345572,-0.7178468,-1.4995245,-0.5262989,4.708605,20.98645781353867,4.96955968287948,jump
05/08/2020, 15:22:56,11.62194,-17.625532,-0.997807,-1.4995245,-0.5262989,4.708605,21.135857774911802,4.96955968287948,jump
05/08/2020, 15:22:57,8.310273,-10.834701,5.2259245,-0.19293556,-0.57270116,0.43105224,14.62059040246181,0.7423050415750871,jump
05/08/2020, 15:22:57,8.310273,-10.834701,5.2259245,0.12821667,-0.46280113,0.56171113,14.62059040246181,0.7390154228847633,jump
05/08/2020, 15:22:57,8.018349,-10.143175,5.0823555,0.12821667,-0.46280113,0.56171113,13.892741083600418,0.7390154228847633,jump
05/08/2020, 15:22:57,8.018349,-10.143175,5.0823555,0.37976557,-0.3602278,0.6667267,13.892741083600418,0.8476499602839932,jump
05/08/2020, 15:22:57,7.9106717,-9.339187,4.867001,0.37976557,-0.3602278,0.6667267,13.171440081915614,0.8476499602839932,jump
05/08/2020, 15:22:57,7.9106717,-9.339187,4.867001,0.52141446,-0.24544334,0.74976224,13.171440081915614,0.9456526239087221,jump
05/08/2020, 15:22:57,7.9369926,-8.5112705,4.5726843,0.52141446,-0.24544334,0.74976224,12.503880188398385,0.9456526239087221,jump
05/08/2020, 15:22:57,7.9369926,-8.5112705,4.5726843,0.5556056,-0.109900005,0.80227005,12.503880188398385,0.982045225033893,jump
05/08/2020, 15:22:57,8.003992,-7.7910304,4.287938,0.5556056,-0.109900005,0.80227005,11.964550026365684,0.982045225033893,jump
05/08/2020, 15:22:57,8.003992,-7.7910304,4.287938,0.5018767,0.035412222,0.81936556,11.964550026365684,0.961506204835327,jump
05/08/2020, 15:22:57,8.047063,-7.2861447,4.072584,0.5018767,0.035412222,0.81936556,11.59435499063838,0.961506204835327,jump
05/08/2020, 15:22:57,8.047063,-7.2861447,4.072584,0.39075556,0.17584,0.8486723,11.59435499063838,0.9507124914586088,jump
05/08/2020, 15:22:57,8.094919,-6.95115,3.9098723,0.39075556,0.17584,0.8486723,11.36368354791967,0.9507124914586088,jump
05/08/2020, 15:22:57,8.094919,-6.95115,3.9098723,0.22712667,0.30772,0.89385337,11.36368354791967,0.9722406944263181,jump
05/08/2020, 15:22:57,8.161918,-6.666404,3.7830527,0.22712667,0.30772,0.89385337,11.196844517659184,0.9722406944263181,jump
05/08/2020, 15:22:57,8.161918,-6.666404,3.7830527,0.05617111,0.43960002,0.9463611,11.196844517659184,1.044989353985881,jump
05/08/2020, 15:22:57,8.346166,-6.4199433,3.6083765,0.05617111,0.43960002,0.9463611,11.130792180113165,1.044989353985881,jump
05/08/2020, 15:22:57,8.346166,-6.4199433,3.6083765,-0.07326667,0.56171113,0.9952056,11.130792180113165,1.145129490573414,jump
05/08/2020, 15:22:57,8.592627,-6.195018,3.3236306,-0.07326667,0.56171113,0.9952056,11.102161829954152,1.145129490573414,jump
05/08/2020, 15:22:57,8.592627,-6.195018,3.3236306,-0.17706113,0.66306335,1.0379444,11.102161829954152,1.2443200139724047,jump
05/08/2020, 15:22:58,7.7647095,-5.7523456,1.4285151,0.41029334,0.04396,-0.06227667,9.768359533892193,0.417314618252771,jump
05/08/2020, 15:22:58,7.7647095,-5.7523456,1.4285151,0.48966557,0.03297,-0.06716111,9.768359533892193,0.4953483666761184,jump
05/08/2020, 15:22:58,7.8580294,-5.6949177,1.4189439,0.48966557,0.03297,-0.06716111,9.8078598388537,0.4953483666761184,jump
05/08/2020, 15:22:58,7.8580294,-5.6949177,1.4189439,0.53851,0.04151778,-0.091583334,9.8078598388537,0.5478177430318344,jump
05/08/2020, 15:22:58,7.8963146,-5.601598,1.4141582,0.53851,0.04151778,-0.091583334,9.784146658469059,0.5478177430318344,jump
05/08/2020, 15:22:58,7.8963146,-5.601598,1.4141582,0.5775856,0.059834447,-0.12821667,9.784146658469059,0.5946635814406581,jump
05/08/2020, 15:22:58,7.9011,-5.556134,1.3806586,0.5775856,0.059834447,-0.12821667,9.757265471184688,0.5946635814406581,jump
05/08/2020, 15:22:58,7.9011,-5.556134,1.3806586,0.63131446,0.06227667,-0.15630223,9.757265471184688,0.6533503754323328,jump
05/08/2020, 15:22:58,7.8436728,-5.6327047,1.3399807,0.63131446,0.06227667,-0.15630223,9.74915961556785,0.6533503754323328,jump
05/08/2020, 15:22:58,7.8436728,-5.6327047,1.3399807,0.7338878,0.054950003,-0.17095557,9.74915961556785,0.7555372922043182,jump
05/08/2020, 15:22:58,7.776674,-5.8193445,1.3567305,0.7338878,0.054950003,-0.17095557,9.807249537371307,0.7555372922043182,jump
05/08/2020, 15:22:58,7.776674,-5.8193445,1.3567305,0.91217005,0.028085556,-0.17950334,9.807249537371307,0.9300884103196551,jump
05/08/2020, 15:22:58,7.759924,-6.013163,1.3782659,0.91217005,0.028085556,-0.17950334,9.913332769278497,0.9300884103196551,jump
05/08/2020, 15:22:58,7.759924,-6.013163,1.3782659,1.1722667,-0.009768889,-0.1746189,9.913332769278497,1.1852410970928946,jump
05/08/2020, 15:22:58,7.8053875,-6.2931237,1.4452649,1.1722667,-0.009768889,-0.1746189,10.129968948256643,1.1852410970928946,jump
05/08/2020, 15:22:58,7.8053875,-6.2931237,1.4452649,1.5276101,-0.047623336,-0.15386,10.129968948256643,1.5360772730816186,jump
05/08/2020, 15:22:58,7.905886,-6.5515485,1.5433706,1.5276101,-0.047623336,-0.15386,10.383054295628526,1.5360772730816186,jump
05/08/2020, 15:22:58,7.905886,-6.5515485,1.5433706,1.9696523,-0.08303556,-0.12455334,10.383054295628526,1.975332529358541,jump
05/08/2020, 15:22:58,8.013563,-6.786045,1.6223338,1.9696523,-0.08303556,-0.12455334,10.625420888371867,1.975332529358541,jump
05/08/2020, 15:22:58,8.013563,-6.786045,1.6223338,2.4727502,-0.11844778,-0.08669889,10.625420888371867,2.4771031591610733,jump
05/08/2020, 15:22:59,7.893922,-2.1487548,5.771488,0.24055889,0.09036223,0.03174889,10.012054008671388,0.2589245163328685,jump
05/08/2020, 15:22:59,7.893922,-2.1487548,5.771488,0.32481557,0.07570889,0.026864445,10.012054008671388,0.33460228563798405,jump
05/08/2020, 15:22:59,7.82453,-2.28036,5.76431,0.32481557,0.07570889,0.026864445,9.982513799363417,0.33460228563798405,jump
05/08/2020, 15:22:59,7.82453,-2.28036,5.76431,0.38220778,0.048844445,0.028085556,9.982513799363417,0.38633840893757676,jump
05/08/2020, 15:22:59,7.7120676,-2.2348964,5.7762737,0.38220778,0.048844445,0.028085556,9.891212611113337,0.38633840893757676,jump
05/08/2020, 15:22:59,7.7120676,-2.2348964,5.7762737,0.38465002,0.034191113,0.029306669,9.891212611113337,0.3872771001562565,jump
05/08/2020, 15:22:59,7.6666036,-2.07697,5.800202,0.38465002,0.034191113,0.029306669,9.835291405037475,0.3872771001562565,jump
05/08/2020, 15:22:59,7.6666036,-2.07697,5.800202,0.36633334,0.039075557,0.029306669,9.835291405037475,0.3695752870541466,jump
05/08/2020, 15:22:59,7.649854,-1.9357935,5.788238,0.36633334,0.039075557,0.029306669,9.786279440072164,0.3695752870541466,jump
05/08/2020, 15:22:59,7.649854,-1.9357935,5.788238,0.3492378,0.04396,0.028085556,9.786279440072164,0.35311233462694835,jump
05/08/2020, 15:22:59,7.678568,-1.8999012,5.7810597,0.3492378,0.04396,0.028085556,9.797483396855723,0.35311233462694835,jump
05/08/2020, 15:22:59,7.678568,-1.8999012,5.7810597,0.3382478,0.028085556,0.017095556,9.797483396855723,0.3398420731045569,jump
05/08/2020, 15:22:59,7.7120676,-1.8687944,5.7284174,0.3382478,0.028085556,0.017095556,9.78688639263063,0.3398420731045569,jump
05/08/2020, 15:22:59,7.7120676,-1.8687944,5.7284174,0.32115224,0.017095556,0.013432222,9.78688639263063,0.3218873155809724,jump
05/08/2020, 15:22:59,7.7383885,-1.8568304,5.74756,0.32115224,0.017095556,0.013432222,9.816563674901005,0.3218873155809724,jump
05/08/2020, 15:22:59,7.7383885,-1.8568304,5.74756,0.29306668,0.012211111,0.009768889,9.816563674901005,0.29348359684644776,jump
05/08/2020, 15:22:59,7.7671022,-1.7922242,5.7810597,0.29306668,0.012211111,0.009768889,9.84685718600538,0.29348359684644776,jump
05/08/2020, 15:22:59,7.7671022,-1.7922242,5.7810597,0.26742333,0.008547778,0.0024422223,9.84685718600538,0.26757105097585765,jump
05/08/2020, 15:22:59,7.795816,-1.7994026,5.85763,0.26742333,0.008547778,0.0024422223,9.915867210346343,0.26757105097585765,jump
05/08/2020, 15:22:59,7.795816,-1.7994026,5.85763,0.23689556,0.007326667,-0.014653334,9.915867210346343,0.23746138040952414,jump
05/08/2020, 15:23:00,8.047063,-4.261617,4.1491547,-0.31993112,0.20270446,-0.028085556,10.006602137290612,0.37978127608063267,jump
05/08/2020, 15:23:00,8.047063,-4.261617,4.1491547,-0.24910668,0.20270446,-0.02075889,10.006602137290612,0.3218294037102056,jump
05/08/2020, 15:23:00,8.106883,-4.2257247,4.1371903,-0.24910668,0.20270446,-0.02075889,10.034672187553344,0.3218294037102056,jump
05/08/2020, 15:23:00,8.106883,-4.2257247,4.1371903,-0.19171445,0.2075889,-0.015874445,10.034672187553344,0.28301868920388706,jump
05/08/2020, 15:23:00,8.13799,-4.211368,4.1204405,-0.19171445,0.2075889,-0.015874445,10.046916547806584,0.28301868920388706,jump
05/08/2020, 15:23:00,8.13799,-4.211368,4.1204405,-0.14531223,0.21247335,-0.009768889,10.046916547806584,0.25759658438492344,jump
05/08/2020, 15:23:00,8.16431,-4.156333,4.1084766,-0.14531223,0.21247335,-0.009768889,10.040450650101754,0.25759658438492344,jump
05/08/2020, 15:23:00,8.16431,-4.156333,4.1084766,-0.123332225,0.22102112,-0.015874445,10.040450650101754,0.25360041267571276,jump
05/08/2020, 15:23:00,8.135597,-4.0701914,4.0510488,-0.123332225,0.22102112,-0.015874445,9.958182373826451,0.25360041267571276,jump
05/08/2020, 15:23:00,8.135597,-4.0701914,4.0510488,-0.11844778,0.22712667,-0.02075889,9.958182373826451,0.2569967582588372,jump
05/08/2020, 15:23:00,8.063812,-3.9984066,4.0031924,-0.11844778,0.22712667,-0.02075889,9.85078034550424,0.2569967582588372,jump
05/08/2020, 15:23:00,8.063812,-3.9984066,4.0031924,-0.13554333,0.22224224,-0.017095556,9.85078034550424,0.2608751891038456,jump
05/08/2020, 15:23:00,8.001599,-3.9242291,3.95055,-0.13554333,0.22224224,-0.017095556,9.748436380227073,0.2608751891038456,jump
05/08/2020, 15:23:00,8.001599,-3.9242291,3.95055,-0.1746189,0.20270446,-0.023201112,9.748436380227073,0.2685500877522688,jump
05/08/2020, 15:23:00,7.984849,-3.8476589,3.9170506,-0.1746189,0.20270446,-0.023201112,9.690489016297688,0.2685500877522688,jump
05/08/2020, 15:23:00,7.984849,-3.8476589,3.9170506,-0.2295689,0.1965989,-0.025643334,9.690489016297688,0.30333247140933556,jump
05/08/2020, 15:23:00,7.9776707,-3.7615173,3.8955152,-0.2295689,0.1965989,-0.025643334,9.641954174727221,0.30333247140933556,jump
05/08/2020, 15:23:00,7.9776707,-3.7615173,3.8955152,-0.2955089,0.19782001,-0.035412222,9.641954174727221,0.3573685574126508,jump
05/08/2020, 15:23:00,7.975278,-3.7256248,3.859623,-0.2955089,0.19782001,-0.035412222,9.611556954985423,0.3573685574126508,jump
05/08/2020, 15:23:00,7.975278,-3.7256248,3.859623,-0.3370267,0.19904111,-0.048844445,9.611556954985423,0.39444914925219565,jump
05/08/2020, 15:23:01,8.365308,-4.1635113,3.9673,0.06716111,0.013432222,0.0024422223,10.1514860817697,0.06853469305072335,jump
05/08/2020, 15:23:01,8.305488,-4.115655,3.979264,0.06716111,0.013432222,0.0024422223,10.087332779052746,0.06853469305072335,jump
05/08/2020, 15:23:01,8.305488,-4.115655,3.979264,0.029306669,0.013432222,0.017095556,10.087332779052746,0.036490594486975704,jump
05/08/2020, 15:23:01,8.257631,-4.098905,3.9361932,0.029306669,0.013432222,0.017095556,10.024126632898765,0.036490594486975704,jump
05/08/2020, 15:23:01,8.257631,-4.098905,3.9361932,-0.0048844446,0.02198,0.019537779,10.024126632898765,0.029811122420560627,jump
05/08/2020, 15:23:01,8.190632,-4.0797625,3.9625144,-0.0048844446,0.02198,0.019537779,9.971581242012833,0.029811122420560627,jump
05/08/2020, 15:23:01,8.190632,-4.0797625,3.9625144,-0.034191113,0.019537779,0.029306669,9.971581242012833,0.04908806201887656,jump
05/08/2020, 15:23:01,8.140383,-4.0965123,3.9696927,-0.034191113,0.019537779,0.029306669,9.94010588203113,0.04908806201887656,jump
05/08/2020, 15:23:01,8.140383,-4.0965123,3.9696927,-0.051286668,0.014653334,0.048844445,9.94010588203113,0.07232442420626248,jump
05/08/2020, 15:23:01,8.111669,-4.1036906,4.024728,-0.051286668,0.014653334,0.048844445,9.94172409777894,0.07232442420626248,jump
05/08/2020, 15:23:01,8.111669,-4.1036906,4.024728,-0.06105556,0.018316668,0.048844445,9.94172409777894,0.08030604915686547,jump
05/08/2020, 15:23:01,8.090134,-4.1228333,4.0941195,-0.06105556,0.018316668,0.048844445,9.960413227023142,0.08030604915686547,jump
05/08/2020, 15:23:01,8.090134,-4.1228333,4.0941195,-0.06716111,0.02075889,0.054950003,9.960413227023142,0.08922471285635403,jump
05/08/2020, 15:23:01,8.085348,-4.1228333,4.1491547,-0.06716111,0.02075889,0.054950003,9.979283181328599,0.08922471285635403,jump
05/08/2020, 15:23:01,8.085348,-4.1228333,4.1491547,-0.07326667,0.026864445,0.05250778,9.979283181328599,0.09405727168761735,jump
05/08/2020, 15:23:01,8.063812,-4.125226,4.2161536,-0.07326667,0.026864445,0.05250778,9.9909213379994,0.09405727168761735,jump
05/08/2020, 15:23:01,8.063812,-4.125226,4.2161536,-0.068382226,0.035412222,0.047623336,9.9909213379994,0.0905435611317007,jump
05/08/2020, 15:23:01,8.070991,-4.1084766,4.240082,-0.068382226,0.035412222,0.047623336,9.99993812540213,0.0905435611317007,jump
05/08/2020, 15:23:01,8.070991,-4.1084766,4.240082,-0.06349778,0.042738892,0.047623336,9.99993812540213,0.09014745337828757,jump
05/08/2020, 15:23:01,8.042277,-4.1228333,4.2281175,-0.06349778,0.042738892,0.047623336,9.977622766999895,0.09014745337828757,jump
05/08/2020, 15:23:02,15.168102,-10.475778,9.683753,3.0918534,-2.6632435,-0.8621045,20.82278356998011,4.170808981846455,jump
05/08/2020, 15:23:02,15.091533,-9.24826,10.1599245,3.0918534,-2.6632435,-0.8621045,20.40854551514648,4.170808981846455,jump
05/08/2020, 15:23:02,15.091533,-9.24826,10.1599245,2.3872724,-2.1564822,-0.4701278,20.40854551514648,3.251231307501777,jump
05/08/2020, 15:23:02,14.813965,-7.719246,10.389636,2.3872724,-2.1564822,-0.4701278,19.671930481246637,3.251231307501777,jump
05/08/2020, 15:23:02,14.813965,-7.719246,10.389636,1.4653333,-1.6277412,-0.21613668,19.671930481246637,2.200785846088692,jump
05/08/2020, 15:23:02,14.299508,-6.1639113,10.358529,1.4653333,-1.6277412,-0.21613668,18.70210842977928,2.200785846088692,jump
05/08/2020, 15:23:02,14.299508,-6.1639113,10.358529,0.41762,-1.1490656,-0.036633335,18.70210842977928,1.2231517702331347,jump
05/08/2020, 15:23:02,13.5074835,-4.910072,10.040284,0.41762,-1.1490656,-0.036633335,17.53192007584881,1.2231517702331347,jump
05/08/2020, 15:23:02,13.5074835,-4.910072,10.040284,-0.6105556,-0.71435004,0.09524667,17.53192007584881,0.9445348286597463,jump
05/08/2020, 15:23:02,12.562319,-4.213761,9.717253,-0.6105556,-0.71435004,0.09524667,16.431452609224152,0.9445348286597463,jump
05/08/2020, 15:23:02,12.562319,-4.213761,9.717253,-1.5129567,-0.16851334,0.19904111,16.431452609224152,1.5352694238912334,jump
05/08/2020, 15:23:02,11.944971,-3.8668015,11.538191,-1.5129567,-0.16851334,0.19904111,17.051813274651842,1.5352694238912334,jump
05/08/2020, 15:23:02,11.944971,-3.8668015,11.538191,-2.0014012,0.35900667,0.098910004,17.051813274651842,2.0357494166718832,jump
05/08/2020, 15:23:02,10.992627,-1.8927227,11.964113,-2.0014012,0.35900667,0.098910004,16.35726922050799,2.0357494166718832,jump
05/08/2020, 15:23:02,10.992627,-1.8927227,11.964113,-2.3323224,0.68504333,-0.5592689,16.35726922050799,2.4943523509742023,jump
05/08/2020, 15:23:02,10.10489,0.6125626,12.564712,-2.3323224,0.68504333,-0.5592689,16.135551092833474,2.4943523509742023,jump
05/08/2020, 15:23:02,10.10489,0.6125626,12.564712,-3.1797736,0.90118,-1.1051056,16.135551092833474,3.484873579853535,jump
05/08/2020, 15:23:02,9.221938,1.5266209,12.68196,-3.1797736,0.90118,-1.1051056,15.754581121879749,3.484873579853535,jump
05/08/2020, 15:23:02,9.221938,1.5266209,12.68196,-4.183527,1.0355023,-0.7131289,15.754581121879749,4.368376815902661,jump
05/08/2020, 15:23:02,8.216953,-0.7896315,11.712867,-4.183527,1.0355023,-0.7131289,14.329448256275674,4.368376815902661,jump
05/08/2020, 15:23:03,8.441878,-2.2229323,4.56072,-0.8437878,0.5250778,-0.18438779,9.849208310726176,1.010783560782106,jump
05/08/2020, 15:23:03,8.372486,-2.57707,4.520042,-0.8437878,0.5250778,-0.18438779,9.857514528209194,1.010783560782106,jump
05/08/2020, 15:23:03,8.372486,-2.57707,4.520042,-0.91217005,0.5287411,-0.16485001,9.857514528209194,1.0671442753235618,jump
05/08/2020, 15:23:03,8.255239,-2.87378,4.496114,-0.91217005,0.5287411,-0.16485001,9.829680253820793,1.0671442753235618,jump
05/08/2020, 15:23:03,8.255239,-2.87378,4.496114,-0.9280445,0.5006556,-0.13920668,9.829680253820793,1.0636263961579042,jump
05/08/2020, 15:23:03,8.154739,-3.1274192,4.4602213,-0.9280445,0.5006556,-0.13920668,9.806839418272466,1.0636263961579042,jump
05/08/2020, 15:23:03,8.154739,-3.1274192,4.4602213,-0.9060645,0.47745445,-0.11844778,9.806839418272466,1.030992497064449,jump
05/08/2020, 15:23:03,8.13799,-3.3236306,4.429115,-0.9060645,0.47745445,-0.11844778,9.84329515235361,1.030992497064449,jump
05/08/2020, 15:23:03,8.13799,-3.3236306,4.429115,-0.8450089,0.45181113,-0.09036223,9.84329515235361,0.9624649039577006,jump
05/08/2020, 15:23:03,8.152347,-3.495914,4.409972,-0.8450089,0.45181113,-0.09036223,9.906059991877108,0.9624649039577006,jump
05/08/2020, 15:23:03,8.152347,-3.495914,4.409972,-0.7656367,0.42983112,-0.06349778,9.906059991877108,0.8803330547987018,jump
05/08/2020, 15:23:03,8.200203,-3.644269,4.4051867,-0.7656367,0.42983112,-0.06349778,9.996484092195834,0.8803330547987018,jump
05/08/2020, 15:23:03,8.200203,-3.644269,4.4051867,-0.65329444,0.41395667,-0.03297,9.996484092195834,0.7741064383078489,jump
05/08/2020, 15:23:03,8.221739,-3.751946,4.402794,-0.65329444,0.41395667,-0.03297,10.052794721603258,0.7741064383078489,jump
05/08/2020, 15:23:03,8.221739,-3.751946,4.402794,-0.52752,0.39564002,0.0036633336,10.052794721603258,0.6594101859576743,jump
05/08/2020, 15:23:03,8.16431,-3.792624,4.388437,-0.52752,0.39564002,0.0036633336,10.014905865203682,0.6594101859576743,jump
05/08/2020, 15:23:03,8.16431,-3.792624,4.388437,-0.38709223,0.36755446,0.037854444,10.014905865203682,0.535135154601591,jump
05/08/2020, 15:23:03,8.075776,-3.792624,4.328616,-0.38709223,0.36755446,0.037854444,9.916605977230695,0.535135154601591,jump
05/08/2020, 15:23:03,8.075776,-3.792624,4.328616,-0.2515489,0.31993112,0.06594,9.916605977230695,0.4122873356697955,jump
05/08/2020, 15:23:03,7.984849,-3.7543387,4.240082,-0.2515489,0.31993112,0.06594,9.789339411702386,0.4122873356697955,jump
05/08/2020, 15:23:04,8.032705,-3.0939198,4.7425747,0.046402223,-0.07937223,0.013432222,9.827955468998784,0.09291685200076914,jump
05/08/2020, 15:23:04,8.032705,-3.0939198,4.7425747,0.06227667,-0.089141116,0.019537779,9.827955468998784,0.11048188428405266,jump
05/08/2020, 15:23:04,7.9968133,-3.0987053,4.7688956,0.06227667,-0.089141116,0.019537779,9.812918163770698,0.11048188428405266,jump
05/08/2020, 15:23:04,7.9968133,-3.0987053,4.7688956,0.07448778,-0.09768889,0.019537779,9.812918163770698,0.12439161560778014,jump
05/08/2020, 15:23:04,8.001599,-3.103491,4.7952166,0.07448778,-0.09768889,0.019537779,9.831141857195096,0.12439161560778014,jump
05/08/2020, 15:23:04,8.001599,-3.103491,4.7952166,0.081814446,-0.098910004,0.017095556,9.831141857195096,0.12949536835177214,jump
05/08/2020, 15:23:04,8.003992,-3.117848,4.831109,0.081814446,-0.098910004,0.017095556,9.855175264804668,0.12949536835177214,jump
05/08/2020, 15:23:04,8.003992,-3.117848,4.831109,0.09280445,-0.10135223,0.026864445,9.855175264804668,0.14002370589790963,jump
05/08/2020, 15:23:04,8.006385,-3.1202407,4.843073,0.09280445,-0.10135223,0.026864445,9.863744488882931,0.14002370589790963,jump
05/08/2020, 15:23:04,8.006385,-3.1202407,4.843073,0.09646778,-0.10013112,0.025643334,9.863744488882931,0.1413854777906487,jump
05/08/2020, 15:23:04,8.008778,-3.0939198,4.8622155,0.09646778,-0.10013112,0.025643334,9.86681296763118,0.1413854777906487,jump
05/08/2020, 15:23:04,8.008778,-3.0939198,4.8622155,0.09280445,-0.10135223,0.03174889,9.86681296763118,0.1410423053161374,jump
05/08/2020, 15:23:04,8.049456,-3.0436704,4.8263235,0.09280445,-0.10135223,0.03174889,9.866664297517413,0.1410423053161374,jump
05/08/2020, 15:23:04,8.049456,-3.0436704,4.8263235,0.07937223,-0.10135223,0.028085556,9.866664297517413,0.13176123620642477,jump
05/08/2020, 15:23:04,8.1020975,-3.0293136,4.8502517,0.07937223,-0.10135223,0.028085556,9.916938341080714,0.13176123620642477,jump
05/08/2020, 15:23:04,8.1020975,-3.0293136,4.8502517,0.064718895,-0.08669889,0.026864445,9.916938341080714,0.11147614634214924,jump
05/08/2020, 15:23:04,8.181061,-2.9886355,4.87418,0.064718895,-0.08669889,0.026864445,9.98094821000563,0.11147614634214924,jump
05/08/2020, 15:23:04,8.181061,-2.9886355,4.87418,0.04151778,-0.06105556,0.024422223,9.98094821000563,0.07776858184546287,jump
05/08/2020, 15:23:04,8.193025,-3.0005996,4.900501,0.04151778,-0.06105556,0.024422223,10.007205334683471,0.07776858184546287,jump
05/08/2020, 15:23:04,8.193025,-3.0005996,4.900501,0.026864445,-0.051286668,0.028085556,10.007205334683471,0.06434919671270846,jump
05/08/2020, 15:23:05,8.099705,-3.1154552,4.7377887,0.059834447,-0.023201112,-0.018316668,9.887260452721383,0.06673794207525127,jump
05/08/2020, 15:23:05,8.099705,-3.1154552,4.7377887,0.05250778,-0.019537779,-0.013432222,9.887260452721383,0.05761264099854294,jump
05/08/2020, 15:23:05,8.200203,-3.0867412,4.7545385,0.05250778,-0.019537779,-0.013432222,9.968798135721888,0.05761264099854294,jump
05/08/2020, 15:23:05,8.200203,-3.0867412,4.7545385,0.036633335,-0.0024422223,-0.012211111,9.968798135721888,0.03869207836280049,jump
05/08/2020, 15:23:05,8.240881,-3.062813,4.766503,0.036633335,-0.0024422223,-0.012211111,10.000624596826016,0.03869207836280049,jump
05/08/2020, 15:23:05,8.240881,-3.062813,4.766503,0.018316668,0.01099,-0.007326667,10.000624596826016,0.022582304327968237,jump
05/08/2020, 15:23:05,8.216953,-3.0723844,4.7545385,0.018316668,0.01099,-0.007326667,9.978151306578393,0.022582304327968237,jump
05/08/2020, 15:23:05,8.216953,-3.0723844,4.7545385,0.008547778,0.009768889,0.0024422223,9.978151306578393,0.01320833678420628,jump
05/08/2020, 15:23:05,8.166703,-3.0699914,4.735396,0.008547778,0.009768889,0.0024422223,9.9269261531897,0.01320833678420628,jump
05/08/2020, 15:23:05,8.166703,-3.0699914,4.735396,0.009768889,-0.0024422223,0.018316668,9.9269261531897,0.020902056287245,jump
05/08/2020, 15:23:05,8.13799,-3.0867412,4.735396,0.009768889,-0.0024422223,0.018316668,9.908522942685641,0.020902056287245,jump
05/08/2020, 15:23:05,8.13799,-3.0867412,4.735396,0.008547778,-0.007326667,0.028085556,9.908522942685641,0.03025794134171809,jump
05/08/2020, 15:23:05,8.166703,-3.1106694,4.776074,0.008547778,-0.007326667,0.028085556,9.9590254402338,0.03025794134171809,jump
05/08/2020, 15:23:05,8.166703,-3.1106694,4.776074,0.015874445,-0.013432222,0.039075557,9.9590254402338,0.04426422690020066,jump
05/08/2020, 15:23:05,8.202596,-3.0915267,4.8095737,0.015874445,-0.013432222,0.039075557,9.998605538683607,0.04426422690020066,jump
05/08/2020, 15:23:05,8.202596,-3.0915267,4.8095737,0.024422223,-0.013432222,0.04151778,9.998605538683607,0.05000595519887709,jump
05/08/2020, 15:23:05,8.255239,-3.0723844,4.8191447,0.024422223,-0.013432222,0.04151778,10.040551019001816,0.05000595519887709,jump
05/08/2020, 15:23:05,8.255239,-3.0723844,4.8191447,0.028085556,-0.0048844446,0.047623336,10.040551019001816,0.05550349908262126,jump
05/08/2020, 15:23:05,8.300702,-3.0460632,4.8191447,0.028085556,-0.0048844446,0.047623336,10.069970808502038,0.05550349908262126,jump
05/08/2020, 15:23:05,8.300702,-3.0460632,4.8191447,0.013432222,0.0012211112,0.05250778,10.069970808502038,0.05421238533577604,jump
05/08/2020, 15:23:06,7.745567,-3.5533416,4.2855453,-0.019537779,0.0,0.019537779,9.538655115258168,0.02763059143410143,jump
05/08/2020, 15:23:06,7.7742805,-3.5700915,4.2664027,-0.019537779,0.0,0.019537779,9.559664399965,0.02763059143410143,jump
05/08/2020, 15:23:06,7.7742805,-3.5700915,4.2664027,-0.0036633336,-0.023201112,0.012211111,9.559664399965,0.026473058726823012,jump
05/08/2020, 15:23:06,7.798209,-3.586841,4.2520456,-0.0036633336,-0.023201112,0.012211111,9.579007660034454,0.026473058726823012,jump
05/08/2020, 15:23:06,7.798209,-3.586841,4.2520456,0.007326667,-0.04029667,-0.0012211112,9.579007660034454,0.04097551441721807,jump
05/08/2020, 15:23:06,7.8484583,-3.629912,4.2664027,0.007326667,-0.04029667,-0.0012211112,9.642445235067127,0.04097551441721807,jump
05/08/2020, 15:23:06,7.8484583,-3.629912,4.2664027,0.015874445,-0.05250778,-0.007326667,9.642445235067127,0.05534207334768672,jump
05/08/2020, 15:23:06,7.8987074,-3.7184465,4.321438,0.015874445,-0.05250778,-0.007326667,9.741213873042321,0.05534207334768672,jump
05/08/2020, 15:23:06,7.8987074,-3.7184465,4.321438,0.028085556,-0.07326667,-0.0036633336,9.741213873042321,0.07855076963916287,jump
05/08/2020, 15:23:06,7.948957,-3.7686956,4.359723,0.028085556,-0.07326667,-0.0036633336,9.818155058704727,0.07855076963916287,jump
05/08/2020, 15:23:06,7.948957,-3.7686956,4.359723,0.048844445,-0.08669889,-0.0048844446,9.818155058704727,0.09963099485693389,jump
05/08/2020, 15:23:06,7.989635,-3.8500516,4.4147577,0.048844445,-0.08669889,-0.0048844446,9.906929429871848,0.09963099485693389,jump
05/08/2020, 15:23:06,7.989635,-3.8500516,4.4147577,0.06594,-0.10745778,0.0036633336,9.906929429871848,0.1261296078279886,jump
05/08/2020, 15:23:06,8.008778,-3.8907297,4.4554358,0.06594,-0.10745778,0.0036633336,9.956365000393063,0.1261296078279886,jump
05/08/2020, 15:23:06,8.008778,-3.8907297,4.4554358,0.085477784,-0.12089001,0.017095556,9.956365000393063,0.14904060959731832,jump
05/08/2020, 15:23:06,8.035098,-3.9146578,4.5152564,0.085477784,-0.12089001,0.017095556,10.01373493886721,0.14904060959731832,jump
05/08/2020, 15:23:06,8.035098,-3.9146578,4.5152564,0.10379445,-0.12821667,0.042738892,10.01373493886721,0.17040954947717069,jump
05/08/2020, 15:23:06,8.114061,-3.938586,4.6396832,0.10379445,-0.12821667,0.042738892,10.142835499209388,0.17040954947717069,jump
05/08/2020, 15:23:06,8.114061,-3.938586,4.6396832,0.12455334,-0.11112112,0.06594,10.142835499209388,0.17947011012077657,jump
05/08/2020, 15:23:06,8.140383,-3.9577286,4.84068,0.12455334,-0.11112112,0.06594,10.264581408897447,0.17947011012077657,jump
05/08/2020, 15:23:07,21.145374,-16.747366,6.728617,5.587805,-5.680609,-5.3032856,27.80063686012533,9.571714670965955,jump
05/08/2020, 15:23:07,21.131018,-17.694923,7.3196445,5.587805,-5.680609,-5.3032856,28.516791850683283,9.571714670965955,jump
05/08/2020, 15:23:07,21.131018,-17.694923,7.3196445,6.537829,-5.6952624,-4.5852723,28.516791850683283,9.808360890794372,jump
05/08/2020, 15:23:07,20.36292,-17.376678,7.4919276,6.537829,-5.6952624,-4.5852723,27.79795812611264,9.808360890794372,jump
05/08/2020, 15:23:07,20.36292,-17.376678,7.4919276,7.359637,-5.864997,-3.778118,27.79795812611264,10.140839076300162,jump
05/08/2020, 15:23:07,19.439291,-16.780865,7.281359,7.359637,-5.864997,-3.778118,26.69272648000439,10.140839076300162,jump
05/08/2020, 15:23:07,19.439291,-16.780865,7.281359,7.987288,-6.0066457,-2.9038024,26.69272648000439,10.407143231134967,jump
05/08/2020, 15:23:07,18.781265,-15.737595,6.9966135,7.987288,-6.0066457,-2.9038024,25.482551072444416,10.407143231134967,jump
05/08/2020, 15:23:07,18.781265,-15.737595,6.9966135,8.358506,-5.9504747,-2.0014012,25.482551072444416,10.453630100026627,jump
05/08/2020, 15:23:07,18.305094,-14.251652,6.5946193,8.358506,-5.9504747,-2.0014012,24.11794019243139,10.453630100026627,jump
05/08/2020, 15:23:07,18.305094,-14.251652,6.5946193,8.342631,-5.679388,-1.10999,24.11794019243139,10.153178027463179,jump
05/08/2020, 15:23:07,17.92942,-12.650853,6.393622,8.342631,-5.679388,-1.10999,22.855778378988582,10.153178027463179,jump
05/08/2020, 15:23:07,17.92942,-12.650853,6.393622,7.955539,-5.2129235,-0.31382558,22.855778378988582,9.516494237578746,jump
05/08/2020, 15:23:07,17.592031,-10.827522,6.9009004,7.955539,-5.2129235,-0.31382558,21.779284562714608,9.516494237578746,jump
05/08/2020, 15:23:07,17.592031,-10.827522,6.9009004,7.3107924,-4.584051,0.2820767,21.779284562714608,8.633700147113338,jump
05/08/2020, 15:23:07,17.032112,-8.513663,7.570891,7.3107924,-4.584051,0.2820767,20.491307792398374,8.633700147113338,jump
05/08/2020, 15:23:07,17.032112,-8.513663,7.570891,6.3644314,-3.900229,0.6288723,20.491307792398374,7.490878000585303,jump
05/08/2020, 15:23:07,16.18266,-5.7427745,8.183454,6.3644314,-3.900229,0.6288723,19.021746189772553,7.490878000585303,jump
05/08/2020, 15:23:07,16.18266,-5.7427745,8.183454,5.2019334,-3.2347236,0.74121445,19.021746189772553,6.1703278972171445,jump
05/08/2020, 15:23:07,15.268601,-2.7613173,8.709874,5.2019334,-3.2347236,0.74121445,17.793734009014983,6.1703278972171445,jump
05/08/2020, 15:23:08,8.451449,-3.1633115,4.575077,-0.95735115,0.20270446,-0.098910004,10.117552395141548,0.983561644009614,jump
05/08/2020, 15:23:08,8.451449,-3.1633115,4.575077,-0.91094893,0.19904111,-0.05372889,10.117552395141548,0.9339872137109738,jump
05/08/2020, 15:23:08,8.465807,-3.4600215,4.5535417,-0.91094893,0.19904111,-0.05372889,10.216475806540288,0.9339872137109738,jump
05/08/2020, 15:23:08,8.465807,-3.4600215,4.5535417,-0.80227005,0.18438779,-0.015874445,10.216475806540288,0.8233395990130707,jump
05/08/2020, 15:23:08,8.508878,-3.7208393,4.56072,-0.80227005,0.18438779,-0.015874445,10.346294605615773,0.8233395990130707,jump
05/08/2020, 15:23:08,8.508878,-3.7208393,4.56072,-0.63619894,0.16973445,0.015874445,10.346294605615773,0.6586432034857268,jump
05/08/2020, 15:23:08,8.496913,-3.900301,4.5631127,-0.63619894,0.16973445,0.015874445,10.403454972104694,0.6586432034857268,jump
05/08/2020, 15:23:08,8.496913,-3.900301,4.5631127,-0.42861003,0.14042778,0.05250778,10.403454972104694,0.45407442604949594,jump
05/08/2020, 15:23:08,8.463413,-4.007978,4.584648,-0.42861003,0.14042778,0.05250778,10.426516651840513,0.45407442604949594,jump
05/08/2020, 15:23:08,8.463413,-4.007978,4.584648,-0.22102112,0.10501556,0.08669889,10.426516651840513,0.25960604605886667,jump
05/08/2020, 15:23:08,8.405986,-4.0151563,4.6085763,-0.22102112,0.10501556,0.08669889,10.393317717107658,0.25960604605886667,jump
05/08/2020, 15:23:08,8.405986,-4.0151563,4.6085763,-0.023201112,0.06594,0.11478445,10.393317717107658,0.13439436375738015,jump
05/08/2020, 15:23:08,8.372486,-3.9361932,4.6301117,-0.023201112,0.06594,0.11478445,10.34553406866367,0.13439436375738015,jump
05/08/2020, 15:23:08,8.372486,-3.9361932,4.6301117,0.12821667,0.023201112,0.14287001,10.34553406866367,0.19336402261140076,jump
05/08/2020, 15:23:08,8.298309,-3.7423747,4.618148,0.12821667,0.023201112,0.14287001,10.207575389035593,0.19336402261140076,jump
05/08/2020, 15:23:08,8.298309,-3.7423747,4.618148,0.2185789,-0.0036633336,0.15141778,10.207575389035593,0.2659276233115325,jump
05/08/2020, 15:23:08,8.271988,-3.534199,4.6396832,0.2185789,-0.0036633336,0.15141778,10.121413303627321,0.2659276233115325,jump
05/08/2020, 15:23:08,8.271988,-3.534199,4.6396832,0.25277,-0.026864445,0.16362889,10.121413303627321,0.3023057866922594,jump
05/08/2020, 15:23:08,8.267202,-3.2829528,4.692325,0.25277,-0.026864445,0.16362889,10.056954266879048,0.3023057866922594,jump
05/08/2020, 15:23:08,8.267202,-3.2829528,4.692325,0.25887558,-0.034191113,0.17095557,10.056954266879048,0.3121080002850401,jump
05/08/2020, 15:23:09,8.166703,-3.0269206,4.709075,0.0,0.0036633336,-0.007326667,9.901145222736028,0.00819146295055933,jump
05/08/2020, 15:23:09,8.166703,-3.0269206,4.709075,-0.0036633336,0.007326667,-0.0061055557,9.901145222736028,0.010216549100291232,jump
05/08/2020, 15:23:09,8.16431,-3.0675986,4.699504,-0.0036633336,0.007326667,-0.0061055557,9.907142027856214,0.010216549100291232,jump
05/08/2020, 15:23:09,8.16431,-3.0675986,4.699504,-0.0036633336,0.0061055557,0.0,9.907142027856214,0.0071202403963877975,jump
05/08/2020, 15:23:09,8.157132,-3.048456,4.7018967,-0.0036633336,0.0061055557,0.0,9.896449912202986,0.0071202403963877975,jump
05/08/2020, 15:23:09,8.157132,-3.048456,4.7018967,-0.0012211112,0.0061055557,0.0061055557,9.896449912202986,0.008720477794441328,jump
05/08/2020, 15:23:09,8.1738825,-3.050849,4.6707897,-0.0012211112,0.0061055557,0.0061055557,9.89627762580919,0.008720477794441328,jump
05/08/2020, 15:23:09,8.1738825,-3.050849,4.6707897,0.0024422223,0.007326667,0.01099,9.89627762580919,0.013432222799482673,jump
05/08/2020, 15:23:09,8.154739,-3.0412776,4.6755753,0.0024422223,0.007326667,0.01099,9.87978481839741,0.013432222799482673,jump
05/08/2020, 15:23:09,8.154739,-3.0412776,4.6755753,0.0012211112,0.0,0.015874445,9.87978481839741,0.01592134197996689,jump
05/08/2020, 15:23:09,8.140383,-3.062813,4.7042894,0.0012211112,0.0,0.015874445,9.888225039391351,0.01592134197996689,jump
05/08/2020, 15:23:09,8.140383,-3.062813,4.7042894,0.0024422223,0.0,0.015874445,9.888225039391351,0.01606121003671381,jump
05/08/2020, 15:23:09,8.135597,-3.0580273,4.709075,0.0024422223,0.0,0.015874445,9.885082708424827,0.01606121003671381,jump
05/08/2020, 15:23:09,8.135597,-3.0580273,4.709075,-0.0012211112,-0.0024422223,0.014653334,9.885082708424827,0.014905561753895855,jump
05/08/2020, 15:23:09,8.142776,-3.0436704,4.7306104,-0.0012211112,-0.0024422223,0.014653334,9.896837752643952,0.014905561753895855,jump
05/08/2020, 15:23:09,8.142776,-3.0436704,4.7306104,-0.0012211112,-0.0024422223,0.018316668,9.896837752643952,0.018519067785047166,jump
05/08/2020, 15:23:09,8.190632,-3.0317063,4.76411,-0.0012211112,-0.0024422223,0.018316668,9.948589779271089,0.018519067785047166,jump
05/08/2020, 15:23:09,8.190632,-3.0317063,4.76411,-0.008547778,0.009768889,0.015874445,9.948589779271089,0.0205059437411231,jump
05/08/2020, 15:23:09,8.190632,-2.9910283,4.759324,-0.008547778,0.009768889,0.015874445,9.9339753550939,0.0205059437411231,jump
05/08/2020, 15:23:09,8.190632,-2.9910283,4.759324,-0.014653334,0.017095556,0.013432222,9.9339753550939,0.026218368740583285,jump
05/08/2020, 15:23:10,8.499306,-2.5531418,5.058427,-1.0452712,0.6777167,-0.23933779,10.214911320826356,1.2685323246103566,jump
05/08/2020, 15:23:10,8.532805,-2.5531418,4.8789654,-1.0452712,0.6777167,-0.23933779,10.155373213171366,1.2685323246103566,jump
05/08/2020, 15:23:10,8.532805,-2.5531418,4.8789654,-1.1612767,0.6899278,-0.26742333,10.155373213171366,1.3769819170078734,jump
05/08/2020, 15:23:10,8.532805,-2.6273193,4.7138605,-1.1612767,0.6899278,-0.26742333,10.096140675642193,1.3769819170078734,jump
05/08/2020, 15:23:10,8.532805,-2.6273193,4.7138605,-1.2455333,0.6935911,-0.29917222,10.096140675642193,1.4566832107116257,jump
05/08/2020, 15:23:10,8.444271,-2.7349963,4.627719,-1.2455333,0.6935911,-0.29917222,10.010079995625164,1.4566832107116257,jump
05/08/2020, 15:23:10,8.444271,-2.7349963,4.627719,-1.295599,0.67161113,-0.31504667,10.010079995625164,1.49294763472872,jump
05/08/2020, 15:23:10,8.295917,-2.8283165,4.575077,-1.295599,0.67161113,-0.31504667,9.887008422385954,1.49294763472872,jump
05/08/2020, 15:23:10,8.295917,-2.8283165,4.575077,-1.3224634,0.6386411,-0.34069002,9.887008422385954,1.5075946380830105,jump
05/08/2020, 15:23:10,8.10449,-2.9216363,4.5248275,-1.3224634,0.6386411,-0.34069002,9.731021803923998,1.5075946380830105,jump
05/08/2020, 15:23:10,8.10449,-2.9216363,4.5248275,-1.3200212,0.59346,-0.34069002,9.731021803923998,1.4868491281653944,jump
05/08/2020, 15:23:10,7.948957,-3.0077782,4.505685,-1.3200212,0.59346,-0.34069002,9.619451249986778,1.4868491281653944,jump
05/08/2020, 15:23:10,7.948957,-3.0077782,4.505685,-1.3065889,0.55316335,-0.34679556,9.619451249986778,1.4606270481373114,jump
05/08/2020, 15:23:10,7.800602,-2.9958138,4.5535417,-1.3065889,0.55316335,-0.34679556,9.51625100456567,1.4606270481373114,jump
05/08/2020, 15:23:10,7.800602,-2.9958138,4.5535417,-1.2833878,0.51775116,-0.36633334,9.51625100456567,1.4315552968740546,jump
05/08/2020, 15:23:10,7.676175,-2.9383862,4.551149,-1.2833878,0.51775116,-0.36633334,9.395250616019961,1.4315552968740546,jump
05/08/2020, 15:23:10,7.676175,-2.9383862,4.551149,-1.2516389,0.47745445,-0.37854445,9.395250616019961,1.3920698851291666,jump
05/08/2020, 15:23:10,7.5589266,-2.8929226,4.5918264,-1.2516389,0.47745445,-0.37854445,9.30544155439743,1.3920698851291666,jump
05/08/2020, 15:23:10,7.5589266,-2.8929226,4.5918264,-1.23088,0.44692668,-0.3724389,9.30544155439743,1.3614403507814143,jump
05/08/2020, 15:23:10,7.432107,-2.8522446,4.6803613,-1.23088,0.44692668,-0.3724389,9.234570645814651,1.3614403507814143,jump
05/08/2020, 15:23:11,9.073584,-2.861816,3.1513474,0.06349778,-0.09524667,-0.048844445,10.022519655276858,0.12445753006811314,jump
05/08/2020, 15:23:11,9.030513,-2.8713872,3.1250265,0.06349778,-0.09524667,-0.048844445,9.978016672241479,0.12445753006811314,jump
05/08/2020, 15:23:11,9.030513,-2.8713872,3.1250265,0.06716111,-0.10135223,-0.04151778,9.978016672241479,0.12847807424984697,jump
05/08/2020, 15:23:11,8.946764,-2.9192436,3.0987053,0.06716111,-0.10135223,-0.04151778,9.908004010110535,0.12847807424984697,jump
05/08/2020, 15:23:11,8.946764,-2.9192436,3.0987053,0.07448778,-0.10867889,-0.035412222,9.908004010110535,0.13643150998790765,jump
05/08/2020, 15:23:11,8.906086,-2.9479575,3.1226335,0.07448778,-0.10867889,-0.035412222,9.887348506658052,0.13643150998790765,jump
05/08/2020, 15:23:11,8.906086,-2.9479575,3.1226335,0.08792,-0.11844778,-0.02075889,9.887348506658052,0.1489655500221182,jump
05/08/2020, 15:23:11,8.908479,-3.0029924,3.225525,0.08792,-0.11844778,-0.02075889,9.938962098980072,0.1489655500221182,jump
05/08/2020, 15:23:11,8.908479,-3.0029924,3.225525,0.10501556,-0.117226675,-0.009768889,9.938962098980072,0.15768891087886466,jump
05/08/2020, 15:23:11,8.997013,-2.9742785,3.3140593,0.10501556,-0.117226675,-0.009768889,10.038703384343739,0.15768891087886466,jump
05/08/2020, 15:23:11,8.997013,-2.9742785,3.3140593,0.10013112,-0.11234222,-0.0012211112,10.038703384343739,0.15049420869963018,jump
05/08/2020, 15:23:11,9.080762,-2.9048867,3.3499517,0.10013112,-0.11234222,-0.0012211112,10.105482690863694,0.15049420869963018,jump
05/08/2020, 15:23:11,9.080762,-2.9048867,3.3499517,0.08425667,-0.102573335,0.0,10.105482690863694,0.1327421400996933,jump
05/08/2020, 15:23:11,9.169296,-2.87378,3.37388,0.08425667,-0.102573335,0.0,10.184187311260995,0.1327421400996933,jump
05/08/2020, 15:23:11,9.169296,-2.87378,3.37388,0.047623336,-0.07693,0.0061055557,10.184187311260995,0.0906834333495532,jump
05/08/2020, 15:23:11,9.21476,-2.833102,3.347559,0.047623336,-0.07693,0.0061055557,10.20511717860701,0.0906834333495532,jump
05/08/2020, 15:23:11,9.21476,-2.833102,3.347559,0.01099,-0.046402223,0.0048844446,10.20511717860701,0.047935417427479636,jump
05/08/2020, 15:23:11,9.169296,-2.8881369,3.2614172,0.01099,-0.046402223,0.0048844446,10.151559996471802,0.047935417427479636,jump
05/08/2020, 15:23:11,9.169296,-2.8881369,3.2614172,-0.0036633336,-0.03052778,0.01099,10.151559996471802,0.03265188297489215,jump
05/08/2020, 15:23:11,9.109476,-2.955136,3.2733815,-0.0036633336,-0.03052778,0.01099,10.120790978028136,0.03265188297489215,jump
05/08/2020, 15:23:12,7.0348988,-3.1609187,4.213761,-0.84745115,0.46158,0.7082445,8.788457667125703,1.1970128786947272,jump
05/08/2020, 15:23:12,7.0348988,-3.1609187,4.213761,-0.70458114,0.40907225,0.5922389,8.788457667125703,1.007234634543078,jump
05/08/2020, 15:23:12,6.515656,-3.1154552,4.0869412,-0.70458114,0.40907225,0.5922389,8.29836866801716,1.007234634543078,jump
05/08/2020, 15:23:12,6.515656,-3.1154552,4.0869412,-0.59346,0.3602278,0.4823389,8.29836866801716,0.8453458949770166,jump
05/08/2020, 15:23:12,6.0777693,-3.0317063,4.046263,-0.59346,0.3602278,0.4823389,7.905869258586089,0.8453458949770166,jump
05/08/2020, 15:23:12,6.0777693,-3.0317063,4.046263,-0.40663,0.29306668,0.34191114,7.905869258586089,0.606744814077434,jump
05/08/2020, 15:23:12,5.706882,-2.87378,3.9146578,-0.40663,0.29306668,0.34191114,7.493441109064033,0.606744814077434,jump
05/08/2020, 15:23:12,5.706882,-2.87378,3.9146578,-0.081814446,0.1856089,0.16118668,7.493441109064033,0.2590857208923181,jump
05/08/2020, 15:23:12,5.4867425,-2.7230322,3.7878382,-0.081814446,0.1856089,0.16118668,7.2018724070230835,0.2590857208923181,jump
05/08/2020, 15:23:12,5.4867425,-2.7230322,3.7878382,0.2613178,0.05617111,0.025643334,7.2018724070230835,0.2685139875357356,jump
05/08/2020, 15:23:12,5.410172,-2.5579274,3.5700915,0.2613178,0.05617111,0.025643334,6.96839339897382,0.2685139875357356,jump
05/08/2020, 15:23:12,5.410172,-2.5579274,3.5700915,0.47867557,-0.07937223,-0.048844445,6.96839339897382,0.4876638550385296,jump
05/08/2020, 15:23:12,5.5465627,-2.457429,3.278167,0.47867557,-0.07937223,-0.048844445,6.895628569510263,0.4876638550385296,jump
05/08/2020, 15:23:12,5.5465627,-2.457429,3.278167,0.5470578,-0.15752333,-0.09768889,6.895628569510263,0.5776062368720041,jump
05/08/2020, 15:23:12,5.8073807,-2.400001,3.1609187,0.5470578,-0.15752333,-0.09768889,7.033994772693255,0.5776062368720041,jump
05/08/2020, 15:23:12,5.8073807,-2.400001,3.1609187,0.53484666,-0.17339778,-0.17217667,7.033994772693255,0.5880242770721797,jump
05/08/2020, 15:23:12,6.1304116,-2.481357,3.0723844,0.53484666,-0.17339778,-0.17217667,7.292367611185573,0.5880242770721797,jump
05/08/2020, 15:23:12,6.1304116,-2.481357,3.0723844,0.5092034,-0.18194556,-0.29062447,7.292367611185573,0.61388504333661,jump
05/08/2020, 15:23:12,6.5204415,-2.617748,3.0053852,0.5092034,-0.18194556,-0.29062447,7.642061400153898,0.61388504333661,jump
05/08/2020, 15:23:12,6.5204415,-2.617748,3.0053852,0.49577114,-0.22712667,-0.41762,7.642061400153898,0.6868638989907802,jump
05/08/2020, 15:23:13,8.676374,-3.711268,3.1226335,-0.091583334,0.023201112,-0.06349778,9.94001120897694,0.11383218754775792,jump
05/08/2020, 15:23:13,8.676374,-3.711268,3.1226335,-0.10013112,0.025643334,-0.07570889,9.94001120897694,0.1281236001470688,jump
05/08/2020, 15:23:13,8.664411,-3.7806597,3.1058838,-0.10013112,0.025643334,-0.07570889,9.950472997886221,0.1281236001470688,jump
05/08/2020, 15:23:13,8.664411,-3.7806597,3.1058838,-0.11356334,0.019537779,-0.078151114,9.950472997886221,0.13923344726411158,jump
05/08/2020, 15:23:13,8.645268,-3.8069808,3.1274192,-0.11356334,0.019537779,-0.078151114,9.950604034142554,0.13923344726411158,jump
05/08/2020, 15:23:13,8.645268,-3.8069808,3.1274192,-0.13188,0.012211111,-0.08425667,9.950604034142554,0.15697334924380352,jump
05/08/2020, 15:23:13,8.657232,-3.8356948,3.141776,-0.13188,0.012211111,-0.08425667,9.976521553998417,0.15697334924380352,jump
05/08/2020, 15:23:13,8.657232,-3.8356948,3.141776,-0.14531223,0.007326667,-0.089141116,9.976521553998417,0.17063254116314644,jump
05/08/2020, 15:23:13,8.690732,-3.842873,3.2039895,-0.14531223,0.007326667,-0.089141116,10.028062879923,0.17063254116314644,jump
05/08/2020, 15:23:13,8.690732,-3.842873,3.2039895,-0.15386,0.0,-0.09036223,10.028062879923,0.17843271218903173,jump
05/08/2020, 15:23:13,8.738588,-3.842873,3.2327034,-0.15386,0.0,-0.09036223,10.07873857533336,0.17843271218903173,jump
05/08/2020, 15:23:13,8.738588,-3.842873,3.2327034,-0.16118668,-0.0048844446,-0.09280445,10.07873857533336,0.186058240939593,jump
05/08/2020, 15:23:13,8.772088,-3.8213377,3.2470603,-0.16118668,-0.0048844446,-0.09280445,10.104234318994784,0.186058240939593,jump
05/08/2020, 15:23:13,8.772088,-3.8213377,3.2470603,-0.16485001,0.0024422223,-0.089141116,10.104234318994784,0.18742366235796037,jump
05/08/2020, 15:23:13,8.796016,-3.830909,3.2997024,-0.16485001,0.0024422223,-0.089141116,10.145629242575676,0.18742366235796037,jump
05/08/2020, 15:23:13,8.796016,-3.830909,3.2997024,-0.16973445,0.02198,-0.089141116,10.145629242575676,0.1929741998654852,jump
05/08/2020, 15:23:13,8.76491,-3.8356948,3.318845,-0.16973445,0.02198,-0.089141116,10.126743292075082,0.1929741998654852,jump
05/08/2020, 15:23:13,8.76491,-3.8356948,3.318845,-0.16362889,0.024422223,-0.089141116,10.126743292075082,0.18792817098781084,jump
05/08/2020, 15:23:13,8.671589,-3.8237305,3.330809,-0.16362889,0.024422223,-0.089141116,10.045479484728414,0.18792817098781084,jump
05/08/2020, 15:23:13,8.671589,-3.8237305,3.330809,-0.13920668,0.015874445,-0.08425667,10.045479484728414,0.16349215209774706,jump
05/08/2020, 15:23:14,8.6548395,-3.6993039,3.2063823,-0.09524667,0.06105556,0.02198,9.943439214986569,0.11525116243298093,jump
05/08/2020, 15:23:14,8.595019,-3.7136607,3.1609187,-0.09524667,0.06105556,0.02198,9.882157684061815,0.11525116243298093,jump
05/08/2020, 15:23:14,8.595019,-3.7136607,3.1609187,-0.091583334,0.058613338,0.017095556,9.882157684061815,0.11006947098663242,jump
05/08/2020, 15:23:14,8.583055,-3.7471602,3.1130621,-0.091583334,0.058613338,0.017095556,9.869204158655249,0.11006947098663242,jump
05/08/2020, 15:23:14,8.583055,-3.7471602,3.1130621,-0.07570889,0.05617111,0.02198,9.869204158655249,0.09679953522190714,jump
05/08/2020, 15:23:14,8.575876,-3.804588,3.1082766,-0.07570889,0.05617111,0.02198,9.883416773859459,0.09679953522190714,jump
05/08/2020, 15:23:14,8.575876,-3.804588,3.1082766,-0.054950003,0.05372889,0.015874445,9.883416773859459,0.07847480096954952,jump
05/08/2020, 15:23:14,8.609376,-3.8237305,3.1130621,-0.054950003,0.05372889,0.015874445,9.921362049515222,0.07847480096954952,jump
05/08/2020, 15:23:14,8.609376,-3.8237305,3.1130621,-0.03052778,0.059834447,0.017095556,9.921362049515222,0.06931352257527038,jump
05/08/2020, 15:23:14,8.63809,-3.8141594,3.0795627,-0.03052778,0.059834447,0.017095556,9.932175956789825,0.06931352257527038,jump
05/08/2020, 15:23:14,8.63809,-3.8141594,3.0795627,-0.019537779,0.06227667,0.015874445,9.932175956789825,0.06717221369067242,jump
05/08/2020, 15:23:14,8.666803,-3.8261235,3.0843484,-0.019537779,0.06227667,0.015874445,9.963227721720017,0.06717221369067242,jump
05/08/2020, 15:23:14,8.666803,-3.8261235,3.0843484,-0.012211111,0.057392225,0.013432222,9.963227721720017,0.06019471150028196,jump
05/08/2020, 15:23:14,8.688339,-3.7806597,3.0723844,-0.012211111,0.057392225,0.013432222,9.960932278518039,0.06019471150028196,jump
05/08/2020, 15:23:14,8.688339,-3.7806597,3.0723844,-0.013432222,0.059834447,0.012211111,9.960932278518039,0.06252756879115448,jump
05/08/2020, 15:23:14,8.76491,-3.7447674,3.0580273,-0.013432222,0.059834447,0.012211111,10.009917915708643,0.06252756879115448,jump
05/08/2020, 15:23:14,8.76491,-3.7447674,3.0580273,-0.028085556,0.06960334,0.009768889,10.009917915708643,0.07568919621966733,jump
05/08/2020, 15:23:14,8.800801,-3.7208393,3.034099,-0.028085556,0.06960334,0.009768889,10.025193529037622,0.07568919621966733,jump
05/08/2020, 15:23:14,8.800801,-3.7208393,3.034099,-0.036633335,0.078151114,0.0024422223,10.025193529037622,0.08634559833034865,jump
05/08/2020, 15:23:14,8.843872,-3.6849468,3.0269206,-0.036633335,0.078151114,0.0024422223,10.047644201123743,0.08634559833034865,jump
05/08/2020, 15:23:15,8.595019,-3.1465619,3.4097722,-0.10379445,0.08303556,0.028085556,9.767382206936752,0.13585650470268024,jump
05/08/2020, 15:23:15,8.595019,-3.1465619,3.4097722,-0.102573335,0.059834447,0.025643334,9.767382206936752,0.12148675102616355,jump
05/08/2020, 15:23:15,8.657232,-3.1609187,3.4193435,-0.102573335,0.059834447,0.025643334,9.830106190302553,0.12148675102616355,jump
05/08/2020, 15:23:15,8.657232,-3.1609187,3.4193435,-0.10013112,0.04151778,0.017095556,9.830106190302553,0.10973707029459825,jump
05/08/2020, 15:23:15,8.7266245,-3.199204,3.414558,-0.10013112,0.04151778,0.017095556,9.901923393036268,0.10973707029459825,jump
05/08/2020, 15:23:15,8.7266245,-3.199204,3.414558,-0.098910004,0.04396,0.0048844446,9.901923393036268,0.10834910422838992,jump
05/08/2020, 15:23:15,8.776874,-3.2207394,3.4648073,-0.098910004,0.04396,0.0048844446,9.970534663509527,0.10834910422838992,jump
05/08/2020, 15:23:15,8.776874,-3.2207394,3.4648073,-0.09280445,0.047623336,-0.0024422223,9.970534663509527,0.1043389283084688,jump
05/08/2020, 15:23:15,8.7984085,-3.2063823,3.4528432,-0.09280445,0.047623336,-0.0024422223,9.980731719641792,0.1043389283084688,jump
05/08/2020, 15:23:15,8.7984085,-3.2063823,3.4528432,-0.08669889,0.04396,-0.017095556,9.980731719641792,0.09869871958794434,jump
05/08/2020, 15:23:15,8.748159,-3.1752756,3.4719856,-0.08669889,0.04396,-0.017095556,9.933144104656632,0.09869871958794434,jump
05/08/2020, 15:23:15,8.748159,-3.1752756,3.4719856,-0.08303556,0.03174889,-0.026864445,9.933144104656632,0.09286869460385365,jump
05/08/2020, 15:23:15,8.702696,-3.1848469,3.4432719,-0.08303556,0.03174889,-0.026864445,9.886166387539724,0.09286869460385365,jump
05/08/2020, 15:23:15,8.702696,-3.1848469,3.4432719,-0.08425667,0.014653334,-0.028085556,9.886166387539724,0.09001502834649973,jump
05/08/2020, 15:23:15,8.659625,-3.1920254,3.4600215,-0.08425667,0.014653334,-0.028085556,9.856463925693635,0.09001502834649973,jump
05/08/2020, 15:23:15,8.659625,-3.1920254,3.4600215,-0.07693,0.007326667,-0.04151778,9.856463925693635,0.08772474654579811,jump
05/08/2020, 15:23:15,8.609376,-3.1872396,3.4791641,-0.07693,0.007326667,-0.04151778,9.81755742927155,0.08772474654579811,jump
05/08/2020, 15:23:15,8.609376,-3.1872396,3.4791641,-0.06716111,-0.0036633336,-0.046402223,9.81755742927155,0.08171414475395694,jump
05/08/2020, 15:23:15,8.597412,-3.2063823,3.5126636,-0.06716111,-0.0036633336,-0.046402223,9.825232203674068,0.08171414475395694,jump
05/08/2020, 15:23:15,8.597412,-3.2063823,3.5126636,-0.05372889,-0.013432222,-0.054950003,9.825232203674068,0.07801744015496699,jump
05/08/2020, 15:23:16,0.6580262,0.37088752,-3.1106694,-0.13188,2.9257824,2.4446645,3.2010654495521584,3.8149678431662166,jump
05/08/2020, 15:23:16,0.6580262,0.37088752,-3.1106694,-0.16729222,2.6082935,2.251729,3.2010654495521584,3.449850052545237,jump
05/08/2020, 15:23:16,0.08853444,0.9810573,-3.1393833,-0.16729222,2.6082935,2.251729,3.2902947209202194,3.449850052545237,jump
05/08/2020, 15:23:16,0.08853444,0.9810573,-3.1393833,-0.23201112,2.3506389,2.0270445,3.2902947209202194,3.112594060879572,jump
05/08/2020, 15:23:16,-0.4211368,1.6845472,-3.225525,-0.23201112,2.3506389,2.0270445,3.6632043784780444,3.112594060879572,jump
05/08/2020, 15:23:16,-0.4211368,1.6845472,-3.225525,-0.28940335,2.129618,1.7510734,3.6632043784780444,2.772234610856528,jump
05/08/2020, 15:23:16,-0.9523434,2.3832514,-3.330809,-0.28940335,2.129618,1.7510734,4.204894136752372,2.772234610856528,jump
05/08/2020, 15:23:16,-0.9523434,2.3832514,-3.330809,-0.35900667,1.9269134,1.4653333,4.204894136752372,2.4472602584415104,jump
05/08/2020, 15:23:16,-1.6079768,2.9072795,-3.4791641,-0.35900667,1.9269134,1.4653333,4.810659664804355,2.4472602584415104,jump
05/08/2020, 15:23:16,-1.6079768,2.9072795,-3.4791641,-0.46524334,1.669259,1.1820356,4.810659664804355,2.0976379316034643,jump
05/08/2020, 15:23:16,-2.3688943,3.278167,-3.6370904,-0.46524334,1.669259,1.1820356,5.439344283150986,2.0976379316034643,jump
05/08/2020, 15:23:16,-2.3688943,3.278167,-3.6370904,-0.60933447,1.3554333,0.8755367,5.439344283150986,1.7248340574207925,jump
05/08/2020, 15:23:16,-3.0436704,3.397808,-3.6777685,-0.60933447,1.3554333,0.8755367,5.859608367904252,1.7248340574207925,jump
05/08/2020, 15:23:16,-3.0436704,3.397808,-3.6777685,-0.7302245,1.0184067,0.5140878,5.859608367904252,1.3544985692848783,jump
05/08/2020, 15:23:16,-3.5676985,3.3260236,-3.5772698,-0.7302245,1.0184067,0.5140878,6.048782063303557,1.3544985692848783,jump
05/08/2020, 15:23:16,-3.5676985,3.3260236,-3.5772698,-0.74121445,0.6386411,0.15019667,6.048782063303557,0.9898587707767953,jump
05/08/2020, 15:23:16,-3.9314077,3.1274192,-3.3762727,-0.74121445,0.6386411,0.15019667,6.052762566387903,0.9898587707767953,jump
05/08/2020, 15:23:16,-3.9314077,3.1274192,-3.3762727,-0.6789378,0.2625389,-0.25643334,6.052762566387903,0.7717779878180222,jump
05/08/2020, 15:23:16,-4.130012,3.0436704,-3.141776,-0.6789378,0.2625389,-0.25643334,6.015952624517726,0.7717779878180222,jump
05/08/2020, 15:23:16,-4.130012,3.0436704,-3.141776,-0.5678167,-0.07448778,-0.6764956,6.015952624517726,0.8863467258934118,jump
05/08/2020, 15:23:17,6.896115,-4.4195433,2.2707887,0.026864445,-0.0012211112,-0.11356334,8.499720204851167,0.1167039883227164,jump
05/08/2020, 15:23:17,7.1042905,-4.4721856,2.4430718,0.026864445,-0.0012211112,-0.11356334,8.742996481328836,0.1167039883227164,jump
05/08/2020, 15:23:17,7.1042905,-4.4721856,2.4430718,0.017095556,-0.0061055557,-0.11966889,8.742996481328836,0.1210379276799612,jump
05/08/2020, 15:23:17,7.3746796,-4.5248275,2.5627131,0.017095556,-0.0061055557,-0.11966889,9.023716589584726,0.1210379276799612,jump
05/08/2020, 15:23:17,7.3746796,-4.5248275,2.5627131,0.0048844446,0.014653334,-0.12699556,9.023716589584726,0.1279314314733277,jump
05/08/2020, 15:23:17,7.556534,-4.65404,2.603391,0.0048844446,0.014653334,-0.12699556,9.248726108811491,0.1279314314733277,jump
05/08/2020, 15:23:17,7.556534,-4.65404,2.603391,-0.014653334,0.018316668,-0.12821667,9.248726108811491,0.13034467660106733,jump
05/08/2020, 15:23:17,7.6426754,-4.7856455,2.5818555,-0.014653334,0.018316668,-0.12821667,9.379705111569992,0.13034467660106733,jump
05/08/2020, 15:23:17,7.6426754,-4.7856455,2.5818555,-0.028085556,0.025643334,-0.12577444,9.379705111569992,0.13139859042906887,jump
05/08/2020, 15:23:17,7.6833534,-4.871787,2.5459633,-0.028085556,0.025643334,-0.12577444,9.447230184934602,0.13139859042906887,jump
05/08/2020, 15:23:17,7.6833534,-4.871787,2.5459633,-0.018316668,0.023201112,-0.12821667,9.447230184934602,0.13158003683567746,jump
05/08/2020, 15:23:17,7.7240314,-4.912465,2.5674987,-0.018316668,0.023201112,-0.12821667,9.507103902977079,0.13158003683567746,jump
05/08/2020, 15:23:17,7.7240314,-4.912465,2.5674987,0.0024422223,-0.0036633336,-0.12211112,9.507103902977079,0.12219046577752904,jump
05/08/2020, 15:23:17,7.795816,-4.9363933,2.5674987,0.0024422223,-0.0036633336,-0.12211112,9.577827215083063,0.12219046577752904,jump
05/08/2020, 15:23:17,7.795816,-4.9363933,2.5674987,0.03052778,-0.037854444,-0.11478445,9.577827215083063,0.12466103681552372,jump
05/08/2020, 15:23:17,7.975278,-4.9268217,2.6081767,0.03052778,-0.037854444,-0.11478445,9.730427302217937,0.12466103681552372,jump
05/08/2020, 15:23:17,7.975278,-4.9268217,2.6081767,0.054950003,-0.078151114,-0.102573335,9.730427302217937,0.14017270966801962,jump
05/08/2020, 15:23:17,8.221739,-4.8765726,2.6416762,0.054950003,-0.078151114,-0.102573335,9.917479651461885,0.14017270966801962,jump
05/08/2020, 15:23:17,8.221739,-4.8765726,2.6416762,0.06960334,-0.10013112,-0.08669889,9.917479651461885,0.1496247399706294,jump
05/08/2020, 15:23:17,8.535198,-4.843073,2.7349963,0.06960334,-0.10013112,-0.08669889,10.187500596626018,0.1496247399706294,jump
05/08/2020, 15:23:18,6.795616,-5.6039906,2.1391835,-0.057392225,0.31382558,0.18683001,9.064282383778915,0.3697104470687724,jump
05/08/2020, 15:23:18,6.795616,-5.6039906,2.1391835,-0.08303556,0.27963445,0.18438779,9.064282383778915,0.345093007368644,jump
05/08/2020, 15:23:18,6.896115,-5.692525,2.065006,-0.08303556,0.27963445,0.18438779,9.17744460075397,0.345093007368644,jump
05/08/2020, 15:23:18,6.896115,-5.692525,2.065006,-0.123332225,0.24422224,0.18194556,9.17744460075397,0.3285719513139176,jump
05/08/2020, 15:23:18,7.0229344,-5.76431,2.0985055,-0.123332225,0.24422224,0.18194556,9.324837899557437,0.3285719513139176,jump
05/08/2020, 15:23:18,7.0229344,-5.76431,2.0985055,-0.15630223,0.21125223,0.17950334,9.324837899557437,0.31824414854065153,jump
05/08/2020, 15:23:18,7.1377897,-5.8600225,2.2037897,-0.15630223,0.21125223,0.17950334,9.494450773627978,0.31824414854065153,jump
05/08/2020, 15:23:18,7.1377897,-5.8600225,2.2037897,-0.16729222,0.17217667,0.17950334,9.494450773627978,0.29975480408792593,jump
05/08/2020, 15:23:18,7.2789664,-6.005985,2.3521447,-0.16729222,0.17217667,0.17950334,9.725625441796375,0.29975480408792593,jump
05/08/2020, 15:23:18,7.2789664,-6.005985,2.3521447,-0.14775445,0.1306589,0.18805112,9.725625441796375,0.27251852510508884,jump
05/08/2020, 15:23:18,7.463214,-6.1495543,2.5674987,-0.14775445,0.1306589,0.18805112,10.005429976891982,0.27251852510508884,jump
05/08/2020, 15:23:18,7.463214,-6.1495543,2.5674987,-0.11600556,0.102573335,0.19415668,10.005429976891982,0.2483453132264135,jump
05/08/2020, 15:23:18,7.6666036,-6.2213387,2.8259234,-0.11600556,0.102573335,0.19415668,10.269747288027148,0.2483453132264135,jump
05/08/2020, 15:23:18,7.6666036,-6.2213387,2.8259234,-0.089141116,0.102573335,0.1856089,10.269747288027148,0.23003932047478512,jump
05/08/2020, 15:23:18,7.8173513,-6.242874,3.0029924,-0.089141116,0.102573335,0.1856089,10.445210524114875,0.23003932047478512,jump
05/08/2020, 15:23:18,7.8173513,-6.242874,3.0029924,-0.08669889,0.11356334,0.17217667,10.445210524114875,0.22373675588729602,jump
05/08/2020, 15:23:18,7.853244,-6.1974106,3.1274192,-0.08669889,0.11356334,0.17217667,10.481511704929439,0.22373675588729602,jump
05/08/2020, 15:23:18,7.853244,-6.1974106,3.1274192,-0.11844778,0.12699556,0.16607112,10.481511704929439,0.24028600824473623,jump
05/08/2020, 15:23:18,7.793423,-6.1471615,3.1609187,-0.11844778,0.12699556,0.16607112,10.417122741550344,0.24028600824473623,jump
05/08/2020, 15:23:18,7.793423,-6.1471615,3.1609187,-0.18194556,0.14409111,0.14653334,10.417122741550344,0.2744785177528312,jump
05/08/2020, 15:23:19,6.9224358,-5.65424,3.871587,0.18438779,0.014653334,0.05617111,9.740622901777392,0.19331003707551886,jump
05/08/2020, 15:23:19,6.9224358,-5.65424,3.871587,0.20392556,0.018316668,0.06960334,9.740622901777392,0.21625392736401683,jump
05/08/2020, 15:23:19,6.8913293,-5.575277,3.8572302,0.20392556,0.018316668,0.06960334,9.667075878788028,0.21625392736401683,jump
05/08/2020, 15:23:19,6.8913293,-5.575277,3.8572302,0.20514667,0.02075889,0.081814446,9.667075878788028,0.2218325750465362,jump
05/08/2020, 15:23:19,6.9152575,-5.4867425,3.8285162,0.20514667,0.02075889,0.081814446,9.621988646539913,0.2218325750465362,jump
05/08/2020, 15:23:19,6.9152575,-5.4867425,3.8285162,0.19537778,0.029306669,0.07937223,9.621988646539913,0.21291150504165235,jump
05/08/2020, 15:23:19,6.9415784,-5.4149575,3.8404803,0.19537778,0.029306669,0.07937223,9.605028091895011,0.21291150504165235,jump
05/08/2020, 15:23:19,6.9415784,-5.4149575,3.8404803,0.18438779,0.04029667,0.08425667,9.605028091895011,0.20669268181506642,jump
05/08/2020, 15:23:19,6.948757,-5.359923,3.871587,0.18438779,0.04029667,0.08425667,9.591829114728352,0.20669268181506642,jump
05/08/2020, 15:23:19,6.948757,-5.359923,3.871587,0.16240779,0.057392225,0.08059334,9.591829114728352,0.19017213981510867,jump
05/08/2020, 15:23:19,6.9655066,-5.304888,3.8931224,0.16240779,0.057392225,0.08059334,9.58209361826477,0.19017213981510867,jump
05/08/2020, 15:23:19,6.9655066,-5.304888,3.8931224,0.14164889,0.07937223,0.070824444,9.58209361826477,0.1771453075787191,jump
05/08/2020, 15:23:19,6.95115,-5.2809596,3.9194436,0.14164889,0.07937223,0.070824444,9.569172276024338,0.1771453075787191,jump
05/08/2020, 15:23:19,6.95115,-5.2809596,3.9194436,0.12821667,0.089141116,0.078151114,9.569172276024338,0.17462316382682455,jump
05/08/2020, 15:23:19,6.9296145,-5.2570314,3.9433718,0.12821667,0.089141116,0.078151114,9.550189434475051,0.17462316382682455,jump
05/08/2020, 15:23:19,6.9296145,-5.2570314,3.9433718,0.10867889,0.091583334,0.08059334,9.550189434475051,0.16338266474754318,jump
05/08/2020, 15:23:19,6.9990063,-5.285745,3.9696927,0.10867889,0.091583334,0.08059334,9.627234841907047,0.16338266474754318,jump
05/08/2020, 15:23:19,6.9990063,-5.285745,3.9696927,0.11112112,0.098910004,0.08059334,9.627234841907047,0.16919331612309482,jump
05/08/2020, 15:23:19,7.082755,-5.326423,3.938586,0.11112112,0.098910004,0.08059334,9.697868996196641,0.16919331612309482,jump
05/08/2020, 15:23:19,7.082755,-5.326423,3.938586,0.10013112,0.11356334,0.07693,9.697868996196641,0.16982666765470222,jump
05/08/2020, 15:23:20,6.489335,-4.9674997,5.0943193,-0.14164889,0.19782001,0.21247335,9.630140844962057,0.32302025732570566,jump
05/08/2020, 15:23:20,6.448657,-4.9770713,5.0751767,-0.14164889,0.19782001,0.21247335,9.597595263464797,0.32302025732570566,jump
05/08/2020, 15:23:20,6.448657,-4.9770713,5.0751767,-0.15019667,0.19415668,0.20270446,9.597595263464797,0.31834722087566736,jump
