DATE,TIME,ax,ay,az,gx,gy,gz,ma,mg,label
05/08/2020, 15:19:57,0.55034924,-0.79920274,9.879965,0.037854444,0.019537779,0.009768889,9.927502924361594,0.04370486171763125,jump
05/08/2020, 15:19:57,0.55034924,-0.79920274,9.879965,0.03052778,0.018316668,0.009768889,9.927502924361594,0.0369171619801482,jump
05/08/2020, 15:19:57,0.57906306,-0.73459655,9.868001,0.03052778,0.018316668,0.009768889,9.912234336464742,0.0369171619801482,jump
05/08/2020, 15:19:57,0.57906306,-0.73459655,9.868001,0.007326667,0.02198,0.01099,9.912234336464742,0.02564333419182471,jump
05/08/2020, 15:19:57,0.60059845,-0.6771688,9.860822,0.007326667,0.02198,0.01099,9.90227656351055,0.02564333419182471,jump
05/08/2020, 15:19:57,0.60059845,-0.6771688,9.860822,-0.007326667,0.03052778,0.0048844446,9.90227656351055,0.0317723652438014,jump
05/08/2020, 15:19:57,0.6149554,-0.61734825,9.879965,-0.007326667,0.03052778,0.0048844446,9.918316089622412,0.0317723652438014,jump
05/08/2020, 15:19:57,0.6149554,-0.61734825,9.879965,-0.01099,0.036633335,0.0012211112,9.918316089622412,0.03826581316124187,jump
05/08/2020, 15:19:57,0.6221339,-0.62931234,9.875179,-0.01099,0.036633335,0.0012211112,9.914749146825237,0.03826581316124187,jump
05/08/2020, 15:19:57,0.6221339,-0.62931234,9.875179,-0.01099,0.045181114,-0.009768889,9.914749146825237,0.04751362318200412,jump
05/08/2020, 15:19:57,0.6149554,-0.6723832,9.891929,-0.01099,0.045181114,-0.009768889,9.933807034352725,0.04751362318200412,jump
05/08/2020, 15:19:57,0.6149554,-0.6723832,9.891929,0.0,0.034191113,-0.013432222,9.933807034352725,0.03673495344911595,jump
05/08/2020, 15:19:57,0.6221339,-0.72023964,9.894321,0.0,0.034191113,-0.013432222,9.939989563952476,0.03673495344911595,jump
05/08/2020, 15:19:57,0.6221339,-0.72023964,9.894321,0.014653334,0.03174889,-0.009768889,9.939989563952476,0.03630624572501357,jump
05/08/2020, 15:19:57,0.62931234,-0.72023964,9.879965,0.014653334,0.03174889,-0.009768889,9.92615152851388,0.03630624572501357,jump
05/08/2020, 15:19:57,0.62931234,-0.72023964,9.879965,0.029306669,0.03052778,-0.019537779,9.92615152851388,0.0466106314960501,jump
05/08/2020, 15:19:57,0.61734825,-0.6987042,9.860822,0.029306669,0.03052778,-0.019537779,9.904802444933004,0.0466106314960501,jump
05/08/2020, 15:19:57,0.61734825,-0.6987042,9.860822,0.029306669,0.034191113,-0.015874445,9.904802444933004,0.04774841420661229,jump
05/08/2020, 15:19:57,0.65084773,-0.72263247,9.856036,0.029306669,0.034191113,-0.015874445,9.903900734511824,0.04774841420661229,jump
05/08/2020, 15:19:57,0.65084773,-0.72263247,9.856036,0.008547778,0.036633335,-0.014653334,9.903900734511824,0.04037060761124506,jump
05/08/2020, 15:19:58,0.62452674,-0.715454,9.817751,0.0036633336,0.04151778,-0.037854444,9.863576500828364,0.0563036850811511,jump
05/08/2020, 15:19:58,0.62452674,-0.715454,9.817751,0.007326667,0.04029667,-0.04151778,9.863576500828364,0.05832004510945479,jump
05/08/2020, 15:19:58,0.61734825,-0.72023964,9.829716,0.007326667,0.04029667,-0.04151778,9.875382286909213,0.05832004510945479,jump
05/08/2020, 15:19:58,0.61734825,-0.72023964,9.829716,0.009768889,0.034191113,-0.034191113,9.875382286909213,0.04933047343673886,jump
05/08/2020, 15:19:58,0.59342,-0.74895346,9.858429,0.009768889,0.034191113,-0.034191113,9.904630234414718,0.04933047343673886,jump
05/08/2020, 15:19:58,0.59342,-0.74895346,9.858429,0.0036633336,0.03052778,-0.023201112,9.904630234414718,0.038518267599429154,jump
05/08/2020, 15:19:58,0.6125626,-0.7680961,9.846465,0.0036633336,0.03052778,-0.023201112,9.895356472370011,0.038518267599429154,jump
05/08/2020, 15:19:58,0.6125626,-0.7680961,9.846465,0.008547778,0.026864445,-0.025643334,9.895356472370011,0.038109624470270304,jump
05/08/2020, 15:19:58,0.59581286,-0.79441714,9.846465,0.008547778,0.026864445,-0.025643334,9.896411811126972,0.038109624470270304,jump
05/08/2020, 15:19:58,0.59581286,-0.79441714,9.846465,0.01099,0.023201112,-0.02198,9.896411811126972,0.03379633294551257,jump
05/08/2020, 15:19:58,0.5910272,-0.782453,9.793823,0.01099,0.023201112,-0.02198,9.84279023187414,0.03379633294551257,jump
05/08/2020, 15:19:58,0.5910272,-0.782453,9.793823,0.0036633336,0.018316668,-0.02198,9.84279023187414,0.02884511659454889,jump
05/08/2020, 15:19:58,0.5910272,-0.7369894,9.767502,0.0036633336,0.018316668,-0.02198,9.813080989970137,0.02884511659454889,jump
05/08/2020, 15:19:58,0.5910272,-0.7369894,9.767502,-0.007326667,0.02075889,-0.025643334,9.813080989970137,0.03379633291186252,jump
05/08/2020, 15:19:58,0.57427746,-0.70348984,9.772287,-0.007326667,0.02075889,-0.025643334,9.814392134750829,0.03379633291186252,jump
05/08/2020, 15:19:58,0.57427746,-0.70348984,9.772287,-0.013432222,0.025643334,-0.026864445,9.814392134750829,0.03949308247657644,jump
05/08/2020, 15:19:58,0.59581286,-0.6723832,9.757931,-0.013432222,0.025643334,-0.026864445,9.799199188977065,0.03949308247657644,jump
05/08/2020, 15:19:58,0.59581286,-0.6723832,9.757931,-0.014653334,0.025643334,-0.023201112,9.799199188977065,0.03755785352193349,jump
05/08/2020, 15:19:58,0.5910272,-0.6987042,9.755538,-0.014653334,0.025643334,-0.023201112,9.798368338550713,0.03755785352193349,jump
05/08/2020, 15:19:58,0.5910272,-0.6987042,9.755538,0.008547778,0.019537779,-0.02075889,9.798368338550713,0.029761061849876595,jump
05/08/2020, 15:19:59,3.8261235,0.49052864,8.788837,-0.14164889,0.4261678,-0.07693,9.598098906805069,0.4556332019045787,jump
05/08/2020, 15:19:59,3.8261235,0.49052864,8.788837,-0.04396,-0.24055889,-0.07693,9.598098906805069,0.2563577336132762,jump
05/08/2020, 15:19:59,2.0721843,-0.0526421,13.739588,-0.04396,-0.24055889,-0.07693,13.895070763889263,0.2563577336132762,jump
05/08/2020, 15:19:59,2.0721843,-0.0526421,13.739588,0.046402223,-0.039075557,-0.17950334,13.895070763889263,0.18947694671219684,jump
05/08/2020, 15:19:59,-3.493521,-1.8975084,8.338987,0.046402223,-0.039075557,-0.17950334,9.238178223953902,0.18947694671219684,jump
05/08/2020, 15:19:59,-3.493521,-1.8975084,8.338987,-0.03174889,0.49821335,-0.10745778,9.238178223953902,0.5106581139104761,jump
05/08/2020, 15:19:59,1.6941184,-0.55513483,6.910472,-0.03174889,0.49821335,-0.10745778,7.136724309830843,0.5106581139104761,jump
05/08/2020, 15:19:59,1.6941184,-0.55513483,6.910472,-0.06227667,0.0036633336,-0.04029667,7.136724309830843,0.07426725464669202,jump
05/08/2020, 15:19:59,3.8691943,0.148355,13.380664,-0.06227667,0.0036633336,-0.04029667,13.929638873638158,0.07426725464669202,jump
05/08/2020, 15:19:59,3.8691943,0.148355,13.380664,0.06105556,-0.19049335,-0.12211112,13.929638873638158,0.23436429211505777,jump
05/08/2020, 15:19:59,-2.8259234,-1.847259,10.803595,0.06105556,-0.19049335,-0.12211112,11.318827913319472,0.23436429211505777,jump
05/08/2020, 15:19:59,-2.8259234,-1.847259,10.803595,0.0,0.34557447,-0.1306589,11.318827913319472,0.36945021312292153,jump
05/08/2020, 15:19:59,-0.96909314,-1.2849457,6.142376,0.0,0.34557447,-0.1306589,6.349725136095466,0.36945021312292153,jump
05/08/2020, 15:19:59,-0.96909314,-1.2849457,6.142376,-0.14164889,0.28329778,-0.036633335,6.349725136095466,0.3188479879632025,jump
05/08/2020, 15:19:59,4.4051867,0.40438703,11.753545,-0.14164889,0.28329778,-0.036633335,12.558463833485574,0.3188479879632025,jump
05/08/2020, 15:19:59,4.4051867,0.40438703,11.753545,0.014653334,-0.26986557,-0.08059334,12.558463833485574,0.28202381791667047,jump
05/08/2020, 15:19:59,-1.0863415,-1.1772687,12.827922,0.014653334,-0.26986557,-0.08059334,12.927555027345965,0.28202381791667047,jump
05/08/2020, 15:19:59,-1.0863415,-1.1772687,12.827922,0.06960334,0.27108666,-0.13554333,12.927555027345965,0.310973629674901,jump
05/08/2020, 15:19:59,-2.7326035,-1.8161523,6.4558353,0.06960334,0.27108666,-0.13554333,7.241777504907314,0.310973629674901,jump
05/08/2020, 15:19:59,-2.7326035,-1.8161523,6.4558353,-0.10379445,0.42250445,-0.047623336,7.241777504907314,0.43766572173589763,jump
05/08/2020, 15:20:00,8.683554,-9.382257,3.3044882,5.0077767,-1.34078,-2.4922879,13.204185018619361,5.752131583956858,jump
05/08/2020, 15:20:00,8.683554,-9.382257,3.3044882,5.4876738,-1.3993934,-2.3323224,13.204185018619361,6.1247524745817294,jump
05/08/2020, 15:20:00,8.5112705,-9.332008,3.5294135,5.4876738,-1.3993934,-2.3323224,13.114300033377233,6.1247524745817294,jump
05/08/2020, 15:20:00,8.5112705,-9.332008,3.5294135,5.8820925,-1.4775445,-2.122291,13.114300033377233,6.42543922571618,jump
05/08/2020, 15:20:00,8.405986,-9.391829,3.6131623,5.8820925,-1.4775445,-2.122291,13.111902330893043,6.42543922571618,jump
05/08/2020, 15:20:00,8.405986,-9.391829,3.6131623,6.1556215,-1.5508112,-1.8377723,13.111902330893043,6.608638175671299,jump
05/08/2020, 15:20:00,8.5112705,-9.707682,3.723232,6.1556215,-1.5508112,-1.8377723,13.436638932581698,6.608638175671299,jump
05/08/2020, 15:20:00,8.5112705,-9.707682,3.723232,6.35222,-1.6167512,-1.5019667,13.436638932581698,6.724618064002432,jump
05/08/2020, 15:20:00,8.793623,-9.97807,3.8333018,6.35222,-1.6167512,-1.5019667,13.841383370194528,6.724618064002432,jump
05/08/2020, 15:20:00,8.793623,-9.97807,3.8333018,6.5073013,-1.6680379,-1.1918045,13.841383370194528,6.822588881606601,jump
05/08/2020, 15:20:00,9.150154,-9.9038925,3.9720855,6.5073013,-1.6680379,-1.1918045,14.0566664015274,6.822588881606601,jump
05/08/2020, 15:20:00,9.150154,-9.9038925,3.9720855,6.5940003,-1.7144401,-0.95857227,14.0566664015274,6.8803347413492855,jump
05/08/2020, 15:20:00,9.51147,-9.406186,4.132405,6.5940003,-1.7144401,-0.95857227,14.000755873239491,6.8803347413492855,jump
05/08/2020, 15:20:00,9.51147,-9.406186,4.132405,6.524397,-1.7510734,-0.79128003,14.000755873239491,6.801480490503385,jump
05/08/2020, 15:20:00,9.777073,-8.5112705,4.3238306,6.524397,-1.7510734,-0.79128003,13.664859737028957,6.801480490503385,jump
05/08/2020, 15:20:00,9.777073,-8.5112705,4.3238306,6.2594156,-1.7754956,-0.6667267,13.664859737028957,6.5404276073309875,jump
05/08/2020, 15:20:00,9.982856,-7.2622166,4.5726843,6.2594156,-1.7754956,-0.6667267,13.16459801658852,6.5404276073309875,jump
05/08/2020, 15:20:00,9.982856,-7.2622166,4.5726843,5.7709713,-1.73642,-0.5556056,13.16459801658852,6.052103918149594,jump
05/08/2020, 15:20:00,10.12164,-5.9007006,4.8693943,5.7709713,-1.73642,-0.5556056,12.687665999937412,6.052103918149594,jump
05/08/2020, 15:20:00,10.12164,-5.9007006,4.8693943,5.0944757,-1.6008767,-0.46768558,12.687665999937412,5.360524144464151,jump
05/08/2020, 15:20:01,7.7072816,-2.7756743,4.0295134,0.037854444,-0.28085557,-0.24178001,9.129268068683619,0.3725189695320414,jump
05/08/2020, 15:20:01,7.7240314,-2.8546374,4.0510488,0.037854444,-0.28085557,-0.24178001,9.177178892908042,0.3725189695320414,jump
05/08/2020, 15:20:01,7.7240314,-2.8546374,4.0510488,-0.0012211112,-0.3394689,-0.24788557,9.177178892908042,0.42034257279937326,jump
05/08/2020, 15:20:01,7.826923,-2.9503503,4.058227,-0.0012211112,-0.3394689,-0.24788557,9.29701541740418,0.42034257279937326,jump
05/08/2020, 15:20:01,7.826923,-2.9503503,4.058227,-0.012211111,-0.36999667,-0.2515489,9.29701541740418,0.44757511879298245,jump
05/08/2020, 15:20:01,7.9011,-3.0460632,4.0295134,-0.012211111,-0.36999667,-0.2515489,9.377785589040343,0.44757511879298245,jump
05/08/2020, 15:20:01,7.9011,-3.0460632,4.0295134,0.0036633336,-0.37366003,-0.26498112,9.377785589040343,0.4580941288831851,jump
05/08/2020, 15:20:01,7.9369926,-3.129812,4.0007997,0.0036633336,-0.37366003,-0.26498112,9.42326765547579,0.4580941288831851,jump
05/08/2020, 15:20:01,7.9369926,-3.129812,4.0007997,0.03052778,-0.39075556,-0.27719223,9.42326765547579,0.48005977883888656,jump
05/08/2020, 15:20:01,7.8891363,-3.2039895,4.0007997,0.03052778,-0.39075556,-0.27719223,9.407997577959636,0.48005977883888656,jump
05/08/2020, 15:20:01,7.8891363,-3.2039895,4.0007997,0.068382226,-0.42372558,-0.30649891,9.407997577959636,0.5274097807009233,jump
05/08/2020, 15:20:01,7.8221374,-3.2422748,4.024728,0.068382226,-0.42372558,-0.30649891,9.375319326622161,0.5274097807009233,jump
05/08/2020, 15:20:01,7.8221374,-3.2422748,4.024728,0.10501556,-0.47501224,-0.32237336,9.375319326622161,0.5836004475201989,jump
05/08/2020, 15:20:01,7.7910304,-3.2590244,4.0438704,0.10501556,-0.47501224,-0.32237336,9.363454647243605,0.5836004475201989,jump
05/08/2020, 15:20:01,7.7910304,-3.2590244,4.0438704,0.13432223,-0.5262989,-0.32359445,9.363454647243605,0.632254965020513,jump
05/08/2020, 15:20:01,7.834101,-3.3164523,4.1108694,0.13432223,-0.5262989,-0.32359445,9.448346126431534,0.632254965020513,jump
05/08/2020, 15:20:01,7.834101,-3.3164523,4.1108694,0.14653334,-0.56171113,-0.3162678,9.448346126431534,0.6610724091842921,jump
05/08/2020, 15:20:01,7.9298143,-3.4049866,4.1922255,0.14653334,-0.56171113,-0.3162678,9.594302663766756,0.6610724091842921,jump
05/08/2020, 15:20:01,7.9298143,-3.4049866,4.1922255,0.09036223,-0.5922389,-0.29306668,9.594302663766756,0.6669335272654998,jump
05/08/2020, 15:20:01,8.111669,-3.4289148,4.2975097,0.09036223,-0.5922389,-0.29306668,9.799245544037964,0.6669335272654998,jump
05/08/2020, 15:20:02,-2.7828526,2.4789643,-1.4787644,-0.22224224,1.6216357,2.9196768,4.009523314262476,3.3471788687063517,jump
05/08/2020, 15:20:02,-3.400201,2.6081767,-1.4811572,-0.22224224,1.6216357,2.9196768,4.534068784609891,3.3471788687063517,jump
05/08/2020, 15:20:02,-3.400201,2.6081767,-1.4811572,-0.26376,1.3432223,2.6327157,4.534068784609891,2.967323262932332,jump
05/08/2020, 15:20:02,-3.7998023,2.7445676,-1.3686945,-0.26376,1.3432223,2.6327157,4.883080358639764,2.967323262932332,jump
05/08/2020, 15:20:02,-3.7998023,2.7445676,-1.3686945,-0.24788557,1.0635878,2.3335435,4.883080358639764,2.5764494329046275,jump
05/08/2020, 15:20:02,-4.017549,2.8522446,-1.0959128,-0.24788557,1.0635878,2.3335435,5.047477044559741,2.5764494329046275,jump
05/08/2020, 15:20:02,-4.017549,2.8522446,-1.0959128,-0.19537778,0.8327978,2.0380344,5.047477044559741,2.2102735284311934,jump
05/08/2020, 15:20:02,-4.106084,2.9599216,-0.66759753,-0.19537778,0.8327978,2.0380344,5.105560408114638,2.2102735284311934,jump
05/08/2020, 15:20:02,-4.106084,2.9599216,-0.66759753,-0.10867889,0.67039,1.746189,5.105560408114638,1.8736087864016622,jump
05/08/2020, 15:20:02,-4.2041893,3.1250265,-0.19860429,-0.10867889,0.67039,1.746189,5.242179102305213,1.8736087864016622,jump
05/08/2020, 15:20:02,-4.2041893,3.1250265,-0.19860429,-0.008547778,0.5421733,1.4433534,5.242179102305213,1.5418476121870457,jump
05/08/2020, 15:20:02,-4.342973,3.3499517,0.11246266,-0.008547778,0.5421733,1.4433534,5.486004104468901,1.5418476121870457,jump
05/08/2020, 15:20:02,-4.342973,3.3499517,0.11246266,0.081814446,0.40907225,1.1173167,5.486004104468901,1.1926568527999972,jump
05/08/2020, 15:20:02,-4.570291,3.6586258,0.40438703,0.081814446,0.40907225,1.1173167,5.868273351222794,1.1926568527999972,jump
05/08/2020, 15:20:02,-4.570291,3.6586258,0.40438703,0.15752333,0.27108666,0.78761667,5.868273351222794,0.8477273138767936,jump
05/08/2020, 15:20:02,-4.847859,3.9290147,0.6053841,0.15752333,0.27108666,0.78761667,6.269400471355335,0.8477273138767936,jump
05/08/2020, 15:20:02,-4.847859,3.9290147,0.6053841,0.20392556,0.12943779,0.4701278,6.269400471355335,0.528545094901964,jump
05/08/2020, 15:20:02,-5.1182475,4.1611185,0.76570326,0.20392556,0.12943779,0.4701278,6.640607372798591,0.528545094901964,jump
05/08/2020, 15:20:02,-5.1182475,4.1611185,0.76570326,0.22468445,-0.0036633336,0.15508112,6.640607372798591,0.2730323708014242,jump
05/08/2020, 15:20:02,-5.369494,4.3070807,0.8781659,0.22468445,-0.0036633336,0.15508112,6.939278442311111,0.2730323708014242,jump
05/08/2020, 15:20:03,8.003992,-5.259424,4.113262,-1.6607112,1.1356333,0.024422223,10.423260429296246,2.0120191691243288,jump
05/08/2020, 15:20:03,8.003992,-5.259424,4.113262,-1.3029256,1.0452712,0.05250778,10.423260429296246,1.6712163072726745,jump
05/08/2020, 15:20:03,8.090134,-5.2737813,4.197011,-1.3029256,1.0452712,0.05250778,10.529859126746054,1.6712163072726745,jump
05/08/2020, 15:20:03,8.090134,-5.2737813,4.197011,-1.0379444,1.0147433,0.11234222,10.529859126746054,1.4559029670532118,jump
05/08/2020, 15:20:03,8.216953,-5.2426744,4.2257247,-1.0379444,1.0147433,0.11234222,10.623591893975647,1.4559029670532118,jump
05/08/2020, 15:20:03,8.216953,-5.2426744,4.2257247,-0.8120389,0.9915423,0.15874445,10.623591893975647,1.291419012906237,jump
05/08/2020, 15:20:03,8.274381,-5.0249276,4.1587257,-0.8120389,0.9915423,0.15874445,10.536141277412355,1.291419012906237,jump
05/08/2020, 15:20:03,8.274381,-5.0249276,4.1587257,-0.6020078,0.9292656,0.1526389,10.536141277412355,1.1176970167339528,jump
05/08/2020, 15:20:03,8.219346,-4.694718,4.072584,-0.6020078,0.9292656,0.1526389,10.304560501017558,1.1176970167339528,jump
05/08/2020, 15:20:03,8.219346,-4.694718,4.072584,-0.40785113,0.8437878,0.12699556,10.304560501017558,0.9457527428734941,jump
05/08/2020, 15:20:03,8.059027,-4.3645086,4.0295134,-0.40785113,0.8437878,0.12699556,10.011684429998542,0.9457527428734941,jump
05/08/2020, 15:20:03,8.059027,-4.3645086,4.0295134,-0.21980001,0.7534256,0.13188,10.011684429998542,0.7958357311275323,jump
05/08/2020, 15:20:03,7.8460655,-4.1467614,3.9649072,-0.21980001,0.7534256,0.13188,9.719920950184731,0.7958357311275323,jump
05/08/2020, 15:20:03,7.8460655,-4.1467614,3.9649072,-0.035412222,0.65085226,0.16118668,9.719920950184731,0.6714490595485602,jump
05/08/2020, 15:20:03,7.6977105,-4.0390844,3.8739798,-0.035412222,0.65085226,0.16118668,9.517177615856847,0.6714490595485602,jump
05/08/2020, 15:20:03,7.6977105,-4.0390844,3.8739798,0.14653334,0.5324045,0.18805112,9.517177615856847,0.5833436175719405,jump
05/08/2020, 15:20:03,7.62114,-3.8620157,3.7830527,0.14653334,0.5324045,0.18805112,9.343897902036991,0.5833436175719405,jump
05/08/2020, 15:20:03,7.62114,-3.8620157,3.7830527,0.29184556,0.40174556,0.18194556,9.343897902036991,0.5288454517137284,jump
05/08/2020, 15:20:03,7.611569,-3.6323047,3.7423747,0.29184556,0.40174556,0.18194556,9.226862241932801,0.5288454517137284,jump
05/08/2020, 15:20:03,7.611569,-3.6323047,3.7423747,0.36389112,0.28818223,0.15752333,9.226862241932801,0.49018297442371206,jump
05/08/2020, 15:20:04,8.3174515,-3.0436704,4.302295,0.26986557,-0.04151778,-0.0048844446,9.846505610122374,0.2730842562047263,jump
05/08/2020, 15:20:04,8.3174515,-3.0436704,4.302295,0.30772,-0.054950003,0.0024422223,9.846505610122374,0.3125972952953328,jump
05/08/2020, 15:20:04,8.319844,-3.0005996,4.321438,0.30772,-0.054950003,0.0024422223,9.843689925016971,0.3125972952953328,jump
05/08/2020, 15:20:04,8.319844,-3.0005996,4.321438,0.31504667,-0.058613338,-0.0036633336,9.843689925016971,0.32047362825354164,jump
05/08/2020, 15:20:04,8.322237,-2.885744,4.3238306,0.31504667,-0.058613338,-0.0036633336,9.812372751166823,0.32047362825354164,jump
05/08/2020, 15:20:04,8.322237,-2.885744,4.3238306,0.30283555,-0.064718895,0.007326667,9.812372751166823,0.309760533436436,jump
05/08/2020, 15:20:04,8.248059,-2.7828526,4.321438,0.30283555,-0.064718895,0.007326667,9.718517150507308,0.309760533436436,jump
05/08/2020, 15:20:04,8.248059,-2.7828526,4.321438,0.28085557,-0.07326667,0.01099,9.718517150507308,0.2904627930681739,jump
05/08/2020, 15:20:04,8.224132,-2.713461,4.3525443,0.28085557,-0.07326667,0.01099,9.692463693034862,0.2904627930681739,jump
05/08/2020, 15:20:04,8.224132,-2.713461,4.3525443,0.2503278,-0.09524667,0.014653334,9.692463693034862,0.26823619102953195,jump
05/08/2020, 15:20:04,8.2049885,-2.6464617,4.45065,0.2503278,-0.09524667,0.014653334,9.702261744116246,0.26823619102953195,jump
05/08/2020, 15:20:04,8.2049885,-2.6464617,4.45065,0.20881,-0.117226675,0.0061055557,9.702261744116246,0.23954329034791502,jump
05/08/2020, 15:20:04,8.221739,-2.6081767,4.493721,0.20881,-0.117226675,0.0061055557,9.725898590304574,0.23954329034791502,jump
05/08/2020, 15:20:04,8.221739,-2.6081767,4.493721,0.16240779,-0.14775445,0.0012211112,9.725898590304574,0.21956583561514048,jump
05/08/2020, 15:20:04,8.260024,-2.5316064,4.536792,0.16240779,-0.14775445,0.0012211112,9.75804840347644,0.21956583561514048,jump
05/08/2020, 15:20:04,8.260024,-2.5316064,4.536792,0.09768889,-0.14897557,0.0036633336,9.75804840347644,0.17818602276956796,jump
05/08/2020, 15:20:04,8.295917,-2.4837499,4.610969,0.09768889,-0.14897557,0.0036633336,9.810824667604459,0.17818602276956796,jump
05/08/2020, 15:20:04,8.295917,-2.4837499,4.610969,0.03297,-0.13432223,0.0061055557,9.810824667604459,0.13844406496654146,jump
05/08/2020, 15:20:04,8.240881,-2.469393,4.6205406,0.03297,-0.13432223,0.0061055557,9.765214619853639,0.13844406496654146,jump
05/08/2020, 15:20:04,8.240881,-2.469393,4.6205406,-0.01099,-0.12089001,0.02075889,9.765214619853639,0.12315074201267971,jump
05/08/2020, 15:20:05,8.516056,-2.5818555,5.003392,-0.014653334,0.064718895,0.0012211112,10.208972648575006,0.06636826536384248,jump
05/08/2020, 15:20:05,8.523234,-2.5866413,4.9938207,-0.014653334,0.064718895,0.0012211112,10.2114877570832,0.06636826536384248,jump
05/08/2020, 15:20:05,8.523234,-2.5866413,4.9938207,-0.03174889,0.07937223,0.0048844446,10.2114877570832,0.08562593252502604,jump
05/08/2020, 15:20:05,8.484949,-2.5938199,4.955536,-0.03174889,0.07937223,0.0048844446,10.16265707503798,0.08562593252502604,jump
05/08/2020, 15:20:05,8.484949,-2.5938199,4.955536,-0.042738892,0.085477784,0.008547778,10.16265707503798,0.09594857486582535,jump
05/08/2020, 15:20:05,8.49452,-2.5818555,4.9435716,-0.042738892,0.085477784,0.008547778,10.161778932024884,0.09594857486582535,jump
05/08/2020, 15:20:05,8.49452,-2.5818555,4.9435716,-0.051286668,0.09768889,0.01099,10.161778932024884,0.11087931187927941,jump
05/08/2020, 15:20:05,8.49452,-2.589034,4.8933225,-0.051286668,0.09768889,0.01099,10.139259117790829,0.11087931187927941,jump
05/08/2020, 15:20:05,8.49452,-2.589034,4.8933225,-0.06716111,0.11234222,0.0048844446,10.139259117790829,0.1309780442998382,jump
05/08/2020, 15:20:05,8.525627,-2.5459633,4.855037,-0.06716111,0.11234222,0.0048844446,10.136056109754744,0.1309780442998382,jump
05/08/2020, 15:20:05,8.525627,-2.5459633,4.855037,-0.09402556,0.13188,0.0048844446,10.136056109754744,0.16204011275727578,jump
05/08/2020, 15:20:05,8.56152,-2.5124638,4.7856455,-0.09402556,0.13188,0.0048844446,10.124944214454842,0.16204011275727578,jump
05/08/2020, 15:20:05,8.56152,-2.5124638,4.7856455,-0.11844778,0.15508112,0.008547778,10.124944214454842,0.19532817510609524,jump
05/08/2020, 15:20:05,8.5423765,-2.5339992,4.682754,-0.11844778,0.15508112,0.008547778,10.065859821473992,0.19532817510609524,jump
05/08/2020, 15:20:05,8.5423765,-2.5339992,4.682754,-0.13554333,0.17584,0.014653334,10.065859821473992,0.22250038737136243,jump
05/08/2020, 15:20:05,8.496913,-2.5459633,4.6061835,-0.13554333,0.17584,0.014653334,9.994817934727205,0.22250038737136243,jump
05/08/2020, 15:20:05,8.496913,-2.5459633,4.6061835,-0.13188,0.18194556,0.02198,9.994817934727205,0.22578671917121693,jump
05/08/2020, 15:20:05,8.453842,-2.57707,4.5726843,-0.13188,0.18194556,0.02198,9.950787842669326,0.22578671917121693,jump
05/08/2020, 15:20:05,8.453842,-2.57707,4.5726843,-0.11844778,0.17584,0.024422223,9.950787842669326,0.21341515679907747,jump
05/08/2020, 15:20:05,8.391629,-2.6105695,4.54397,-0.11844778,0.17584,0.024422223,9.893542251765012,0.21341515679907747,jump
05/08/2020, 15:20:06,11.598011,-2.981457,15.029319,0.15141778,1.61553,0.67039,19.216747103447034,1.7556444215099556,jump
05/08/2020, 15:20:06,11.598011,-2.981457,15.029319,0.0061055557,1.9611045,0.65329444,19.216747103447034,2.0670659922484798,jump
05/08/2020, 15:20:06,12.222538,-2.5172493,15.304494,0.0061055557,1.9611045,0.65329444,19.747265961496076,2.0670659922484798,jump
05/08/2020, 15:20:06,12.222538,-2.5172493,15.304494,-0.2625389,2.3384278,0.71801335,19.747265961496076,2.4602264807200864,jump
05/08/2020, 15:20:06,12.887743,-2.009971,15.890736,-0.2625389,2.3384278,0.71801335,20.558438202145872,2.4602264807200864,jump
05/08/2020, 15:20:06,12.887743,-2.009971,15.890736,-0.6935911,2.8036711,0.88896894,20.558438202145872,3.021904396440249,jump
05/08/2020, 15:20:06,13.708481,-1.5601203,16.220945,-0.6935911,2.8036711,0.88896894,21.2949639728962,3.021904396440249,jump
05/08/2020, 15:20:06,13.708481,-1.5601203,16.220945,-1.1844778,3.2762413,1.1173167,21.2949639728962,3.6585709511324853,jump
05/08/2020, 15:20:06,14.634503,-1.282553,16.252052,-1.1844778,3.2762413,1.1173167,21.907597654921926,3.6585709511324853,jump
05/08/2020, 15:20:06,14.634503,-1.282553,16.252052,-1.724209,3.7585802,1.3676445,21.907597654921926,4.355487721961813,jump
05/08/2020, 15:20:06,15.63231,-1.3974084,16.151552,-1.724209,3.7585802,1.3676445,22.52097914961628,4.355487721961813,jump
05/08/2020, 15:20:06,15.63231,-1.3974084,16.151552,-2.2407389,4.3129644,1.636289,22.52097914961628,5.128353988017742,jump
05/08/2020, 15:20:06,16.421942,-2.132005,15.696917,-2.2407389,4.3129644,1.636289,22.817072696153517,5.128353988017742,jump
05/08/2020, 15:20:06,16.421942,-2.132005,15.696917,-2.7169724,4.9161935,1.9818634,22.817072696153517,5.956398206628943,jump
05/08/2020, 15:20:06,16.797615,-3.4313076,15.254245,-2.7169724,4.9161935,1.9818634,22.948327335439515,5.956398206628943,jump
05/08/2020, 15:20:06,16.797615,-3.4313076,15.254245,-3.1394768,5.4974422,2.4092524,22.948327335439515,6.773675724600542,jump
05/08/2020, 15:20:06,16.68276,-4.7425747,14.670396,-3.1394768,5.4974422,2.4092524,22.716228082942024,6.773675724600542,jump
05/08/2020, 15:20:06,16.68276,-4.7425747,14.670396,-3.4533024,5.966349,2.7877967,22.716228082942024,7.436022449642258,jump
05/08/2020, 15:20:06,16.187445,-5.797809,13.878371,-3.4533024,5.966349,2.7877967,22.096541457177832,7.436022449642258,jump
05/08/2020, 15:20:06,16.187445,-5.797809,13.878371,-3.6389112,6.327798,3.0747578,22.096541457177832,7.92065886247212,jump
05/08/2020, 15:20:07,14.658431,1.3495519,8.915657,2.2224224,-2.0758889,-0.18316667,17.209875996971846,3.0466417232810263,jump
05/08/2020, 15:20:07,13.887942,2.0458634,9.322437,2.2224224,-2.0758889,-0.18316667,16.851360054605305,3.0466417232810263,jump
05/08/2020, 15:20:07,13.887942,2.0458634,9.322437,1.4885345,-1.6826912,0.04396,16.851360054605305,2.2470240368351546,jump
05/08/2020, 15:20:07,13.081561,2.333002,9.734002,1.4885345,-1.6826912,0.04396,16.471822498144977,2.2470240368351546,jump
05/08/2020, 15:20:07,13.081561,2.333002,9.734002,0.8633256,-1.4225945,0.28329778,16.471822498144977,1.6880059125902622,jump
05/08/2020, 15:20:07,12.452249,2.5052853,10.224531,0.8633256,-1.4225945,0.28329778,16.305704109382468,1.6880059125902622,jump
05/08/2020, 15:20:07,12.452249,2.5052853,10.224531,0.24666445,-1.2284378,0.47501224,16.305704109382468,1.3399773744715873,jump
05/08/2020, 15:20:07,12.062219,2.6249263,10.750952,0.24666445,-1.2284378,0.47501224,16.369799060306246,1.3399773744715873,jump
05/08/2020, 15:20:07,12.062219,2.6249263,10.750952,-0.36877558,-1.00009,0.6191034,16.369799060306246,1.2326655771879902,jump
05/08/2020, 15:20:07,11.770294,2.536392,11.143375,-0.36877558,-1.00009,0.6191034,16.405728413633476,1.2326655771879902,jump
05/08/2020, 15:20:07,11.770294,2.536392,11.143375,-0.9549089,-0.75953114,0.72900337,16.405728413633476,1.4213319414466277,jump
05/08/2020, 15:20:07,11.478371,2.1415763,11.30848,-0.9549089,-0.75953114,0.72900337,16.25487828368016,1.4213319414466277,jump
05/08/2020, 15:20:07,11.478371,2.1415763,11.30848,-1.460449,-0.5336256,0.81936556,16.25487828368016,1.7575629236526302,jump
05/08/2020, 15:20:07,11.23191,1.4859428,11.406586,-1.460449,-0.5336256,0.81936556,16.077127230325043,1.7575629236526302,jump
05/08/2020, 15:20:07,11.23191,1.4859428,11.406586,-1.8353301,-0.31016225,0.9085067,16.077127230325043,2.07123675822144,jump
05/08/2020, 15:20:07,10.966306,0.6652047,11.511869,-1.8353301,-0.31016225,0.9085067,15.913060563809132,2.07123675822144,jump
05/08/2020, 15:20:07,10.966306,0.6652047,11.511869,-2.0636778,-0.09646778,0.98910004,15.913060563809132,2.290500148690002,jump
05/08/2020, 15:20:07,10.674382,-0.20338993,11.600404,-2.0636778,-0.09646778,0.98910004,15.765569162403924,2.290500148690002,jump
05/08/2020, 15:20:07,10.674382,-0.20338993,11.600404,-2.1589246,0.09036223,1.0306178,15.765569162403924,2.3940120698946017,jump
05/08/2020, 15:20:07,10.423136,-1.0193424,11.796616,-2.1589246,0.09036223,1.0306178,15.774693582457354,2.3940120698946017,jump
05/08/2020, 15:20:08,8.348558,-1.7635103,4.895715,-0.48478112,0.56049,-0.05250778,9.837500912890839,0.7429124116766143,jump
05/08/2020, 15:20:08,8.348558,-1.7635103,4.895715,-0.65329444,0.5788067,-0.024422223,9.837500912890839,0.8731593609748288,jump
05/08/2020, 15:20:08,8.449057,-1.8783658,4.85743,-0.65329444,0.5788067,-0.024422223,9.925192279803694,0.8731593609748288,jump
05/08/2020, 15:20:08,8.449057,-1.8783658,4.85743,-0.77906895,0.60933447,-0.008547778,9.925192279803694,0.9890955380341886,jump
05/08/2020, 15:20:08,8.537591,-2.0841484,4.7976093,-0.77906895,0.60933447,-0.008547778,10.012551603312941,0.9890955380341886,jump
05/08/2020, 15:20:08,8.537591,-2.0841484,4.7976093,-0.85966223,0.6423045,-0.0061055557,10.012551603312941,1.0731316232634918,jump
05/08/2020, 15:20:08,8.580662,-2.254039,4.7449675,-0.85966223,0.6423045,-0.0061055557,10.060972354194572,1.0731316232634918,jump
05/08/2020, 15:20:08,8.580662,-2.254039,4.7449675,-0.8950745,0.65940005,-0.0061055557,10.060972354194572,1.1117571835186457,jump
05/08/2020, 15:20:08,8.5423765,-2.4670002,4.6564326,-0.8950745,0.65940005,-0.0061055557,10.03696426308903,1.1117571835186457,jump
05/08/2020, 15:20:08,8.5423765,-2.4670002,4.6564326,-0.89263225,0.65451556,0.012211111,10.03696426308903,1.1069471812004281,jump
05/08/2020, 15:20:08,8.489735,-2.656033,4.56072,-0.89263225,0.65451556,0.012211111,9.996513019185018,1.1069471812004281,jump
05/08/2020, 15:20:08,8.489735,-2.656033,4.56072,-0.8498934,0.6349778,0.047623336,9.996513019185018,1.0619715566879653,jump
05/08/2020, 15:20:08,8.432307,-2.8115666,4.496114,-0.8498934,0.6349778,0.047623336,9.961111947994766,1.0619715566879653,jump
05/08/2020, 15:20:08,8.432307,-2.8115666,4.496114,-0.7863956,0.60445005,0.06960334,9.961111947994766,0.994294995745951,jump
05/08/2020, 15:20:08,8.441878,-2.9072795,4.4243293,-0.7863956,0.60445005,0.06960334,9.964550826598915,0.994294995745951,jump
05/08/2020, 15:20:08,8.441878,-2.9072795,4.4243293,-0.7070234,0.5678167,0.09402556,9.964550826598915,0.9116680563221642,jump
05/08/2020, 15:20:08,8.482556,-2.9742785,4.3405805,-0.7070234,0.5678167,0.09402556,9.982020495422848,0.9116680563221642,jump
05/08/2020, 15:20:08,8.482556,-2.9742785,4.3405805,-0.6191034,0.5360678,0.11600556,9.982020495422848,0.827112413567232,jump
05/08/2020, 15:20:08,8.568698,-2.9958138,4.3238306,-0.6191034,0.5360678,0.11600556,10.05450127581081,0.827112413567232,jump
05/08/2020, 15:20:08,8.568698,-2.9958138,4.3238306,-0.5336256,0.51653004,0.14042778,10.05450127581081,0.7558303547773838,jump
05/08/2020, 15:20:09,8.260024,-2.6656044,4.5798626,0.070824444,-0.05617111,-0.106236674,9.813693779669762,0.13949023831697596,jump
05/08/2020, 15:20:09,8.260024,-2.6656044,4.5798626,0.089141116,-0.058613338,-0.10501556,9.813693779669762,0.1496994651679896,jump
05/08/2020, 15:20:09,8.286345,-2.6823542,4.6061835,0.089141116,-0.058613338,-0.10501556,9.852687778444624,0.1496994651679896,jump
05/08/2020, 15:20:09,8.286345,-2.6823542,4.6061835,0.10501556,-0.07204556,-0.10501556,9.852687778444624,0.16506695129617777,jump
05/08/2020, 15:20:09,8.30788,-2.6488547,4.6325045,0.10501556,-0.07204556,-0.10501556,9.874077463893293,0.16506695129617777,jump
05/08/2020, 15:20:09,8.30788,-2.6488547,4.6325045,0.11356334,-0.08303556,-0.09768889,9.874077463893293,0.17127362544840807,jump
05/08/2020, 15:20:09,8.338987,-2.6416762,4.644469,0.11356334,-0.08303556,-0.09768889,9.903951403329808,0.17127362544840807,jump
05/08/2020, 15:20:09,8.338987,-2.6416762,4.644469,0.106236674,-0.081814446,-0.09280445,9.903951403329808,0.16307206912880892,jump
05/08/2020, 15:20:09,8.379665,-2.6368906,4.6468616,0.106236674,-0.081814446,-0.09280445,9.938073575215501,0.16307206912880892,jump
05/08/2020, 15:20:09,8.379665,-2.6368906,4.6468616,0.08792,-0.070824444,-0.091583334,9.938073575215501,0.1453737796978017,jump
05/08/2020, 15:20:09,8.384451,-2.6201408,4.625326,0.08792,-0.070824444,-0.091583334,9.927627960552055,0.1453737796978017,jump
05/08/2020, 15:20:09,8.384451,-2.6201408,4.625326,0.064718895,-0.05006556,-0.08425667,9.927627960552055,0.11744906187172019,jump
05/08/2020, 15:20:09,8.394022,-2.5842485,4.5894337,0.064718895,-0.05006556,-0.08425667,9.909634053597737,0.11744906187172019,jump
05/08/2020, 15:20:09,8.394022,-2.5842485,4.5894337,0.047623336,-0.037854444,-0.07937223,9.909634053597737,0.10000445769852612,jump
05/08/2020, 15:20:09,8.310273,-2.5698915,4.6061835,0.047623336,-0.037854444,-0.07937223,9.842860811211537,0.10000445769852612,jump
05/08/2020, 15:20:09,8.310273,-2.5698915,4.6061835,0.03052778,-0.039075557,-0.08059334,9.842860811211537,0.09462627000884674,jump
05/08/2020, 15:20:09,8.243274,-2.5938199,4.584648,0.03052778,-0.039075557,-0.08059334,9.78255906278355,0.09462627000884674,jump
05/08/2020, 15:20:09,8.243274,-2.5938199,4.584648,0.02075889,-0.046402223,-0.07570889,9.78255906278355,0.09119174101216646,jump
05/08/2020, 15:20:09,8.216953,-2.6105695,4.601398,0.02075889,-0.046402223,-0.07570889,9.772730306008148,0.09119174101216646,jump
05/08/2020, 15:20:09,8.216953,-2.6105695,4.601398,0.018316668,-0.06227667,-0.08059334,9.772730306008148,0.10348512096051951,jump
05/08/2020, 15:20:10,8.41795,-2.7182465,4.4554358,0.024422223,-0.0048844446,-0.0012211112,9.904627621538685,0.024935795072704124,jump
05/08/2020, 15:20:10,8.41795,-2.7182465,4.4554358,0.024422223,-0.008547778,-0.0048844446,9.904627621538685,0.026331868074714427,jump
05/08/2020, 15:20:10,8.394022,-2.7278178,4.4674,0.024422223,-0.008547778,-0.0048844446,9.892333312317415,0.026331868074714427,jump
05/08/2020, 15:20:10,8.394022,-2.7278178,4.4674,0.028085556,-0.012211111,-0.0036633336,9.892333312317415,0.030843633106472066,jump
05/08/2020, 15:20:10,8.384451,-2.7230322,4.436293,0.028085556,-0.012211111,-0.0036633336,9.868871179361115,0.030843633106472066,jump
05/08/2020, 15:20:10,8.384451,-2.7230322,4.436293,0.03174889,-0.018316668,-0.012211111,9.868871179361115,0.03863422863461049,jump
05/08/2020, 15:20:10,8.386844,-2.737389,4.429115,0.03174889,-0.018316668,-0.012211111,9.871651535006308,0.03863422863461049,jump
05/08/2020, 15:20:10,8.386844,-2.737389,4.429115,0.04029667,-0.023201112,-0.017095556,9.871651535006308,0.04954161132655494,jump
05/08/2020, 15:20:10,8.367701,-2.7302105,4.4147577,0.04029667,-0.023201112,-0.017095556,9.846956298880563,0.04954161132655494,jump
05/08/2020, 15:20:10,8.367701,-2.7302105,4.4147577,0.05006556,-0.026864445,-0.015874445,9.846956298880563,0.05899369926231469,jump
05/08/2020, 15:20:10,8.348558,-2.7756743,4.426722,0.05006556,-0.026864445,-0.015874445,9.84878997416089,0.05899369926231469,jump
05/08/2020, 15:20:10,8.348558,-2.7756743,4.426722,0.059834447,-0.029306669,-0.02198,9.84878997416089,0.07015812343062297,jump
05/08/2020, 15:20:10,8.3581295,-2.806781,4.45065,0.059834447,-0.029306669,-0.02198,9.876468801213825,0.07015812343062297,jump
05/08/2020, 15:20:10,8.3581295,-2.806781,4.45065,0.07204556,-0.036633335,-0.019537779,9.876468801213825,0.08315219985701726,jump
05/08/2020, 15:20:10,8.334201,-2.7996025,4.436293,0.07204556,-0.036633335,-0.019537779,9.847709117223525,0.08315219985701726,jump
05/08/2020, 15:20:10,8.334201,-2.7996025,4.436293,0.08792,-0.042738892,-0.024422223,9.847709117223525,0.1007620202717759,jump
05/08/2020, 15:20:10,8.329415,-2.7756743,4.4315076,0.08792,-0.042738892,-0.024422223,9.834723542225834,0.1007620202717759,jump
05/08/2020, 15:20:10,8.329415,-2.7756743,4.4315076,0.091583334,-0.045181114,-0.02075889,9.834723542225834,0.10421022805275079,jump
05/08/2020, 15:20:10,8.348558,-2.78046,4.4171505,0.091583334,-0.045181114,-0.02075889,9.845841937418246,0.10421022805275079,jump
05/08/2020, 15:20:10,8.348558,-2.78046,4.4171505,0.089141116,-0.04029667,-0.015874445,9.845841937418246,0.09910579254450524,jump
05/08/2020, 15:20:11,-3.2877383,-0.016749758,1.1485549,-0.6557367,0.46035892,0.63742,3.4826257684705744,1.0238286905449876,jump
05/08/2020, 15:20:11,-3.2877383,-0.016749758,1.1485549,-0.74732006,0.24422224,0.42983112,3.4826257684705744,0.8960393726709752,jump
05/08/2020, 15:20:11,-3.3116665,0.16031912,1.5074782,-0.74732006,0.24422224,0.42983112,3.6421597696499495,0.8960393726709752,jump
05/08/2020, 15:20:11,-3.3116665,0.16031912,1.5074782,-0.8498934,0.05617111,0.2185789,3.6421597696499495,0.8793467505711406,jump
05/08/2020, 15:20:11,-3.3690944,0.31585258,1.6534405,-0.8498934,0.05617111,0.2185789,3.7662216007307143,0.8793467505711406,jump
05/08/2020, 15:20:11,-3.3690944,0.31585258,1.6534405,-0.9536878,-0.11844778,-0.015874445,3.7662216007307143,0.9611463311738316,jump
05/08/2020, 15:20:11,-3.397808,0.46660042,1.6366907,-0.9536878,-0.11844778,-0.015874445,3.800206866615943,0.9611463311738316,jump
05/08/2020, 15:20:11,-3.397808,0.46660042,1.6366907,-1.0403867,-0.28329778,-0.26986557,3.800206866615943,1.1115257509327496,jump
05/08/2020, 15:20:11,-3.455236,0.57906306,1.5266209,-1.0403867,-0.28329778,-0.26986557,3.8215887816741287,1.1115257509327496,jump
05/08/2020, 15:20:11,-3.455236,0.57906306,1.5266209,-1.1234223,-0.46280113,-0.54339445,3.8215887816741287,1.330992109151191,jump
05/08/2020, 15:20:11,-3.4719856,0.5982057,1.4548361,-1.1234223,-0.46280113,-0.54339445,3.8117033023884144,1.330992109151191,jump
05/08/2020, 15:20:11,-3.4719856,0.5982057,1.4548361,-1.1954678,-0.65085226,-0.81570226,3.8117033023884144,1.5868592175412228,jump
05/08/2020, 15:20:11,-3.4456646,0.4354937,1.4117653,-1.1954678,-0.65085226,-0.81570226,3.7490453420452208,1.5868592175412228,jump
05/08/2020, 15:20:11,-3.4456646,0.4354937,1.4117653,-1.2137845,-0.81936556,-1.0672512,3.7490453420452208,1.812086577493085,jump
05/08/2020, 15:20:11,-3.347559,0.12203395,1.5218352,-1.2137845,-0.81936556,-1.0672512,3.679269734409922,1.812086577493085,jump
05/08/2020, 15:20:11,-3.347559,0.12203395,1.5218352,-1.1405178,-0.94880337,-1.2833878,3.679269734409922,1.9616556636414084,jump
05/08/2020, 15:20:11,-3.1657043,-0.34456646,1.7635103,-1.1405178,-0.94880337,-1.2833878,3.6401068927853912,1.9616556636414084,jump
05/08/2020, 15:20:11,-3.1657043,-0.34456646,1.7635103,-1.0123012,-1.0672512,-1.4909767,3.6401068927853912,2.0944666056593944,jump
05/08/2020, 15:20:11,-2.993421,-0.8542377,2.0817556,-1.0123012,-1.0672512,-1.4909767,3.744862920317856,2.0944666056593944,jump
05/08/2020, 15:20:11,-2.993421,-0.8542377,2.0817556,-0.8450089,-1.1844778,-1.7205456,3.744862920317856,2.2532876120705523,jump
05/08/2020, 15:20:12,8.348558,-2.428715,4.058227,0.29795113,-0.0061055557,-0.16973445,9.595118091245233,0.34296054847378377,jump
05/08/2020, 15:20:12,8.348558,-2.428715,4.058227,0.16118668,0.012211111,-0.1965989,9.595118091245233,0.2545218763039753,jump
05/08/2020, 15:20:12,8.219346,-2.3186452,3.9338005,0.16118668,0.012211111,-0.1965989,9.402582157339848,0.2545218763039753,jump
05/08/2020, 15:20:12,8.219346,-2.3186452,3.9338005,0.035412222,0.0,-0.2075889,9.402582157339848,0.2105876902489492,jump
05/08/2020, 15:20:12,8.078169,-2.2827528,3.8476589,0.035412222,0.0,-0.2075889,9.234297547971014,0.2105876902489492,jump
05/08/2020, 15:20:12,8.078169,-2.2827528,3.8476589,-0.046402223,-0.046402223,-0.21735778,9.234297547971014,0.22704787856617467,jump
05/08/2020, 15:20:12,8.025527,-2.4119651,3.792624,-0.046402223,-0.046402223,-0.21735778,9.198405090667531,0.22704787856617467,jump
05/08/2020, 15:20:12,8.025527,-2.4119651,3.792624,-0.07326667,-0.10745778,-0.22224224,9.198405090667531,0.25750105012294605,jump
05/08/2020, 15:20:12,8.142776,-2.5698915,3.7950168,-0.07326667,-0.10745778,-0.22224224,9.344050928433546,0.25750105012294605,jump
05/08/2020, 15:20:12,8.142776,-2.5698915,3.7950168,-0.054950003,-0.15630223,-0.21980001,9.344050928433546,0.275248858267939,jump
05/08/2020, 15:20:12,8.329415,-2.6488547,3.8476589,-0.054950003,-0.15630223,-0.21980001,9.549872762996985,0.275248858267939,jump
05/08/2020, 15:20:12,8.329415,-2.6488547,3.8476589,-0.02198,-0.1856089,-0.20270446,9.549872762996985,0.27572246861100697,jump
05/08/2020, 15:20:12,8.49452,-2.6632116,3.9026937,-0.02198,-0.1856089,-0.20270446,9.72011253277387,0.27572246861100697,jump
05/08/2020, 15:20:12,8.49452,-2.6632116,3.9026937,0.0012211112,-0.18316667,-0.18316667,9.72011253277387,0.2590396639750668,jump
05/08/2020, 15:20:12,8.592627,-2.658426,3.9840498,0.0012211112,-0.18316667,-0.18316667,9.837332627769642,0.2590396639750668,jump
05/08/2020, 15:20:12,8.592627,-2.658426,3.9840498,0.0,-0.16729222,-0.16851334,9.837332627769642,0.23745196219412174,jump
05/08/2020, 15:20:12,8.556734,-2.6153553,4.0007997,0.0,-0.16729222,-0.16851334,9.801233554513878,0.23745196219412174,jump
05/08/2020, 15:20:12,8.556734,-2.6153553,4.0007997,-0.013432222,-0.16607112,-0.15019667,9.801233554513878,0.2243191489842612,jump
05/08/2020, 15:20:12,8.496913,-2.6249263,4.024728,-0.013432222,-0.16607112,-0.15019667,9.761465159120258,0.2243191489842612,jump
05/08/2020, 15:20:12,8.496913,-2.6249263,4.024728,-0.013432222,-0.18072446,-0.14409111,9.761465159120258,0.23152538343071832,jump
05/08/2020, 15:20:13,8.595019,-2.5507488,4.6085763,0.13432223,-0.09768889,-0.025643334,10.080657345863768,0.16805701533087394,jump
05/08/2020, 15:20:13,8.597412,-2.5459633,4.6229334,0.13432223,-0.09768889,-0.025643334,10.088059136752332,0.16805701533087394,jump
05/08/2020, 15:20:13,8.597412,-2.5459633,4.6229334,0.09646778,-0.07693,-0.028085556,10.088059136752332,0.12654270334620335,jump
05/08/2020, 15:20:13,8.496913,-2.5220351,4.6372905,0.09646778,-0.07693,-0.028085556,10.00313220532069,0.12654270334620335,jump
05/08/2020, 15:20:13,8.496913,-2.5220351,4.6372905,0.06960334,-0.058613338,-0.019537779,10.00313220532069,0.09306918346417321,jump
05/08/2020, 15:20:13,8.425129,-2.498107,4.5966125,0.06960334,-0.058613338,-0.019537779,9.917266862119408,0.09306918346417321,jump
05/08/2020, 15:20:13,8.425129,-2.498107,4.5966125,0.048844445,-0.054950003,-0.02075889,9.917266862119408,0.07639511854561433,jump
05/08/2020, 15:20:13,8.394022,-2.507678,4.584648,0.048844445,-0.054950003,-0.02075889,9.887722323296009,0.07639511854561433,jump
05/08/2020, 15:20:13,8.394022,-2.507678,4.584648,0.036633335,-0.05617111,-0.02198,9.887722323296009,0.07057135015582867,jump
05/08/2020, 15:20:13,8.382058,-2.5052853,4.5894337,0.036633335,-0.05617111,-0.02198,9.879182880380387,0.07057135015582867,jump
05/08/2020, 15:20:13,8.382058,-2.5052853,4.5894337,0.035412222,-0.05006556,-0.028085556,9.879182880380387,0.06744912204635758,jump
05/08/2020, 15:20:13,8.405986,-2.524428,4.6372905,0.035412222,-0.05006556,-0.028085556,9.926620621449175,0.06744912204635758,jump
05/08/2020, 15:20:13,8.405986,-2.524428,4.6372905,0.02198,-0.04396,-0.019537779,9.926620621449175,0.052889762114499146,jump
05/08/2020, 15:20:13,8.453842,-2.5220351,4.644469,0.02198,-0.04396,-0.019537779,9.969914681841214,0.052889762114499146,jump
05/08/2020, 15:20:13,8.453842,-2.5220351,4.644469,0.009768889,-0.02075889,-0.02198,9.969914681841214,0.03177236416999237,jump
05/08/2020, 15:20:13,8.456235,-2.510071,4.666004,0.009768889,-0.02075889,-0.02198,9.978975942567601,0.03177236416999237,jump
05/08/2020, 15:20:13,8.456235,-2.510071,4.666004,-0.008547778,0.0036633336,-0.025643334,9.978975942567601,0.027277556597325132,jump
05/08/2020, 15:20:13,8.41795,-2.5603201,4.6492543,-0.008547778,0.0036633336,-0.025643334,9.951516553835043,0.027277556597325132,jump
05/08/2020, 15:20:13,8.41795,-2.5603201,4.6492543,-0.023201112,0.012211111,-0.034191113,9.951516553835043,0.04308636711430603,jump
05/08/2020, 15:20:13,8.374879,-2.5722845,4.618148,-0.023201112,0.012211111,-0.034191113,9.903662616390138,0.04308636711430603,jump
05/08/2020, 15:20:14,8.427522,-2.347359,4.24726,-0.04029667,0.03174889,-0.0048844446,9.724835957742496,0.05153320762815263,jump
05/08/2020, 15:20:14,8.427522,-2.347359,4.24726,-0.037854444,0.028085556,-0.0024422223,9.724835957742496,0.047198748366985586,jump
05/08/2020, 15:20:14,8.389236,-2.359323,4.2711883,-0.037854444,0.028085556,-0.0024422223,9.7050884847736,0.047198748366985586,jump
05/08/2020, 15:20:14,8.389236,-2.359323,4.2711883,-0.03052778,0.019537779,-0.01099,9.7050884847736,0.03787413682516203,jump
05/08/2020, 15:20:14,8.382058,-2.3545375,4.2424746,-0.03052778,0.019537779,-0.01099,9.685108975062217,0.03787413682516203,jump
05/08/2020, 15:20:14,8.382058,-2.3545375,4.2424746,-0.023201112,0.0061055557,-0.017095556,9.685108975062217,0.029458911147684477,jump
05/08/2020, 15:20:14,8.415557,-2.3641088,4.26401,-0.023201112,0.0061055557,-0.017095556,9.725861882825622,0.029458911147684477,jump
05/08/2020, 15:20:14,8.415557,-2.3641088,4.26401,-0.012211111,-0.0012211112,-0.025643334,9.725861882825622,0.02842855820232589,jump
05/08/2020, 15:20:14,8.427522,-2.3545375,4.2831526,-0.012211111,-0.0012211112,-0.025643334,9.742297721916005,0.02842855820232589,jump
05/08/2020, 15:20:14,8.427522,-2.3545375,4.2831526,-0.008547778,0.0,-0.024422223,9.742297721916005,0.025874881194615562,jump
05/08/2020, 15:20:14,8.441878,-2.361716,4.273581,-0.008547778,0.0,-0.024422223,9.75225650646499,0.025874881194615562,jump
05/08/2020, 15:20:14,8.441878,-2.361716,4.273581,-0.0036633336,0.0024422223,-0.025643334,9.75225650646499,0.026018551668461225,jump
05/08/2020, 15:20:14,8.439486,-2.349752,4.2687955,-0.0036633336,0.0024422223,-0.025643334,9.745197048208723,0.026018551668461225,jump
05/08/2020, 15:20:14,8.439486,-2.349752,4.2687955,-0.008547778,0.0,-0.03052778,9.745197048208723,0.03170189039100947,jump
05/08/2020, 15:20:14,8.41795,-2.3186452,4.24726,-0.008547778,0.0,-0.03052778,9.709645246018177,0.03170189039100947,jump
05/08/2020, 15:20:14,8.41795,-2.3186452,4.24726,-0.008547778,-0.0048844446,-0.026864445,9.709645246018177,0.028611548520319288,jump
05/08/2020, 15:20:14,8.410771,-2.3569303,4.2352962,-0.008547778,-0.0048844446,-0.026864445,9.707416215890099,0.028611548520319288,jump
05/08/2020, 15:20:14,8.410771,-2.3569303,4.2352962,-0.007326667,-0.015874445,-0.034191113,9.707416215890099,0.03840195666891963,jump
05/08/2020, 15:20:14,8.429914,-2.3904297,4.23051,-0.007326667,-0.015874445,-0.034191113,9.730099136855998,0.03840195666891963,jump
05/08/2020, 15:20:14,8.429914,-2.3904297,4.23051,0.0036633336,-0.028085556,-0.029306669,9.730099136855998,0.04075658594232962,jump
05/08/2020, 15:20:15,10.449456,-4.426722,11.487942,-0.83890337,1.0342811,0.49821335,16.148058978060284,1.4218694976418622,jump
05/08/2020, 15:20:15,10.449456,-4.426722,11.487942,-0.91217005,1.3224634,0.66428447,16.148058978060284,1.7384583645107594,jump
05/08/2020, 15:20:15,11.047662,-4.7784667,12.203396,-0.91217005,1.3224634,0.66428447,17.14081226094473,1.7384583645107594,jump
05/08/2020, 15:20:15,11.047662,-4.7784667,12.203396,-1.0941156,1.7205456,0.90362227,17.14081226094473,2.2302240956979946,jump
05/08/2020, 15:20:15,11.5621195,-5.24746,12.940385,-1.0941156,1.7205456,0.90362227,18.129313354106714,2.2302240956979946,jump
05/08/2020, 15:20:15,11.5621195,-5.24746,12.940385,-1.2638501,2.1345024,1.1478444,18.129313354106714,2.7333065037701636,jump
05/08/2020, 15:20:15,12.05504,-5.6350975,13.380664,-1.2638501,2.1345024,1.1478444,18.87115490885608,2.7333065037701636,jump
05/08/2020, 15:20:15,12.05504,-5.6350975,13.380664,-1.4006145,2.4874034,1.3810767,18.87115490885608,3.1711621607283877,jump
05/08/2020, 15:20:15,12.579068,-5.9964137,13.832908,-1.4006145,2.4874034,1.3810767,19.635153896047896,3.1711621607283877,jump
05/08/2020, 15:20:15,12.579068,-5.9964137,13.832908,-1.570349,2.789018,1.636289,19.635153896047896,3.59472649032889,jump
05/08/2020, 15:20:15,13.160524,-6.3792653,13.919049,-1.570349,2.789018,1.636289,20.189956907056285,3.59472649032889,jump
05/08/2020, 15:20:15,13.160524,-6.3792653,13.919049,-1.8218979,3.0723157,1.9208078,20.189956907056285,4.055605786704966,jump
05/08/2020, 15:20:15,13.737195,-6.3888364,13.794622,-1.8218979,3.0723157,1.9208078,20.489494014331846,4.055605786704966,jump
05/08/2020, 15:20:15,13.737195,-6.3888364,13.794622,-2.1906734,3.4533024,2.2248645,20.489494014331846,4.6555739764905395,jump
05/08/2020, 15:20:15,14.263616,-6.192625,13.469198,-2.1906734,3.4533024,2.2248645,20.572278338890914,4.6555739764905395,jump
05/08/2020, 15:20:15,14.263616,-6.192625,13.469198,-2.6644645,3.9258723,2.5093834,20.572278338890914,5.36738760478689,jump
05/08/2020, 15:20:15,14.536398,-5.9964137,13.048062,-2.6644645,3.9258723,2.5093834,20.433202702302598,5.36738760478689,jump
05/08/2020, 15:20:15,14.536398,-5.9964137,13.048062,-3.1248236,4.372799,2.7645957,20.433202702302598,6.043912837014717,jump
05/08/2020, 15:20:15,14.275579,-6.202196,12.545569,-3.1248236,4.372799,2.7645957,19.991266030435153,6.043912837014717,jump
05/08/2020, 15:20:15,14.275579,-6.202196,12.545569,-3.503368,4.770881,3.0515568,19.991266030435153,6.659346282050049,jump
05/08/2020, 15:20:16,10.655239,0.5455636,12.9643135,-0.3724389,0.2295689,0.91583335,16.79003230246052,1.0149696307987988,jump
05/08/2020, 15:20:16,10.655239,0.5455636,12.9643135,-0.82547116,0.58124894,0.80471224,16.79003230246052,1.2910518008164489,jump
05/08/2020, 15:20:16,9.949356,0.8039884,11.779866,-0.82547116,0.58124894,0.80471224,15.440250381998169,1.2910518008164489,jump
05/08/2020, 15:20:16,9.949356,0.8039884,11.779866,-1.1905833,0.7998278,0.6032289,15.440250381998169,1.5559879110574935,jump
05/08/2020, 15:20:16,9.253045,1.0073783,10.679168,-1.1905833,0.7998278,0.6032289,14.166096081484728,1.5559879110574935,jump
05/08/2020, 15:20:16,9.253045,1.0073783,10.679168,-1.4873134,0.9133912,0.36633334,14.166096081484728,1.7834193749421086,jump
05/08/2020, 15:20:16,8.685946,1.0624132,9.667004,-1.4873134,0.9133912,0.36633334,13.039376788742617,1.7834193749421086,jump
05/08/2020, 15:20:16,8.685946,1.0624132,9.667004,-1.7754956,0.9732256,0.17217667,13.039376788742617,2.0320427309673077,jump
05/08/2020, 15:20:16,8.394022,1.026521,8.7984085,-1.7754956,0.9732256,0.17217667,12.203497150785262,2.0320427309673077,jump
05/08/2020, 15:20:16,8.394022,1.026521,8.7984085,-2.0832157,1.0611455,0.06960334,12.203497150785262,2.3389446764334565,jump
05/08/2020, 15:20:16,8.396415,0.8709874,8.042277,-2.0832157,1.0611455,0.06960334,11.659186275058023,2.3389446764334565,jump
05/08/2020, 15:20:16,8.396415,0.8709874,8.042277,-2.3799458,1.1979101,0.035412222,11.659186275058023,2.6646546416102685,jump
05/08/2020, 15:20:16,8.504091,0.5240282,7.4010005,-2.3799458,1.1979101,0.035412222,11.285786731053493,2.6646546416102685,jump
05/08/2020, 15:20:16,8.504091,0.5240282,7.4010005,-2.5875347,1.35177,0.03174889,11.285786731053493,2.9195249425723917,jump
05/08/2020, 15:20:16,8.554341,0.02632105,6.8075805,-2.5875347,1.35177,0.03174889,10.932547736999501,2.9195249425723917,jump
05/08/2020, 15:20:16,8.554341,0.02632105,6.8075805,-2.6559167,1.4763234,0.05006556,10.932547736999501,3.0390674079779556,jump
05/08/2020, 15:20:16,8.532805,-0.5982057,6.1830535,-2.6559167,1.4763234,0.05006556,10.554466792341112,3.0390674079779556,jump
05/08/2020, 15:20:16,8.532805,-0.5982057,6.1830535,-2.5960822,1.5190623,0.10135223,10.554466792341112,3.0095623154975253,jump
05/08/2020, 15:20:16,8.46102,-1.1916257,5.5274205,-2.5960822,1.5190623,0.10135223,10.176503173716014,3.0095623154975253,jump
05/08/2020, 15:20:16,8.46102,-1.1916257,5.5274205,-2.4239056,1.4885345,0.17828223,10.176503173716014,2.8500592582547215,jump
05/08/2020, 15:20:17,8.367701,-2.28036,4.2352962,-0.03174889,0.20148334,0.17584,9.65174538189178,0.26930138405063675,jump
05/08/2020, 15:20:17,8.367701,-2.28036,4.2352962,-0.06716111,0.19415668,0.16485001,9.65174538189178,0.2634064471972323,jump
05/08/2020, 15:20:17,8.248059,-2.2181466,4.240082,-0.06716111,0.19415668,0.16485001,9.535667228962467,0.2634064471972323,jump
05/08/2020, 15:20:17,8.248059,-2.2181466,4.240082,-0.085477784,0.16973445,0.15019667,9.535667228962467,0.2422297971639166,jump
05/08/2020, 15:20:17,8.154739,-2.184647,4.2520456,-0.085477784,0.16973445,0.15019667,9.452637160279023,0.2422297971639166,jump
05/08/2020, 15:20:17,8.154739,-2.184647,4.2520456,-0.09036223,0.12455334,0.1306589,9.452637160279023,0.2018678108217501,jump
05/08/2020, 15:20:17,8.17149,-2.184647,4.2568316,-0.09036223,0.12455334,0.1306589,9.469241929128,0.2018678108217501,jump
05/08/2020, 15:20:17,8.17149,-2.184647,4.2568316,-0.08303556,0.089141116,0.102573335,9.469241929128,0.1592555541825648,jump
05/08/2020, 15:20:17,8.271988,-2.210968,4.28076,-0.08303556,0.089141116,0.102573335,9.572829686368326,0.1592555541825648,jump
05/08/2020, 15:20:17,8.271988,-2.210968,4.28076,-0.081814446,0.07693,0.07937223,9.572829686368326,0.13752010421367933,jump
05/08/2020, 15:20:17,8.374879,-2.254039,4.2855453,-0.081814446,0.07693,0.07937223,9.673943729701948,0.13752010421367933,jump
05/08/2020, 15:20:17,8.374879,-2.254039,4.2855453,-0.08425667,0.081814446,0.06227667,9.673943729701948,0.13293296677022165,jump
05/08/2020, 15:20:17,8.415557,-2.268396,4.240082,-0.08425667,0.081814446,0.06227667,9.692549282297632,0.13293296677022165,jump
05/08/2020, 15:20:17,8.415557,-2.268396,4.240082,-0.08059334,0.08059334,0.045181114,9.692549282297632,0.12260467372549705,jump
05/08/2020, 15:20:17,8.394022,-2.2731814,4.24726,-0.08059334,0.08059334,0.045181114,9.678128811352924,0.12260467372549705,jump
05/08/2020, 15:20:17,8.394022,-2.2731814,4.24726,-0.064718895,0.06227667,0.018316668,9.678128811352924,0.09166471031971118,jump
05/08/2020, 15:20:17,8.384451,-2.3258235,4.220939,-0.064718895,0.06227667,0.018316668,9.670822077549033,0.09166471031971118,jump
05/08/2020, 15:20:17,8.384451,-2.3258235,4.220939,-0.039075557,0.037854444,-0.007326667,9.670822077549033,0.05489570262412312,jump
05/08/2020, 15:20:17,8.374879,-2.3712873,4.206582,-0.039075557,0.037854444,-0.007326667,9.667312589045206,0.05489570262412312,jump
05/08/2020, 15:20:17,8.374879,-2.3712873,4.206582,-0.0024422223,0.013432222,-0.018316668,9.667312589045206,0.02284489786057458,jump
05/08/2020, 15:20:18,8.49452,-2.143969,4.465007,-0.02075889,0.025643334,0.058613338,9.83309526631964,0.06726095009674561,jump
05/08/2020, 15:20:18,8.49452,-2.143969,4.465007,-0.028085556,0.029306669,0.047623336,9.83309526631964,0.0625752462752388,jump
05/08/2020, 15:20:18,8.463413,-2.1702902,4.453043,-0.028085556,0.029306669,0.047623336,9.806585295265098,0.0625752462752388,jump
05/08/2020, 15:20:18,8.463413,-2.1702902,4.453043,-0.028085556,0.026864445,0.03174889,9.806585295265098,0.050184548592802525,jump
05/08/2020, 15:20:18,8.439486,-2.1511476,4.4434714,-0.028085556,0.026864445,0.03174889,9.777361133055722,0.050184548592802525,jump
05/08/2020, 15:20:18,8.439486,-2.1511476,4.4434714,-0.02075889,0.015874445,0.02075889,9.777361133055722,0.03337455638830661,jump
05/08/2020, 15:20:18,8.463413,-2.160719,4.4482574,-0.02075889,0.015874445,0.02075889,9.802298924051106,0.03337455638830661,jump
05/08/2020, 15:20:18,8.463413,-2.160719,4.4482574,-0.009768889,0.009768889,0.013432222,9.802298924051106,0.019268808859119094,jump
05/08/2020, 15:20:18,8.480164,-2.1870399,4.4554358,-0.009768889,0.009768889,0.013432222,9.825844763088085,0.019268808859119094,jump
05/08/2020, 15:20:18,8.480164,-2.1870399,4.4554358,0.0012211112,0.0048844446,0.007326667,9.825844763088085,0.008889823628835239,jump
05/08/2020, 15:20:18,8.504091,-2.201397,4.4745784,0.0012211112,0.0048844446,0.007326667,9.858375545046993,0.008889823628835239,jump
05/08/2020, 15:20:18,8.504091,-2.201397,4.4745784,0.0036633336,0.0012211112,-0.0048844446,9.858375545046993,0.006226469705183319,jump
05/08/2020, 15:20:18,8.530413,-2.1750758,4.493721,0.0036633336,0.0012211112,-0.0048844446,9.883947768532128,0.006226469705183319,jump
05/08/2020, 15:20:18,8.530413,-2.1750758,4.493721,0.007326667,0.0012211112,-0.013432222,9.883947768532128,0.01534912908874015,jump
05/08/2020, 15:20:18,8.530413,-2.1774685,4.476971,0.007326667,0.0012211112,-0.013432222,9.876870976987966,0.01534912908874015,jump
05/08/2020, 15:20:18,8.530413,-2.1774685,4.476971,0.0061055557,0.0012211112,-0.02198,9.876870976987966,0.02284489771745338,jump
05/08/2020, 15:20:18,8.52802,-2.1798615,4.4602213,0.0061055557,0.0012211112,-0.02198,9.867750190416151,0.02284489771745338,jump
05/08/2020, 15:20:18,8.52802,-2.1798615,4.4602213,0.0024422223,0.0061055557,-0.028085556,9.867750190416151,0.028845115865167362,jump
05/08/2020, 15:20:18,8.484949,-2.201397,4.4674,0.0024422223,0.0061055557,-0.028085556,9.838606270720668,0.028845115865167362,jump
05/08/2020, 15:20:18,8.484949,-2.201397,4.4674,0.0061055557,0.009768889,-0.035412222,9.838606270720668,0.037238884052971793,jump
05/08/2020, 15:20:19,8.504091,-2.3306093,4.5678983,0.0036633336,0.0061055557,0.0012211112,9.930609379740046,0.007224191011396785,jump
05/08/2020, 15:20:19,8.504091,-2.3306093,4.5678983,-0.0061055557,0.0061055557,0.008547778,9.930609379740046,0.012149902607001174,jump
05/08/2020, 15:20:19,8.504091,-2.3114667,4.536792,-0.0061055557,0.0061055557,0.008547778,9.911857864848693,0.012149902607001174,jump
05/08/2020, 15:20:19,8.504091,-2.3114667,4.536792,-0.013432222,0.009768889,0.0024422223,9.911857864848693,0.016787502698187733,jump
05/08/2020, 15:20:19,8.518449,-2.3042881,4.5296135,-0.013432222,0.009768889,0.0024422223,9.919229443328009,0.016787502698187733,jump
05/08/2020, 15:20:19,8.518449,-2.3042881,4.5296135,-0.013432222,0.014653334,0.008547778,9.919229443328009,0.021638145041292366,jump
05/08/2020, 15:20:19,8.52802,-2.3162522,4.5655055,-0.013432222,0.014653334,0.008547778,9.946657147735943,0.021638145041292366,jump
05/08/2020, 15:20:19,8.52802,-2.3162522,4.5655055,-0.008547778,0.015874445,0.009768889,9.946657147735943,0.0205059437411231,jump
05/08/2020, 15:20:19,8.496913,-2.309074,4.5415773,-0.008547778,0.015874445,0.009768889,9.907334500498358,0.0205059437411231,jump
05/08/2020, 15:20:19,8.496913,-2.309074,4.5415773,-0.0036633336,0.01099,0.009768889,9.907334500498358,0.015153590933515284,jump
05/08/2020, 15:20:19,8.477771,-2.3306093,4.551149,-0.0036633336,0.01099,0.009768889,9.900368370431206,0.015153590933515284,jump
05/08/2020, 15:20:19,8.477771,-2.3306093,4.551149,-0.0036633336,0.013432222,0.009768889,9.900368370431206,0.017008110125130416,jump
05/08/2020, 15:20:19,8.463413,-2.3425734,4.546363,-0.0036633336,0.013432222,0.009768889,9.888702099316163,0.017008110125130416,jump
05/08/2020, 15:20:19,8.463413,-2.3425734,4.546363,0.0048844446,0.009768889,0.012211111,9.888702099316163,0.0163829252069518,jump
05/08/2020, 15:20:19,8.458628,-2.3665016,4.5415773,0.0048844446,0.009768889,0.012211111,9.888105834189895,0.0163829252069518,jump
05/08/2020, 15:20:19,8.458628,-2.3665016,4.5415773,0.008547778,0.009768889,0.009768889,9.888105834189895,0.01624582742160654,jump
05/08/2020, 15:20:19,8.456235,-2.349752,4.5655055,0.008547778,0.009768889,0.009768889,9.893082631826914,0.01624582742160654,jump
05/08/2020, 15:20:19,8.456235,-2.349752,4.5655055,0.007326667,0.012211111,0.0048844446,9.893082631826914,0.015054869400898356,jump
05/08/2020, 15:20:19,8.456235,-2.3449662,4.5535417,0.007326667,0.012211111,0.0048844446,9.886430965204253,0.015054869400898356,jump
05/08/2020, 15:20:19,8.456235,-2.3449662,4.5535417,0.007326667,0.007326667,0.0024422223,9.886430965204253,0.010645400617158173,jump
05/08/2020, 15:20:20,8.499306,-2.2588246,4.426722,-0.014653334,0.008547778,-0.029306669,9.845626157250484,0.03386245054908522,jump
05/08/2020, 15:20:20,8.499306,-2.2588246,4.426722,-0.007326667,0.0036633336,-0.025643334,9.845626157250484,0.026919892891197054,jump
05/08/2020, 15:20:20,8.472985,-2.2660031,4.4554358,-0.007326667,0.0036633336,-0.025643334,9.837538172083455,0.026919892891197054,jump
05/08/2020, 15:20:20,8.472985,-2.2660031,4.4554358,-0.0024422223,-0.008547778,-0.03297,9.837538172083455,0.034147472330788416,jump
05/08/2020, 15:20:20,8.520842,-2.2731814,4.4721856,-0.0024422223,-0.008547778,-0.03297,9.88799977471306,0.034147472330788416,jump
05/08/2020, 15:20:20,8.520842,-2.2731814,4.4721856,0.0036633336,-0.014653334,-0.03052778,9.88799977471306,0.03406002882294477,jump
05/08/2020, 15:20:20,8.566305,-2.2851455,4.4721856,0.0036633336,-0.014653334,-0.03052778,9.929950568950893,0.03406002882294477,jump
05/08/2020, 15:20:20,8.566305,-2.2851455,4.4721856,0.008547778,-0.007326667,-0.029306669,9.929950568950893,0.031394671531014856,jump
05/08/2020, 15:20:20,8.551949,-2.2731814,4.438686,0.008547778,-0.007326667,-0.029306669,9.899753041088939,0.031394671531014856,jump
05/08/2020, 15:20:20,8.551949,-2.2731814,4.438686,0.007326667,0.0012211112,-0.03174889,9.899753041088939,0.03260618402371171,jump
05/08/2020, 15:20:20,8.525627,-2.268396,4.426722,0.007326667,0.0012211112,-0.03174889,9.870552473589195,0.03260618402371171,jump
05/08/2020, 15:20:20,8.525627,-2.268396,4.426722,0.0012211112,0.0012211112,-0.036633335,9.870552473589195,0.0366740161709405,jump
05/08/2020, 15:20:20,8.4682,-2.2779672,4.4339004,0.0012211112,0.0012211112,-0.036633335,9.826444609626694,0.0366740161709405,jump
05/08/2020, 15:20:20,8.4682,-2.2779672,4.4339004,0.0012211112,-0.0012211112,-0.04029667,9.826444609626694,0.04033365644230796,jump
05/08/2020, 15:20:20,8.427522,-2.2827528,4.4458647,0.0012211112,-0.0012211112,-0.04029667,9.79794850756964,0.04033365644230796,jump
05/08/2020, 15:20:20,8.427522,-2.2827528,4.4458647,0.0061055557,-0.013432222,-0.04151778,9.79794850756964,0.04406164320163255,jump
05/08/2020, 15:20:20,8.408379,-2.3186452,4.45065,0.0061055557,-0.013432222,-0.04151778,9.792100580589027,0.04406164320163255,jump
05/08/2020, 15:20:20,8.408379,-2.3186452,4.45065,0.007326667,-0.018316668,-0.04029667,9.792100580589027,0.04486649059801821,jump
05/08/2020, 15:20:20,8.420342,-2.347359,4.462614,0.007326667,-0.018316668,-0.04029667,9.814641366024599,0.04486649059801821,jump
05/08/2020, 15:20:20,8.420342,-2.347359,4.462614,0.023201112,-0.019537779,-0.035412222,9.814641366024599,0.046626621721859524,jump
05/08/2020, 15:20:21,-4.6803613,4.6037908,-0.8470592,0.3712178,0.32237336,0.84745115,6.619530214467027,0.9797452125010846,jump
05/08/2020, 15:20:21,-4.6803613,4.6037908,-0.8470592,0.39686114,0.09646778,0.48111778,6.619530214467027,0.63109358772315,jump
05/08/2020, 15:20:21,-4.8765726,5.0799623,-0.9523434,0.39686114,0.09646778,0.48111778,7.105908447745555,0.63109358772315,jump
05/08/2020, 15:20:21,-4.8765726,5.0799623,-0.9523434,0.32725778,-0.13310112,0.08792,7.105908447745555,0.36406522930763374,jump
05/08/2020, 15:20:21,-5.0273204,5.584848,-1.0336994,0.32725778,-0.13310112,0.08792,7.585051816411029,0.36406522930763374,jump
05/08/2020, 15:20:21,-5.0273204,5.584848,-1.0336994,0.17950334,-0.3614489,-0.34679556,7.585051816411029,0.5321033027727549,jump
05/08/2020, 15:20:21,-5.087141,5.977271,-0.9810573,0.17950334,-0.3614489,-0.34679556,7.910072496073453,0.5321033027727549,jump
05/08/2020, 15:20:21,-5.087141,5.977271,-0.9810573,0.017095556,-0.6020078,-0.80227005,7.910072496073453,1.0031664357200794,jump
05/08/2020, 15:20:21,-5.0536413,6.056234,-0.7752745,0.017095556,-0.6020078,-0.80227005,7.9258002751874725,1.0031664357200794,jump
05/08/2020, 15:20:21,-5.0536413,6.056234,-0.7752745,-0.12699556,-0.8413456,-1.2565234,7.9258002751874725,1.517511544229119,jump
05/08/2020, 15:20:21,-4.8861437,5.7355957,-0.50488555,-0.12699556,-0.8413456,-1.2565234,7.551580470149117,1.517511544229119,jump
05/08/2020, 15:20:21,-4.8861437,5.7355957,-0.50488555,-0.21491556,-1.0709145,-1.6924601,7.551580470149117,2.0143156737673293,jump
05/08/2020, 15:20:21,-4.6492543,5.218746,-0.15792629,-0.21491556,-1.0709145,-1.6924601,6.991124245154844,2.0143156737673293,jump
05/08/2020, 15:20:21,-4.6492543,5.218746,-0.15792629,-0.24055889,-1.2931567,-2.107638,6.991124245154844,2.4844034264732824,jump
05/08/2020, 15:20:21,-4.3908296,4.651647,0.12203395,-0.24055889,-1.2931567,-2.107638,6.3978197221231685,2.4844034264732824,jump
05/08/2020, 15:20:21,-4.3908296,4.651647,0.12203395,-0.18194556,-1.5080723,-2.4922879,6.3978197221231685,2.918712895801168,jump
05/08/2020, 15:20:21,-4.1587257,4.180261,0.5168497,-0.18194556,-1.5080723,-2.4922879,5.919182083263282,2.918712895801168,jump
05/08/2020, 15:20:21,-4.1587257,4.180261,0.5168497,-0.070824444,-1.7303145,-2.8476312,5.919182083263282,3.332867817636003,jump
05/08/2020, 15:20:21,-3.9577286,3.859623,0.89013004,-0.070824444,-1.7303145,-2.8476312,5.599342525217191,3.332867817636003,jump
05/08/2020, 15:20:21,-3.9577286,3.859623,0.89013004,0.048844445,-1.9574412,-3.2005324,5.599342525217191,3.75198210945196,jump
05/08/2020, 15:20:22,7.1952176,-2.8354948,3.0149565,0.5580478,-0.29795113,0.014653334,8.300671629688368,0.632777142862145,jump
05/08/2020, 15:20:22,7.164111,-2.8953154,3.1609187,0.5580478,-0.29795113,0.014653334,8.348577532282816,0.632777142862145,jump
05/08/2020, 15:20:22,7.164111,-2.8953154,3.1609187,0.65451556,-0.37976557,-0.06227667,8.348577532282816,0.7592699756086912,jump
05/08/2020, 15:20:22,7.097112,-2.8977082,3.2614172,0.65451556,-0.37976557,-0.06227667,8.330819634969982,0.7592699756086912,jump
05/08/2020, 15:20:22,7.097112,-2.8977082,3.2614172,0.74121445,-0.4591378,-0.14164889,8.330819634969982,0.8833293789268668,jump
05/08/2020, 15:20:22,7.0396843,-2.8426733,3.330809,0.74121445,-0.4591378,-0.14164889,8.290490688271218,0.8833293789268668,jump
05/08/2020, 15:20:22,7.0396843,-2.8426733,3.330809,0.81570226,-0.5372889,-0.22102112,8.290490688271218,1.001448888563921,jump
05/08/2020, 15:20:22,7.0348988,-2.8785655,3.4241292,0.81570226,-0.5372889,-0.22102112,8.336702061600434,1.001448888563921,jump
05/08/2020, 15:20:22,7.0348988,-2.8785655,3.4241292,0.8718734,-0.60445005,-0.27475002,8.336702061600434,1.0959063024042055,jump
05/08/2020, 15:20:22,7.097112,-2.9766715,3.5270207,0.8718734,-0.60445005,-0.27475002,8.46578107505583,1.0959063024042055,jump
05/08/2020, 15:20:22,7.097112,-2.9766715,3.5270207,0.9182756,-0.6618422,-0.30405667,8.46578107505583,1.1720561686242532,jump
05/08/2020, 15:20:22,7.257431,-3.1226335,3.6514473,0.9182756,-0.6618422,-0.30405667,8.703689575324168,1.1720561686242532,jump
05/08/2020, 15:20:22,7.257431,-3.1226335,3.6514473,0.9829945,-0.6935911,-0.3260367,8.703689575324168,1.246453666956001,jump
05/08/2020, 15:20:22,7.4177504,-3.2853456,3.7471602,0.9829945,-0.6935911,-0.3260367,8.936314974893355,1.246453666956001,jump
05/08/2020, 15:20:22,7.4177504,-3.2853456,3.7471602,1.0745778,-0.71923447,-0.3382478,8.936314974893355,1.3365729543469838,jump
05/08/2020, 15:20:22,7.496713,-3.426522,3.8237305,1.0745778,-0.71923447,-0.3382478,9.086400610402043,1.3365729543469838,jump
05/08/2020, 15:20:22,7.496713,-3.426522,3.8237305,1.1637189,-0.74976224,-0.35290113,9.086400610402043,1.42860924990912,jump
05/08/2020, 15:20:22,7.5828547,-3.534199,3.9290147,1.1637189,-0.74976224,-0.35290113,9.242694686649926,1.42860924990912,jump
05/08/2020, 15:20:22,7.5828547,-3.534199,3.9290147,1.2577446,-0.7900589,-0.3492378,9.242694686649926,1.5258051901002345,jump
05/08/2020, 15:20:22,7.594819,-3.5820556,4.0007997,1.2577446,-0.7900589,-0.3492378,9.30154807940283,1.5258051901002345,jump
05/08/2020, 15:20:23,8.300702,-2.5579274,4.0031924,-0.20026223,0.07326667,-0.07570889,9.564005295418548,0.226284782861469,jump
05/08/2020, 15:20:23,8.300702,-2.5579274,4.0031924,-0.1746189,0.042738892,-0.06227667,9.564005295418548,0.19025445213960623,jump
05/08/2020, 15:20:23,8.355737,-2.6512475,4.1515474,-0.1746189,0.042738892,-0.06227667,9.69962863906645,0.19025445213960623,jump
05/08/2020, 15:20:23,8.355737,-2.6512475,4.1515474,-0.123332225,0.014653334,-0.04151778,9.69962863906645,0.13095527431867385,jump
05/08/2020, 15:20:23,8.477771,-2.6703901,4.287938,-0.123332225,0.014653334,-0.04151778,9.868636915672164,0.13095527431867385,jump
05/08/2020, 15:20:23,8.477771,-2.6703901,4.287938,-0.068382226,0.014653334,-0.018316668,9.868636915672164,0.07229349446108188,jump
05/08/2020, 15:20:23,8.635697,-2.6703901,4.4602213,-0.068382226,0.014653334,-0.018316668,10.07967392226021,0.07229349446108188,jump
05/08/2020, 15:20:23,8.635697,-2.6703901,4.4602213,-0.024422223,0.035412222,0.008547778,10.07967392226021,0.04385812301299602,jump
05/08/2020, 15:20:23,8.669196,-2.6392834,4.5655055,-0.024422223,0.035412222,0.008547778,10.147148318467684,0.04385812301299602,jump
05/08/2020, 15:20:23,8.669196,-2.6392834,4.5655055,-0.0012211112,0.064718895,0.037854444,10.147148318467684,0.07498656804337392,jump
05/08/2020, 15:20:23,8.62134,-2.5674987,4.642076,-0.0012211112,0.064718895,0.037854444,10.122668577876473,0.07498656804337392,jump
05/08/2020, 15:20:23,8.62134,-2.5674987,4.642076,0.0048844446,0.07693,0.06594,10.122668577876473,0.10144045803772679,jump
05/08/2020, 15:20:23,8.489735,-2.5387847,4.694718,0.0048844446,0.07693,0.06594,10.028030634205857,0.10144045803772679,jump
05/08/2020, 15:20:23,8.489735,-2.5387847,4.694718,0.009768889,0.058613338,0.08059334,10.028030634205857,0.10013111907897926,jump
05/08/2020, 15:20:23,8.384451,-2.510071,4.725825,0.009768889,0.058613338,0.08059334,9.946501599906894,0.10013111907897926,jump
05/08/2020, 15:20:23,8.384451,-2.510071,4.725825,0.02075889,0.024422223,0.09646778,9.946501599906894,0.10165337510884685,jump
05/08/2020, 15:20:23,8.348558,-2.4478576,4.718646,0.02075889,0.024422223,0.09646778,9.897275142725105,0.10165337510884685,jump
05/08/2020, 15:20:23,8.348558,-2.4478576,4.718646,0.023201112,-0.0048844446,0.10135223,9.897275142725105,0.10408853852300237,jump
05/08/2020, 15:20:23,8.4012,-2.361716,4.749753,0.023201112,-0.0048844446,0.10135223,9.935694366752127,0.10408853852300237,jump
05/08/2020, 15:20:23,8.4012,-2.361716,4.749753,0.019537779,-0.01099,0.10745778,9.935694366752127,0.10977103097416825,jump
05/08/2020, 15:20:24,8.3581295,-2.3282163,4.4051867,-0.07448778,-0.035412222,-0.01099,9.730600670895955,0.08320598177472088,jump
05/08/2020, 15:20:24,8.3581295,-2.3282163,4.4051867,-0.081814446,-0.029306669,-0.029306669,9.730600670895955,0.09171349503987036,jump
05/08/2020, 15:20:24,8.386844,-2.3377876,4.409972,-0.081814446,-0.029306669,-0.029306669,9.75972605423587,0.09171349503987036,jump
05/08/2020, 15:20:24,8.386844,-2.3377876,4.409972,-0.09036223,-0.03174889,-0.05617111,9.75972605423587,0.1110338605992061,jump
05/08/2020, 15:20:24,8.384451,-2.3449662,4.402794,-0.09036223,-0.03174889,-0.05617111,9.756150749371578,0.1110338605992061,jump
05/08/2020, 15:20:24,8.384451,-2.3449662,4.402794,-0.08059334,-0.051286668,-0.06349778,9.756150749371578,0.11470648206584891,jump
05/08/2020, 15:20:24,8.403593,-2.4502504,4.388437,-0.08059334,-0.051286668,-0.06349778,9.791960009711667,0.11470648206584891,jump
05/08/2020, 15:20:24,8.403593,-2.4502504,4.388437,-0.05250778,-0.06594,-0.081814446,9.791960009711667,0.11746809834649363,jump
05/08/2020, 15:20:24,8.386844,-2.5316064,4.4482574,-0.05250778,-0.06594,-0.081814446,9.825231416576592,0.11746809834649363,jump
05/08/2020, 15:20:24,8.386844,-2.5316064,4.4482574,-0.007326667,-0.085477784,-0.091583334,9.825231416576592,0.1254895960107182,jump
05/08/2020, 15:20:24,8.427522,-2.5938199,4.4889355,-0.007326667,-0.085477784,-0.091583334,9.894521979690653,0.1254895960107182,jump
05/08/2020, 15:20:24,8.427522,-2.5938199,4.4889355,0.035412222,-0.10379445,-0.10379445,9.894521979690653,0.15099867675210765,jump
05/08/2020, 15:20:24,8.477771,-2.605784,4.551149,0.035412222,-0.10379445,-0.10379445,9.968734322819895,0.15099867675210765,jump
05/08/2020, 15:20:24,8.477771,-2.605784,4.551149,0.06105556,-0.10867889,-0.10379445,9.968734322819895,0.16221026613469572,jump
05/08/2020, 15:20:24,8.571091,-2.6105695,4.610969,0.06105556,-0.10867889,-0.10379445,10.07669114766785,0.16221026613469572,jump
05/08/2020, 15:20:24,8.571091,-2.6105695,4.610969,0.06594,-0.10379445,-0.102573335,10.07669114766785,0.1601332574926489,jump
05/08/2020, 15:20:24,8.630911,-2.6009982,4.658826,0.06594,-0.10379445,-0.102573335,10.147042548309573,0.1601332574926489,jump
05/08/2020, 15:20:24,8.630911,-2.6009982,4.658826,0.051286668,-0.089141116,-0.09646778,10.147042548309573,0.1410052940914481,jump
05/08/2020, 15:20:24,8.664411,-2.5124638,4.682754,0.051286668,-0.089141116,-0.09646778,10.164284070968657,0.1410052940914481,jump
05/08/2020, 15:20:24,8.664411,-2.5124638,4.682754,0.029306669,-0.07326667,-0.08303556,10.164284070968657,0.1145503808517116,jump
05/08/2020, 15:20:25,8.609376,-2.4789643,4.4889355,-0.015874445,0.014653334,-0.017095556,10.020836298135995,0.02754952410285431,jump
05/08/2020, 15:20:25,8.609376,-2.4789643,4.4889355,0.0,0.018316668,-0.009768889,10.020836298135995,0.02075888983467046,jump
05/08/2020, 15:20:25,8.611769,-2.481357,4.57747,0.0,0.018316668,-0.009768889,10.063444916228146,0.02075888983467046,jump
05/08/2020, 15:20:25,8.611769,-2.481357,4.57747,0.015874445,0.014653334,-0.01099,10.063444916228146,0.024238364922018932,jump
05/08/2020, 15:20:25,8.590233,-2.4622145,4.5942197,0.015874445,0.014653334,-0.01099,10.047957753112092,0.024238364922018932,jump
05/08/2020, 15:20:25,8.590233,-2.4622145,4.5942197,0.03174889,0.013432222,-0.013432222,10.047957753112092,0.03699785493923214,jump
05/08/2020, 15:20:25,8.566305,-2.4358935,4.6468616,0.03174889,0.013432222,-0.013432222,10.045321483883686,0.03699785493923214,jump
05/08/2020, 15:20:25,8.566305,-2.4358935,4.6468616,0.04151778,0.009768889,-0.009768889,10.045321483883686,0.04375600973614424,jump
05/08/2020, 15:20:25,8.554341,-2.3904297,4.6396832,0.04151778,0.009768889,-0.009768889,10.020856764877442,0.04375600973614424,jump
05/08/2020, 15:20:25,8.554341,-2.3904297,4.6396832,0.04029667,0.007326667,-0.014653334,10.020856764877442,0.04349967675919084,jump
05/08/2020, 15:20:25,8.556734,-2.3688943,4.6372905,0.04029667,0.007326667,-0.014653334,10.016677171865183,0.04349967675919084,jump
05/08/2020, 15:20:25,8.556734,-2.3688943,4.6372905,0.03297,0.0061055557,-0.014653334,10.016677171865183,0.03659260749065629,jump
05/08/2020, 15:20:25,8.554341,-2.3306093,4.5942197,0.03297,0.0061055557,-0.014653334,9.985757341069231,0.03659260749065629,jump
05/08/2020, 15:20:25,8.554341,-2.3306093,4.5942197,0.025643334,0.008547778,-0.023201112,9.985757341069231,0.035622137290915595,jump
05/08/2020, 15:20:25,8.566305,-2.3377876,4.570291,0.025643334,0.008547778,-0.023201112,9.986710935499175,0.035622137290915595,jump
05/08/2020, 15:20:25,8.566305,-2.3377876,4.570291,0.024422223,0.017095556,-0.017095556,9.986710935499175,0.03436511409666657,jump
05/08/2020, 15:20:25,8.549556,-2.376073,4.517649,0.024422223,0.017095556,-0.017095556,9.957398275398623,0.03436511409666657,jump
05/08/2020, 15:20:25,8.549556,-2.376073,4.517649,0.02198,0.023201112,-0.024422223,9.957398275398623,0.04022259287123203,jump
05/08/2020, 15:20:25,8.525627,-2.3904297,4.479364,0.02198,0.023201112,-0.024422223,9.922961931675822,0.04022259287123203,jump
05/08/2020, 15:20:25,8.525627,-2.3904297,4.479364,0.026864445,0.015874445,-0.026864445,9.922961931675822,0.041175172261617994,jump
05/08/2020, 15:20:26,8.453842,-2.309074,4.3812585,0.0,0.013432222,0.0,9.797688280692782,0.013432222418487072,jump
05/08/2020, 15:20:26,8.453842,-2.309074,4.3812585,-0.007326667,0.009768889,-0.0012211112,9.797688280692782,0.012272015423632838,jump
05/08/2020, 15:20:26,8.492127,-2.3114667,4.4051867,-0.007326667,0.009768889,-0.0012211112,9.841990439856797,0.012272015423632838,jump
05/08/2020, 15:20:26,8.492127,-2.3114667,4.4051867,-0.0061055557,0.008547778,-0.0036633336,9.841990439856797,0.011124852186227722,jump
05/08/2020, 15:20:26,8.518449,-2.3377876,4.4315076,-0.0061055557,0.008547778,-0.0036633336,9.882685918073996,0.011124852186227722,jump
05/08/2020, 15:20:26,8.518449,-2.3377876,4.4315076,-0.0048844446,0.009768889,-0.0036633336,9.882685918073996,0.011519939687235872,jump
05/08/2020, 15:20:26,8.52802,-2.333002,4.4339004,-0.0048844446,0.009768889,-0.0036633336,9.89087936561825,0.011519939687235872,jump
05/08/2020, 15:20:26,8.52802,-2.333002,4.4339004,-0.0036633336,0.013432222,-0.009768889,9.89087936561825,0.017008110125130416,jump
05/08/2020, 15:20:26,8.525627,-2.3353949,4.4147577,-0.0036633336,0.013432222,-0.009768889,9.880813378308831,0.017008110125130416,jump
05/08/2020, 15:20:26,8.525627,-2.3353949,4.4147577,-0.0036633336,0.013432222,-0.008547778,9.880813378308831,0.016337353672392814,jump
05/08/2020, 15:20:26,8.5423765,-2.3449662,4.4458647,-0.0036633336,0.013432222,-0.008547778,9.911446698785914,0.016337353672392814,jump
05/08/2020, 15:20:26,8.5423765,-2.3449662,4.4458647,-0.0012211112,0.007326667,-0.009768889,9.911446698785914,0.012272015423632838,jump
05/08/2020, 15:20:26,8.532805,-2.3401806,4.4578285,-0.0012211112,0.007326667,-0.009768889,9.907444133606356,0.012272015423632838,jump
05/08/2020, 15:20:26,8.532805,-2.3401806,4.4578285,-0.0048844446,0.009768889,-0.008547778,9.907444133606356,0.013869156795080873,jump
05/08/2020, 15:20:26,8.532805,-2.333002,4.4434714,-0.0048844446,0.009768889,-0.008547778,9.899298250054505,0.013869156795080873,jump
05/08/2020, 15:20:26,8.532805,-2.333002,4.4434714,-0.012211111,0.013432222,-0.009768889,9.899298250054505,0.020614728665873543,jump
05/08/2020, 15:20:26,8.537591,-2.309074,4.45065,-0.012211111,0.013432222,-0.009768889,9.901038808106359,0.020614728665873543,jump
05/08/2020, 15:20:26,8.537591,-2.309074,4.45065,-0.01099,0.01099,-0.007326667,9.901038808106359,0.017182557048333286,jump
05/08/2020, 15:20:26,8.499306,-2.321038,4.4410787,-0.01099,0.01099,-0.007326667,9.866539156758746,0.017182557048333286,jump
05/08/2020, 15:20:26,8.499306,-2.321038,4.4410787,-0.01099,0.0061055557,-0.0024422223,9.866539156758746,0.012807121744049622,jump
05/08/2020, 15:20:27,5.797809,-5.9964137,5.9820566,-2.911129,-4.0321093,-6.832117,10.264334823570131,8.450467498024562,jump
05/08/2020, 15:20:27,5.797809,-5.9964137,5.9820566,-1.9537779,-3.8977869,-6.7393126,10.264334823570131,8.026725700380554,jump
05/08/2020, 15:20:27,7.4943204,-10.035499,6.8985076,-1.9537779,-3.8977869,-6.7393126,14.299142551906732,8.026725700380554,jump
05/08/2020, 15:20:27,7.4943204,-10.035499,6.8985076,-0.8034911,-4.043099,-6.592779,14.299142551906732,7.775408924883985,jump
05/08/2020, 15:20:27,8.700303,-12.033505,7.594819,-0.8034911,-4.043099,-6.592779,16.67878303420093,7.775408924883985,jump
05/08/2020, 15:20:27,8.700303,-12.033505,7.594819,0.43227336,-4.2372556,-6.5170703,16.67878303420093,7.785460825077839,jump
05/08/2020, 15:20:27,9.549755,-12.753745,8.305488,0.43227336,-4.2372556,-6.5170703,17.967664310110948,7.785460825077839,jump
05/08/2020, 15:20:27,9.549755,-12.753745,8.305488,1.5556957,-4.3471556,-6.419381,17.967664310110948,7.90736395804023,jump
05/08/2020, 15:20:27,10.258031,-13.239488,8.398808,1.5556957,-4.3471556,-6.419381,18.736360340358814,7.90736395804023,jump
05/08/2020, 15:20:27,10.258031,-13.239488,8.398808,2.6632435,-4.4570556,-6.2203403,18.736360340358814,8.102520799345541,jump
05/08/2020, 15:20:27,10.674382,-13.153346,7.8699937,2.6632435,-4.4570556,-6.2203403,18.6785906536803,8.102520799345541,jump
05/08/2020, 15:20:27,10.674382,-13.153346,7.8699937,3.8208568,-4.689067,-6.028626,18.6785906536803,8.53994297736987,jump
05/08/2020, 15:20:27,10.741381,-12.361321,7.085148,3.8208568,-4.689067,-6.028626,17.843173689054066,8.53994297736987,jump
05/08/2020, 15:20:27,10.741381,-12.361321,7.085148,4.8685703,-5.04441,-5.8588915,17.843173689054066,9.136501576090671,jump
05/08/2020, 15:20:27,10.691132,-11.49512,6.3314085,4.8685703,-5.04441,-5.8588915,16.927043842486064,9.136501576090671,jump
05/08/2020, 15:20:27,10.691132,-11.49512,6.3314085,5.6610713,-5.438829,-5.568267,16.927043842486064,9.624665421924044,jump
05/08/2020, 15:20:27,10.810773,-10.9352,5.7451673,5.6610713,-5.438829,-5.568267,16.415186587348668,9.624665421924044,jump
05/08/2020, 15:20:27,10.810773,-10.9352,5.7451673,6.217898,-5.8173738,-5.1213403,16.415186587348668,9.936408696459974,jump
05/08/2020, 15:20:27,11.353944,-10.609776,5.426922,6.217898,-5.8173738,-5.1213403,16.459977465339,9.936408696459974,jump
05/08/2020, 15:20:27,11.353944,-10.609776,5.426922,6.6660457,-6.150737,-4.5950413,16.459977465339,10.167700449352568,jump
05/08/2020, 15:20:28,7.8580294,-2.617748,4.941179,0.7204556,-0.7424356,-0.31993112,9.64450507476996,1.0828770735315008,jump
05/08/2020, 15:20:28,7.8580294,-2.617748,4.941179,0.7534256,-0.74732006,-0.32237336,9.64450507476996,1.1090815936956802,jump
05/08/2020, 15:20:28,8.054241,-2.5722845,5.015356,0.7534256,-0.74732006,-0.32237336,9.830627893629307,1.1090815936956802,jump
05/08/2020, 15:20:28,8.054241,-2.5722845,5.015356,0.7668578,-0.74732006,-0.33336335,9.830627893629307,1.1214674680031342,jump
05/08/2020, 15:20:28,8.19781,-2.5196424,5.048856,0.7668578,-0.74732006,-0.33336335,9.95206681666561,1.1214674680031342,jump
05/08/2020, 15:20:28,8.19781,-2.5196424,5.048856,0.75953114,-0.73633003,-0.3260367,9.95206681666561,1.1069640436698667,jump
05/08/2020, 15:20:28,8.315059,-2.4837499,5.06082,0.75953114,-0.73633003,-0.3260367,10.045950170677573,1.1069640436698667,jump
05/08/2020, 15:20:28,8.315059,-2.4837499,5.06082,0.7424356,-0.7131289,-0.3309211,10.045950170677573,1.0813289177937522,jump
05/08/2020, 15:20:28,8.386844,-2.4598217,5.0679984,0.7424356,-0.7131289,-0.3309211,10.103191456786698,1.0813289177937522,jump
05/08/2020, 15:20:28,8.386844,-2.4598217,5.0679984,0.72411895,-0.68626446,-0.3284789,10.103191456786698,1.050335919075564,jump
05/08/2020, 15:20:28,8.437093,-2.4526432,5.1014977,0.72411895,-0.68626446,-0.3284789,10.159983824874336,1.050335919075564,jump
05/08/2020, 15:20:28,8.437093,-2.4526432,5.1014977,0.7082445,-0.6655056,-0.3162678,10.159983824874336,1.022024107886998,jump
05/08/2020, 15:20:28,8.477771,-2.4071796,5.1493545,0.7082445,-0.6655056,-0.3162678,10.207005572585484,1.022024107886998,jump
05/08/2020, 15:20:28,8.477771,-2.4071796,5.1493545,0.6887067,-0.65085226,-0.31138334,10.207005572585484,0.997439303318865,jump
05/08/2020, 15:20:28,8.559127,-2.4071796,5.2259245,0.6887067,-0.65085226,-0.31138334,10.313265869485946,0.997439303318865,jump
05/08/2020, 15:20:28,8.559127,-2.4071796,5.2259245,0.67161113,-0.6386411,-0.29795113,10.313265869485946,0.9734982620611494,jump
05/08/2020, 15:20:28,8.650054,-2.3952155,5.2905307,0.67161113,-0.6386411,-0.29795113,10.418743017296581,0.9734982620611494,jump
05/08/2020, 15:20:28,8.650054,-2.3952155,5.2905307,0.6447467,-0.61544,-0.28085557,10.418743017296581,0.9345290740482071,jump
05/08/2020, 15:20:28,8.7577305,-2.333002,5.3766723,0.6447467,-0.61544,-0.28085557,10.537995381530282,0.9345290740482071,jump
05/08/2020, 15:20:28,8.7577305,-2.333002,5.3766723,0.60811335,-0.57636446,-0.25765446,10.537995381530282,0.8765749554209319,jump
05/08/2020, 15:20:29,8.310273,-2.3234308,4.8095737,-0.015874445,0.09402556,-0.012211111,9.878814171737687,0.0961348799357639,jump
05/08/2020, 15:20:29,8.362915,-2.2971098,4.7856455,-0.015874445,0.09402556,-0.012211111,9.905426002224623,0.0961348799357639,jump
05/08/2020, 15:20:29,8.362915,-2.2971098,4.7856455,-0.026864445,0.09646778,-0.013432222,9.905426002224623,0.10103541559510731,jump
05/08/2020, 15:20:29,8.427522,-2.3018954,4.76411,-0.026864445,0.09646778,-0.013432222,9.950808478374137,0.10103541559510731,jump
05/08/2020, 15:20:29,8.427522,-2.3018954,4.76411,-0.035412222,0.10135223,-0.014653334,9.950808478374137,0.10835598808710144,jump
05/08/2020, 15:20:29,8.456235,-2.3114667,4.7449675,-0.035412222,0.10135223,-0.014653334,9.968224701702308,0.10835598808710144,jump
05/08/2020, 15:20:29,8.456235,-2.3114667,4.7449675,-0.05250778,0.11234222,-0.02198,9.968224701702308,0.12594031375133896,jump
05/08/2020, 15:20:29,8.458628,-2.309074,4.7401814,-0.05250778,0.11234222,-0.02198,9.967423193270879,0.12594031375133896,jump
05/08/2020, 15:20:29,8.458628,-2.309074,4.7401814,-0.05250778,0.109900005,-0.02075889,9.967423193270879,0.12355569450597381,jump
05/08/2020, 15:20:29,8.398808,-2.292324,4.7162533,-0.05250778,0.109900005,-0.02075889,9.901402046382593,0.12355569450597381,jump
05/08/2020, 15:20:29,8.398808,-2.292324,4.7162533,-0.046402223,0.10501556,-0.014653334,9.901402046382593,0.11574175821631733,jump
05/08/2020, 15:20:29,8.353344,-2.3377876,4.6803613,-0.046402223,0.10501556,-0.014653334,9.856438910439378,0.11574175821631733,jump
05/08/2020, 15:20:29,8.353344,-2.3377876,4.6803613,-0.036633335,0.09524667,-0.013432222,9.856438910439378,0.10292888070613603,jump
05/08/2020, 15:20:29,8.338987,-2.3688943,4.694718,-0.036633335,0.09524667,-0.013432222,9.858536728624191,0.10292888070613603,jump
05/08/2020, 15:20:29,8.338987,-2.3688943,4.694718,-0.028085556,0.085477784,-0.009768889,9.858536728624191,0.09050238257510199,jump
05/08/2020, 15:20:29,8.382058,-2.3641088,4.685147,-0.028085556,0.085477784,-0.009768889,9.889312906554894,0.09050238257510199,jump
05/08/2020, 15:20:29,8.382058,-2.3641088,4.685147,-0.014653334,0.07693,-0.007326667,9.889312906554894,0.07865510392282095,jump
05/08/2020, 15:20:29,8.41795,-2.3569303,4.6731825,-0.014653334,0.07693,-0.007326667,9.9123978707883,0.07865510392282095,jump
05/08/2020, 15:20:29,8.41795,-2.3569303,4.6731825,-0.01099,0.08059334,-0.0048844446,9.9123978707883,0.08148573111293982,jump
05/08/2020, 15:20:29,8.451449,-2.349752,4.6707897,-0.01099,0.08059334,-0.0048844446,9.93803842224874,0.08148573111293982,jump
05/08/2020, 15:20:30,8.34138,-2.1966112,4.802395,-0.019537779,0.03174889,-0.03174889,9.872523454907087,0.04896640619148215,jump
05/08/2020, 15:20:30,8.331808,-2.225325,4.792824,-0.019537779,0.03174889,-0.03174889,9.866218008076617,0.04896640619148215,jump
05/08/2020, 15:20:30,8.331808,-2.225325,4.792824,-0.009768889,0.03052778,-0.035412222,9.866218008076617,0.04776402429405333,jump
05/08/2020, 15:20:30,8.348558,-2.2588246,4.800002,-0.009768889,0.03052778,-0.035412222,9.891447641602719,0.04776402429405333,jump
05/08/2020, 15:20:30,8.348558,-2.2588246,4.800002,-0.0036633336,0.03297,-0.037854444,9.891447641602719,0.05033289049209444,jump
05/08/2020, 15:20:30,8.348558,-2.2947168,4.7976093,-0.0036633336,0.03297,-0.037854444,9.89854577296626,0.05033289049209444,jump
05/08/2020, 15:20:30,8.348558,-2.2947168,4.7976093,-0.0024422223,0.03297,-0.04029667,9.89854577296626,0.05212299848235365,jump
05/08/2020, 15:20:30,8.355737,-2.2851455,4.8263235,-0.0024422223,0.03297,-0.04029667,9.916331227378087,0.05212299848235365,jump
05/08/2020, 15:20:30,8.355737,-2.2851455,4.8263235,-0.0012211112,0.029306669,-0.04029667,9.916331227378087,0.049841685013653776,jump
05/08/2020, 15:20:30,8.331808,-2.2899313,4.802395,-0.0012211112,0.029306669,-0.04029667,9.885636441650908,0.049841685013653776,jump
05/08/2020, 15:20:30,8.331808,-2.2899313,4.802395,0.0,0.025643334,-0.046402223,9.885636441650908,0.05301647767656485,jump
05/08/2020, 15:20:30,8.3174515,-2.2588246,4.7952166,0.0,0.025643334,-0.046402223,9.862879369034271,0.05301647767656485,jump
05/08/2020, 15:20:30,8.3174515,-2.2588246,4.7952166,-0.0024422223,0.026864445,-0.046402223,9.862879369034271,0.05367335636507712,jump
05/08/2020, 15:20:30,8.331808,-2.2612174,4.7880383,-0.0024422223,0.026864445,-0.046402223,9.872053499735252,0.05367335636507712,jump
05/08/2020, 15:20:30,8.331808,-2.2612174,4.7880383,-0.0048844446,0.028085556,-0.04151778,9.872053499735252,0.050362508286503814,jump
05/08/2020, 15:20:30,8.346166,-2.2444677,4.7712884,-0.0048844446,0.028085556,-0.04151778,9.872249466922229,0.050362508286503814,jump
05/08/2020, 15:20:30,8.346166,-2.2444677,4.7712884,-0.009768889,0.026864445,-0.04029667,9.872249466922229,0.04940598355812938,jump
05/08/2020, 15:20:30,8.346166,-2.251646,4.749753,-0.009768889,0.026864445,-0.04029667,9.86349555776426,0.04940598355812938,jump
05/08/2020, 15:20:30,8.346166,-2.251646,4.749753,-0.014653334,0.02198,-0.039075557,9.86349555776426,0.04716714750615678,jump
05/08/2020, 15:20:30,8.312666,-2.2612174,4.752146,-0.014653334,0.02198,-0.039075557,9.83851657220696,0.04716714750615678,jump
05/08/2020, 15:20:31,8.319844,-2.2372892,4.8598228,-0.0036633336,0.009768889,0.0024422223,9.891569559959578,0.010715206988016186,jump
05/08/2020, 15:20:31,8.319844,-2.2372892,4.8598228,-0.0012211112,0.007326667,-0.0012211112,9.891569559959578,0.007527434964840002,jump
05/08/2020, 15:20:31,8.286345,-2.251646,4.8191447,-0.0012211112,0.007326667,-0.0012211112,9.846703581710583,0.007527434964840002,jump
05/08/2020, 15:20:31,8.286345,-2.251646,4.8191447,0.0061055557,0.0012211112,0.0012211112,9.846703581710583,0.006345079604060323,jump
05/08/2020, 15:20:31,8.267202,-2.2564318,4.8693943,0.0061055557,0.0012211112,0.0012211112,9.856425344353339,0.006345079604060323,jump
05/08/2020, 15:20:31,8.267202,-2.2564318,4.8693943,0.015874445,0.0024422223,0.0,9.856425344353339,0.01606121003671381,jump
05/08/2020, 15:20:31,8.243274,-2.2612174,4.8789654,0.015874445,0.0024422223,0.0,9.84220346053653,0.01606121003671381,jump
05/08/2020, 15:20:31,8.243274,-2.2612174,4.8789654,0.009768889,0.0036633336,-0.0036633336,9.84220346053653,0.011057631933779238,jump
05/08/2020, 15:20:31,8.257631,-2.2588246,4.8454657,0.009768889,0.0036633336,-0.0036633336,9.837138847001658,0.011057631933779238,jump
05/08/2020, 15:20:31,8.257631,-2.2588246,4.8454657,0.01099,0.0024422223,0.0,9.837138847001658,0.011258088519754728,jump
05/08/2020, 15:20:31,8.274381,-2.2229323,4.8454657,0.01099,0.0024422223,0.0,9.84303516948633,0.011258088519754728,jump
05/08/2020, 15:20:31,8.274381,-2.2229323,4.8454657,0.012211111,0.0012211112,-0.0024422223,9.84303516948633,0.012512665716268013,jump
05/08/2020, 15:20:31,8.300702,-2.2205393,4.847859,0.012211111,0.0012211112,-0.0024422223,9.865808946223737,0.012512665716268013,jump
05/08/2020, 15:20:31,8.300702,-2.2205393,4.847859,0.008547778,0.0,-0.0036633336,9.865808946223737,0.009299705689813,jump
05/08/2020, 15:20:31,8.336594,-2.2325034,4.8382874,0.008547778,0.0,-0.0036633336,9.894033016249573,0.009299705689813,jump
05/08/2020, 15:20:31,8.336594,-2.2325034,4.8382874,0.0012211112,0.0061055557,-0.0061055557,9.894033016249573,0.008720477794441328,jump
05/08/2020, 15:20:31,8.334201,-2.2348964,4.816752,0.0012211112,0.0061055557,-0.0061055557,9.882042571681948,0.008720477794441328,jump
05/08/2020, 15:20:31,8.334201,-2.2348964,4.816752,0.0048844446,0.007326667,-0.007326667,9.882042571681948,0.011455038363153256,jump
05/08/2020, 15:20:31,8.334201,-2.2420747,4.843073,0.0048844446,0.007326667,-0.007326667,9.896522524358211,0.011455038363153256,jump
05/08/2020, 15:20:31,8.334201,-2.2420747,4.843073,0.0036633336,0.009768889,-0.0048844446,9.896522524358211,0.011519939687235872,jump
05/08/2020, 15:20:32,8.200203,-2.4382863,4.723432,0.03297,-0.007326667,0.014653334,9.772378362230796,0.03681604493876642,jump
05/08/2020, 15:20:32,8.200203,-2.4382863,4.723432,0.05006556,-0.008547778,0.014653334,9.772378362230796,0.05286156316271434,jump
05/08/2020, 15:20:32,8.176275,-2.455036,4.7569313,0.05006556,-0.008547778,0.014653334,9.772772065801167,0.05286156316271434,jump
05/08/2020, 15:20:32,8.176275,-2.455036,4.7569313,0.06960334,-0.015874445,0.0061055557,9.772772065801167,0.07165124287526058,jump
05/08/2020, 15:20:32,8.19781,-2.4095724,4.7569313,0.06960334,-0.015874445,0.0061055557,9.779495183546018,0.07165124287526058,jump
05/08/2020, 15:20:32,8.19781,-2.4095724,4.7569313,0.07937223,-0.03052778,0.0061055557,9.779495183546018,0.08525944875000868,jump
05/08/2020, 15:20:32,8.243274,-2.3952155,4.7976093,0.07937223,-0.03052778,0.0061055557,9.83390433614426,0.08525944875000868,jump
05/08/2020, 15:20:32,8.243274,-2.3952155,4.7976093,0.070824444,-0.03052778,0.0012211112,9.83390433614426,0.07713325069979739,jump
05/08/2020, 15:20:32,8.267202,-2.3952155,4.7952166,0.070824444,-0.03052778,0.0012211112,9.852806420204297,0.07713325069979739,jump
05/08/2020, 15:20:32,8.267202,-2.3952155,4.7952166,0.05250778,-0.025643334,0.0012211112,9.852806420204297,0.05844774326437329,jump
05/08/2020, 15:20:32,8.295917,-2.4119651,4.7784667,0.05250778,-0.025643334,0.0012211112,9.872869458274252,0.05844774326437329,jump
05/08/2020, 15:20:32,8.295917,-2.4119651,4.7784667,0.04029667,-0.012211111,0.0048844446,9.872869458274252,0.04238856753340858,jump
05/08/2020, 15:20:32,8.276773,-2.4311078,4.7976093,0.04029667,-0.012211111,0.0048844446,9.870781073569066,0.04238856753340858,jump
05/08/2020, 15:20:32,8.276773,-2.4311078,4.7976093,0.04151778,-0.019537779,0.014653334,9.870781073569066,0.04816815330323911,jump
05/08/2020, 15:20:32,8.248059,-2.5052853,4.84068,0.04151778,-0.019537779,0.014653334,9.886309729294217,0.04816815330323911,jump
05/08/2020, 15:20:32,8.248059,-2.5052853,4.84068,0.064718895,-0.025643334,0.025643334,9.886309729294217,0.07418690222727765,jump
05/08/2020, 15:20:32,8.185846,-2.6368906,4.9459643,0.064718895,-0.025643334,0.025643334,9.920878773251037,0.07418690222727765,jump
05/08/2020, 15:20:32,8.185846,-2.6368906,4.9459643,0.09280445,-0.037854444,0.05250778,9.920878773251037,0.11314897838477284,jump
05/08/2020, 15:20:32,8.19781,-2.7493532,5.0775695,0.09280445,-0.037854444,0.05250778,10.0272003251524,0.11314897838477284,jump
05/08/2020, 15:20:32,8.19781,-2.7493532,5.0775695,0.13554333,-0.045181114,0.08425667,10.0272003251524,0.16586896776708762,jump
05/08/2020, 15:20:33,18.498913,-5.9820566,5.070391,9.292656,-5.228798,-0.69114894,20.092377740735213,10.685105005213149,jump
05/08/2020, 15:20:33,18.498913,-5.9820566,5.070391,8.28646,-4.5083423,-0.30894113,20.092377740735213,9.438538693008336,jump
05/08/2020, 15:20:33,18.228523,-3.4695928,5.7810597,8.28646,-4.5083423,-0.30894113,19.435477509987667,9.438538693008336,jump
05/08/2020, 15:20:33,18.228523,-3.4695928,5.7810597,7.1361737,-3.8391736,0.06716111,19.435477509987667,8.103625092426011,jump
05/08/2020, 15:20:33,17.840885,-0.7752745,6.218946,7.1361737,-3.8391736,0.06716111,18.90961456648929,8.103625092426011,jump
05/08/2020, 15:20:33,17.840885,-0.7752745,6.218946,5.8820925,-3.1663413,0.3602278,18.90961456648929,6.689879910466428,jump
05/08/2020, 15:20:33,17.400606,2.065006,6.666404,5.8820925,-3.1663413,0.3602278,18.74796745407059,6.689879910466428,jump
05/08/2020, 15:20:33,17.400606,2.065006,6.666404,4.5486393,-2.4471068,0.5482789,18.74796745407059,5.194137187155812,jump
05/08/2020, 15:20:33,16.941185,4.5942197,7.200003,4.5486393,-2.4471068,0.5482789,18.972365402091842,5.194137187155812,jump
05/08/2020, 15:20:33,16.941185,4.5942197,7.200003,3.1663413,-1.7632846,0.67039,18.972365402091842,3.685690230798288,jump
05/08/2020, 15:20:33,16.321444,6.5276203,7.60439,3.1663413,-1.7632846,0.67039,19.152704672184854,3.685690230798288,jump
05/08/2020, 15:20:33,16.321444,6.5276203,7.60439,1.7950335,-1.2272167,0.77418447,19.152704672184854,2.3081524147996904,jump
05/08/2020, 15:20:33,15.524633,7.7647095,7.8053875,1.7950335,-1.2272167,0.77418447,19.032315403345418,2.3081524147996904,jump
05/08/2020, 15:20:33,15.524633,7.7647095,7.8053875,0.49577114,-0.8120389,0.86943114,19.032315403345418,1.2888392838265534,jump
05/08/2020, 15:20:33,14.579469,8.331808,7.9657063,0.49577114,-0.8120389,0.86943114,18.585812116939238,1.2888392838265534,jump
05/08/2020, 15:20:33,14.579469,8.331808,7.9657063,-0.6984756,-0.47379112,0.92193896,18.585812116939238,1.249927049348685,jump
05/08/2020, 15:20:33,13.485949,8.353344,7.9346,-0.6984756,-0.47379112,0.92193896,17.737165478365284,1.249927049348685,jump
05/08/2020, 15:20:33,13.485949,8.353344,7.9346,-1.7742745,-0.24178001,0.92438114,17.737165478365284,2.0151893087627313,jump
05/08/2020, 15:20:33,12.318251,7.982456,7.6977105,-1.7742745,-0.24178001,0.92438114,16.574488030906654,2.0151893087627313,jump
05/08/2020, 15:20:33,12.318251,7.982456,7.6977105,-2.7328467,-0.13676445,0.88286334,16.574488030906654,2.875170166218741,jump
05/08/2020, 15:20:34,5.6183476,-5.3623157,0.5455636,0.25765446,-0.60933447,-0.15386,7.7857497427944455,0.6792254524385452,jump
05/08/2020, 15:20:34,5.9150577,-5.4388857,1.3830515,0.25765446,-0.60933447,-0.15386,8.153662743749098,0.6792254524385452,jump
05/08/2020, 15:20:34,5.9150577,-5.4388857,1.3830515,-0.20026223,-0.58491224,-0.32237336,8.153662743749098,0.6972459213203867,jump
05/08/2020, 15:20:34,6.084948,-6.4414787,2.1750758,-0.20026223,-0.58491224,-0.32237336,9.124154522488261,0.6972459213203867,jump
05/08/2020, 15:20:34,6.084948,-6.4414787,2.1750758,-0.14042778,-0.42250445,-0.38220778,9.124154522488261,0.5867817009414086,jump
05/08/2020, 15:20:34,5.946164,-7.7479596,2.7469604,-0.14042778,-0.42250445,-0.38220778,10.145616664324844,0.5867817009414086,jump
05/08/2020, 15:20:34,5.946164,-7.7479596,2.7469604,0.3834289,0.11600556,-0.23079,10.145616664324844,0.4623191959405,jump
05/08/2020, 15:20:34,5.5704913,-8.599805,3.385844,0.3834289,0.11600556,-0.23079,10.79124445845205,0.4623191959405,jump
05/08/2020, 15:20:34,5.5704913,-8.599805,3.385844,0.9182756,0.06349778,-0.07326667,10.79124445845205,0.9233796841379552,jump
05/08/2020, 15:20:34,5.13739,-8.422736,2.2444677,0.9182756,0.06349778,-0.07326667,10.11794926780106,0.9233796841379552,jump
05/08/2020, 15:20:34,5.13739,-8.422736,2.2444677,1.2089001,-0.40174556,-0.06105556,10.11794926780106,1.275369245323598,jump
05/08/2020, 15:20:34,5.2833524,-7.9704924,1.8496519,1.2089001,-0.40174556,-0.06105556,9.73980354520572,1.275369245323598,jump
05/08/2020, 15:20:34,5.2833524,-7.9704924,1.8496519,1.1661612,-0.48844448,-0.078151114,9.73980354520572,1.2667349765283067,jump
05/08/2020, 15:20:34,5.9988065,-7.8604226,1.9453648,1.1661612,-0.48844448,-0.078151114,10.077517903921203,1.2667349765283067,jump
05/08/2020, 15:20:34,5.9988065,-7.8604226,1.9453648,0.8779789,-0.31138334,-0.026864445,10.077517903921203,0.9319486393740506,jump
05/08/2020, 15:20:34,6.8745794,-7.8293157,1.7778672,0.8779789,-0.31138334,-0.026864445,10.569713234009027,0.9319486393740506,jump
05/08/2020, 15:20:34,6.8745794,-7.8293157,1.7778672,0.61788225,-0.13676445,0.036633335,10.569713234009027,0.6338966741865698,jump
05/08/2020, 15:20:34,7.6163545,-7.4249287,1.4739788,0.61788225,-0.13676445,0.036633335,10.738297556189082,0.6338966741865698,jump
05/08/2020, 15:20:34,7.6163545,-7.4249287,1.4739788,0.54950005,-0.02075889,-0.0012211112,10.738297556189082,0.5498933765185636,jump
05/08/2020, 15:20:34,8.123632,-7.056434,1.3232309,0.54950005,-0.02075889,-0.0012211112,10.841476226382298,0.5498933765185636,jump
05/08/2020, 15:20:35,7.092326,-6.1304116,2.7684958,0.21980001,-0.06105556,-0.20026223,9.77484557908786,0.3035536000719823,jump
05/08/2020, 15:20:35,7.1449685,-6.1806607,2.87378,0.21980001,-0.06105556,-0.20026223,9.874702707193892,0.3035536000719823,jump
05/08/2020, 15:20:35,7.1449685,-6.1806607,2.87378,0.21369445,-0.05372889,-0.19904111,9.874702707193892,0.2969334566828859,jump
05/08/2020, 15:20:35,7.190432,-6.209375,2.9886355,0.21369445,-0.05372889,-0.19904111,9.959447398064338,0.2969334566828859,jump
05/08/2020, 15:20:35,7.190432,-6.209375,2.9886355,0.23933779,-0.051286668,-0.19415668,9.959447398064338,0.31242553291136266,jump
05/08/2020, 15:20:35,7.204789,-6.242874,3.0723844,0.23933779,-0.051286668,-0.19415668,10.016087564556349,0.31242553291136266,jump
05/08/2020, 15:20:35,7.204789,-6.242874,3.0723844,0.28329778,-0.05250778,-0.18438779,10.016087564556349,0.3420724396873727,jump
05/08/2020, 15:20:35,7.1856465,-6.242874,3.1106694,0.28329778,-0.05250778,-0.18438779,10.014152868065713,0.3420724396873727,jump
05/08/2020, 15:20:35,7.1856465,-6.242874,3.1106694,0.32359445,-0.058613338,-0.17584,10.014152868065713,0.3729190253717987,jump
05/08/2020, 15:20:35,7.1282187,-6.273981,3.0915267,0.32359445,-0.058613338,-0.17584,9.98658487833197,0.3729190253717987,jump
05/08/2020, 15:20:35,7.1282187,-6.273981,3.0915267,0.3492378,-0.068382226,-0.15996556,9.98658487833197,0.3901693861116432,jump
05/08/2020, 15:20:35,7.1138616,-6.250053,3.0843484,0.3492378,-0.068382226,-0.15996556,9.959085963143082,0.3901693861116432,jump
05/08/2020, 15:20:35,7.1138616,-6.250053,3.0843484,0.36999667,-0.06960334,-0.14287001,9.959085963143082,0.40268349575894874,jump
05/08/2020, 15:20:35,7.1425757,-6.2285175,3.0652058,0.36999667,-0.06960334,-0.14287001,9.960236218922978,0.40268349575894874,jump
05/08/2020, 15:20:35,7.1425757,-6.2285175,3.0652058,0.3858711,-0.057392225,-0.13554333,9.960236218922978,0.4129919823813983,jump
05/08/2020, 15:20:35,7.1856465,-6.2237315,3.0939198,0.3858711,-0.057392225,-0.13554333,9.997034038204509,0.4129919823813983,jump
05/08/2020, 15:20:35,7.1856465,-6.2237315,3.0939198,0.40296668,-0.04396,-0.13310112,9.997034038204509,0.42665036471552015,jump
05/08/2020, 15:20:35,7.1976104,-6.135197,3.0675986,0.40296668,-0.04396,-0.13310112,9.94265560289174,0.42665036471552015,jump
05/08/2020, 15:20:35,7.1976104,-6.135197,3.0675986,0.39686114,-0.034191113,-0.12943779,9.94265560289174,0.4188340181328001,jump
05/08/2020, 15:20:35,7.192825,-6.0490556,3.0747771,0.39686114,-0.034191113,-0.12943779,9.888481022317116,0.4188340181328001,jump
05/08/2020, 15:20:36,6.302695,-1.3926228,7.635497,-0.09646778,-0.028085556,-0.09036223,9.998208635216775,0.13513017053625723,jump
05/08/2020, 15:20:36,6.302695,-1.3926228,7.635497,-0.07448778,-0.03297,-0.08059334,9.998208635216775,0.11458942879078331,jump
05/08/2020, 15:20:36,6.355337,-1.4380864,7.664211,-0.07448778,-0.03297,-0.08059334,10.059747998732306,0.11458942879078331,jump
05/08/2020, 15:20:36,6.355337,-1.4380864,7.664211,-0.048844445,-0.036633335,-0.07204556,10.059747998732306,0.09443698113266777,jump
05/08/2020, 15:20:36,6.3888364,-1.457229,7.6307116,-0.048844445,-0.036633335,-0.07204556,10.05825559397278,0.09443698113266777,jump
05/08/2020, 15:20:36,6.3888364,-1.457229,7.6307116,-0.039075557,-0.037854444,-0.06105556,10.05825559397278,0.08177798897247296,jump
05/08/2020, 15:20:36,6.410372,-1.4524434,7.6546397,-0.039075557,-0.037854444,-0.06105556,10.089398759968836,0.08177798897247296,jump
05/08/2020, 15:20:36,6.410372,-1.4524434,7.6546397,-0.047623336,-0.034191113,-0.05006556,10.089398759968836,0.07709458155974849,jump
05/08/2020, 15:20:36,6.4295144,-1.402194,7.690532,-0.047623336,-0.034191113,-0.05006556,10.121713750005389,0.07709458155974849,jump
05/08/2020, 15:20:36,6.4295144,-1.402194,7.690532,-0.07326667,-0.028085556,-0.03297,10.121713750005389,0.0851106591544354,jump
05/08/2020, 15:20:36,6.4606214,-1.3423735,7.7216387,-0.07326667,-0.028085556,-0.03297,10.157031987860895,0.0851106591544354,jump
05/08/2020, 15:20:36,6.4606214,-1.3423735,7.7216387,-0.12089001,-0.015874445,-0.018316668,10.157031987860895,0.12329595281363297,jump
05/08/2020, 15:20:36,6.513263,-1.2849457,7.769495,-0.12089001,-0.015874445,-0.018316668,10.219527194611778,0.12329595281363297,jump
05/08/2020, 15:20:36,6.513263,-1.2849457,7.769495,-0.16485001,0.007326667,-0.019537779,10.219527194611778,0.16616537282085364,jump
05/08/2020, 15:20:36,6.546763,-1.294517,7.745567,-0.16485001,0.007326667,-0.019537779,10.22397599529097,0.16616537282085364,jump
05/08/2020, 15:20:36,6.546763,-1.294517,7.745567,-0.18072446,0.018316668,-0.014653334,10.22397599529097,0.18224036282405243,jump
05/08/2020, 15:20:36,6.5539412,-1.2969099,7.702496,-0.18072446,0.018316668,-0.014653334,10.196301618550033,0.18224036282405243,jump
05/08/2020, 15:20:36,6.5539412,-1.2969099,7.702496,-0.15508112,0.024422223,-0.017095556,10.196301618550033,0.15792041591133874,jump
05/08/2020, 15:20:36,6.501299,-1.3351951,7.60439,-0.15508112,0.024422223,-0.017095556,10.093383118283118,0.15792041591133874,jump
05/08/2020, 15:20:36,6.501299,-1.3351951,7.60439,-0.106236674,0.017095556,-0.014653334,10.093383118283118,0.1085965429461538,jump
05/08/2020, 15:20:37,7.7814593,0.062213387,4.0390844,-0.7070234,-0.69114894,-0.16485001,8.76750722284514,1.0023694139430608,jump
05/08/2020, 15:20:37,7.8556366,0.13399807,3.8476589,-0.7070234,-0.69114894,-0.16485001,8.748340449523338,1.0023694139430608,jump
05/08/2020, 15:20:37,7.8556366,0.13399807,3.8476589,-0.92193896,-0.7302245,-0.16729222,8.748340449523338,1.1879334711584775,jump
05/08/2020, 15:20:37,7.9346,0.12921242,3.739982,-0.92193896,-0.7302245,-0.16729222,8.772800897356179,1.1879334711584775,jump
05/08/2020, 15:20:37,7.9346,0.12921242,3.739982,-1.1368545,-0.7546467,-0.16118668,8.772800897356179,1.3740127497926289,jump
05/08/2020, 15:20:37,8.087741,0.033499517,3.7878382,-1.1368545,-0.7546467,-0.16118668,8.93086745161641,1.3740127497926289,jump
05/08/2020, 15:20:37,8.087741,0.033499517,3.7878382,-1.3139156,-0.7558678,-0.15630223,8.93086745161641,1.5238571840553081,jump
05/08/2020, 15:20:37,8.240881,-0.21296121,3.9361932,-1.3139156,-0.7558678,-0.15630223,9.135156742109745,1.5238571840553081,jump
05/08/2020, 15:20:37,8.240881,-0.21296121,3.9361932,-1.4225945,-0.74976224,-0.13676445,9.135156742109745,1.6138844981470621,jump
05/08/2020, 15:20:37,8.398808,-0.5072784,4.125226,-1.4225945,-0.74976224,-0.13676445,9.370954536923428,1.6138844981470621,jump
05/08/2020, 15:20:37,8.398808,-0.5072784,4.125226,-1.4812078,-0.7424356,-0.11844778,9.370954536923428,1.6610891447598104,jump
05/08/2020, 15:20:37,8.482556,-0.7800602,4.3525443,-1.4812078,-0.7424356,-0.11844778,9.565923788957239,1.6610891447598104,jump
05/08/2020, 15:20:37,8.482556,-0.7800602,4.3525443,-1.5215045,-0.7387723,-0.10745778,9.565923788957239,1.6947883804000958,jump
05/08/2020, 15:20:37,8.513663,-0.99302137,4.5296135,-1.5215045,-0.7387723,-0.10745778,9.694635243296352,1.6947883804000958,jump
05/08/2020, 15:20:37,8.513663,-0.99302137,4.5296135,-1.5801178,-0.7448778,-0.09280445,9.694635243296352,1.7493507239626327,jump
05/08/2020, 15:20:37,8.559127,-1.1294123,4.613362,-1.5801178,-0.7448778,-0.09280445,9.78863279807283,1.7493507239626327,jump
05/08/2020, 15:20:37,8.559127,-1.1294123,4.613362,-1.6729223,-0.73999333,-0.07937223,9.78863279807283,1.830999440513713,jump
05/08/2020, 15:20:37,8.599805,-1.1724831,4.6779685,-1.6729223,-0.73999333,-0.07937223,9.859754045520837,1.830999440513713,jump
05/08/2020, 15:20:37,8.599805,-1.1724831,4.6779685,-1.7754956,-0.70336,-0.064718895,9.859754045520837,1.9108345433498177,jump
05/08/2020, 15:20:37,8.690732,-1.2418749,4.814359,-1.7754956,-0.70336,-0.064718895,10.01244877523686,1.9108345433498177,jump
05/08/2020, 15:20:38,5.0105705,-1.7587247,1.579263,-2.2834778,-4.987018,-6.6172013,5.540126448466444,8.594880675060619,jump
05/08/2020, 15:20:38,5.0105705,-1.7587247,1.579263,-2.8903701,-5.06639,-6.797926,5.540126448466444,8.957362598073386,jump
05/08/2020, 15:20:38,5.9342003,-3.17049,2.6009982,-2.8903701,-5.06639,-6.797926,7.2133162621427696,8.957362598073386,jump
05/08/2020, 15:20:38,5.9342003,-3.17049,2.6009982,-3.1846578,-5.090812,-6.9481225,7.2133162621427696,9.183399185152949,jump
05/08/2020, 15:20:38,6.838687,-5.211568,3.8500516,-3.1846578,-5.090812,-6.9481225,9.420773667888444,9.183399185152949,jump
05/08/2020, 15:20:38,6.838687,-5.211568,3.8500516,-3.3202012,-5.133551,-6.940796,9.420773667888444,9.249417849046734,jump
05/08/2020, 15:20:38,8.013563,-8.712267,4.9722853,-3.3202012,-5.133551,-6.940796,12.839174825139862,9.249417849046734,jump
05/08/2020, 15:20:38,8.013563,-8.712267,4.9722853,-3.305548,-5.106687,-6.8052526,12.839174825139862,9.127779707261622,jump
05/08/2020, 15:20:38,9.260223,-11.861222,5.5250273,-3.305548,-5.106687,-6.8052526,16.030167100479634,9.127779707261622,jump
05/08/2020, 15:20:38,9.260223,-11.861222,5.5250273,-2.7487211,-5.087149,-6.744197,16.030167100479634,8.883622342891334,jump
05/08/2020, 15:20:38,9.966106,-12.593426,5.6781683,-2.7487211,-5.087149,-6.744197,17.03406130132125,8.883622342891334,jump
05/08/2020, 15:20:38,9.966106,-12.593426,5.6781683,-1.6924601,-5.2117023,-6.889509,17.03406130132125,8.802931298045499,jump
05/08/2020, 15:20:38,10.090533,-11.674582,5.6733823,-1.6924601,-5.2117023,-6.889509,16.44086316982562,8.802931298045499,jump
05/08/2020, 15:20:38,10.090533,-11.674582,5.6733823,-0.47867557,-5.459588,-7.0470324,16.44086316982562,8.927311858578262,jump
05/08/2020, 15:20:38,10.372886,-10.66481,6.056234,-0.47867557,-5.459588,-7.0470324,16.06278004777253,8.927311858578262,jump
05/08/2020, 15:20:38,10.372886,-10.66481,6.056234,0.8962956,-5.6610713,-6.9688816,16.06278004777253,9.023102844247479,jump
05/08/2020, 15:20:38,11.179267,-10.317851,6.652047,0.8962956,-5.6610713,-6.9688816,16.60372822889296,9.023102844247479,jump
05/08/2020, 15:20:38,11.179267,-10.317851,6.652047,2.4727502,-5.7306747,-6.644066,16.60372822889296,9.11585089916017,jump
05/08/2020, 15:20:38,12.2991085,-10.612168,7.2789664,2.4727502,-5.7306747,-6.644066,17.800829715236596,9.11585089916017,jump
05/08/2020, 15:20:38,12.2991085,-10.612168,7.2789664,4.1481147,-5.73678,-6.2203403,17.800829715236596,9.423912931401315,jump
05/08/2020, 15:20:39,8.161918,-2.7110682,4.536792,1.009859,-1.009859,-0.21980001,9.723644928862539,1.4449713860313265,jump
05/08/2020, 15:20:39,8.161918,-2.7110682,4.536792,0.9817734,-1.0171856,-0.21613668,9.723644928862539,1.430126046249664,jump
05/08/2020, 15:20:39,8.195417,-2.6368906,4.584648,0.9817734,-1.0171856,-0.21613668,9.75382269804277,1.430126046249664,jump
05/08/2020, 15:20:39,8.195417,-2.6368906,4.584648,0.9536878,-1.0171856,-0.21735778,9.75382269804277,1.4111808116116744,jump
05/08/2020, 15:20:39,8.240881,-2.5722845,4.666004,0.9536878,-1.0171856,-0.21735778,9.81327475711417,1.4111808116116744,jump
05/08/2020, 15:20:39,8.240881,-2.5722845,4.666004,0.92560226,-1.0061955,-0.21491556,9.81327475711417,1.3839644905749529,jump
05/08/2020, 15:20:39,8.293523,-2.4885356,4.7712884,0.92560226,-1.0061955,-0.21491556,9.886380713039797,1.3839644905749529,jump
05/08/2020, 15:20:39,8.293523,-2.4885356,4.7712884,0.8865267,-0.9842156,-0.21980001,9.886380713039797,1.342729318310544,jump
05/08/2020, 15:20:39,8.346166,-2.4622145,4.8526444,0.8865267,-0.9842156,-0.21980001,9.963389953514401,1.342729318310544,jump
05/08/2020, 15:20:39,8.346166,-2.4622145,4.8526444,0.82913446,-0.9634567,-0.21980001,9.963389953514401,1.2899708517925088,jump
05/08/2020, 15:20:39,8.367701,-2.4119651,4.948357,0.82913446,-0.9634567,-0.21980001,10.016098381137978,1.2899708517925088,jump
05/08/2020, 15:20:39,8.367701,-2.4119651,4.948357,0.77052116,-0.9304867,-0.22346334,10.016098381137978,1.2285943956637506,jump
05/08/2020, 15:20:39,8.389236,-2.3856442,5.032106,0.77052116,-0.9304867,-0.22346334,10.069393053776446,1.2285943956637506,jump
05/08/2020, 15:20:39,8.389236,-2.3856442,5.032106,0.7314456,-0.8450089,-0.22712667,10.069393053776446,1.1404557265217339,jump
05/08/2020, 15:20:39,8.554341,-2.3138595,5.828916,0.7314456,-0.8450089,-0.22712667,10.606929977708951,1.1404557265217339,jump
05/08/2020, 15:20:39,8.554341,-2.3138595,5.828916,0.68260115,-0.8095967,-0.2735289,10.606929977708951,1.0937135096386739,jump
05/08/2020, 15:20:39,8.530413,-1.6797615,5.804988,0.68260115,-0.8095967,-0.2735289,10.454062549423847,1.0937135096386739,jump
05/08/2020, 15:20:39,8.530413,-1.6797615,5.804988,0.3834289,-0.7668578,-0.3858711,10.454062549423847,0.9402048327986029,jump
05/08/2020, 15:20:39,8.480164,-0.74416786,6.0729837,0.3834289,-0.7668578,-0.3858711,10.45696378417184,0.9402048327986029,jump
05/08/2020, 15:20:39,8.480164,-0.74416786,6.0729837,-0.18316667,-0.69114894,-0.5128667,10.45696378417184,0.8799256264990621,jump
05/08/2020, 15:20:40,8.456235,-2.4311078,4.694718,-0.042738892,0.13188,-0.03174889,9.972891765851625,0.14222144505916326,jump
05/08/2020, 15:20:40,8.456235,-2.4311078,4.694718,-0.036633335,0.11966889,-0.019537779,9.972891765851625,0.12666637321732602,jump
05/08/2020, 15:20:40,8.465807,-2.4598217,4.6803613,-0.036633335,0.11966889,-0.019537779,9.981302115909697,0.12666637321732602,jump
05/08/2020, 15:20:40,8.465807,-2.4598217,4.6803613,-0.035412222,0.12699556,-0.0061055557,9.981302115909697,0.13198172766757035,jump
05/08/2020, 15:20:40,8.46102,-2.457429,4.6875396,-0.035412222,0.12699556,-0.0061055557,9.98002262699556,0.13198172766757035,jump
05/08/2020, 15:20:40,8.46102,-2.457429,4.6875396,-0.036633335,0.12943779,0.007326667,9.98002262699556,0.13472127743486795,jump
05/08/2020, 15:20:40,8.451449,-2.428715,4.6492543,-0.036633335,0.12943779,0.007326667,9.946920082112133,0.13472127743486795,jump
05/08/2020, 15:20:40,8.451449,-2.428715,4.6492543,-0.035412222,0.13432223,0.01099,9.946920082112133,0.1393458502970183,jump
05/08/2020, 15:20:40,8.458628,-2.4311078,4.627719,-0.035412222,0.13432223,0.01099,9.943563243235763,0.1393458502970183,jump
05/08/2020, 15:20:40,8.458628,-2.4311078,4.627719,-0.037854444,0.13432223,0.015874445,9.943563243235763,0.14045432487723397,jump
05/08/2020, 15:20:40,8.451449,-2.3928227,4.5535417,-0.037854444,0.13432223,0.015874445,9.89380307021403,0.14045432487723397,jump
05/08/2020, 15:20:40,8.451449,-2.3928227,4.5535417,-0.04029667,0.12577444,0.024422223,9.89380307021403,0.13431112065137615,jump
05/08/2020, 15:20:40,8.394022,-2.3928227,4.4889355,-0.04029667,0.12577444,0.024422223,9.815077557996474,0.13431112065137615,jump
05/08/2020, 15:20:40,8.394022,-2.3928227,4.4889355,-0.039075557,0.12211112,0.018316668,9.815077557996474,0.12951264393601858,jump
05/08/2020, 15:20:40,8.391629,-2.37368,4.4482574,-0.039075557,0.12211112,0.018316668,9.789831078507316,0.12951264393601858,jump
05/08/2020, 15:20:40,8.391629,-2.37368,4.4482574,-0.037854444,0.11234222,0.017095556,9.789831078507316,0.11977475604812274,jump
05/08/2020, 15:20:40,8.408379,-2.3904297,4.4051867,-0.037854444,0.11234222,0.017095556,9.788802504230613,0.11977475604812274,jump
05/08/2020, 15:20:40,8.408379,-2.3904297,4.4051867,-0.04029667,0.09768889,0.014653334,9.788802504230613,0.10668486888728078,jump
05/08/2020, 15:20:40,8.444271,-2.37368,4.402794,-0.04029667,0.09768889,0.014653334,9.81451300249958,0.10668486888728078,jump
05/08/2020, 15:20:40,8.444271,-2.37368,4.402794,-0.047623336,0.091583334,0.019537779,9.81451300249958,0.10505814582061962,jump
05/08/2020, 15:20:41,8.506484,-2.2205393,4.6396832,0.0012211112,0.026864445,-0.0061055557,9.940710544650823,0.02757657192462282,jump
05/08/2020, 15:20:41,8.482556,-2.2205393,4.634897,0.0012211112,0.026864445,-0.0061055557,9.918005312948537,0.02757657192462282,jump
05/08/2020, 15:20:41,8.482556,-2.2205393,4.634897,-0.0012211112,0.024422223,-0.0061055557,9.918005312948537,0.025203449896541462,jump
05/08/2020, 15:20:41,8.4682,-2.2181466,4.6205406,-0.0012211112,0.024422223,-0.0061055557,9.89848354293469,0.025203449896541462,jump
05/08/2020, 15:20:41,8.4682,-2.2181466,4.6205406,-0.0036633336,0.024422223,-0.015874445,9.89848354293469,0.02935750321472769,jump
05/08/2020, 15:20:41,8.456235,-2.213361,4.6325045,-0.0036633336,0.024422223,-0.015874445,9.892773819922475,0.02935750321472769,jump
05/08/2020, 15:20:41,8.456235,-2.213361,4.6325045,0.0012211112,0.03052778,-0.017095556,9.892773819922475,0.035009920100159624,jump
05/08/2020, 15:20:41,8.420342,-2.2229323,4.6468616,0.0012211112,0.03052778,-0.017095556,9.871013999301065,0.035009920100159624,jump
05/08/2020, 15:20:41,8.420342,-2.2229323,4.6468616,0.0024422223,0.03297,-0.019537779,9.871013999301065,0.03840195496609537,jump
05/08/2020, 15:20:41,8.444271,-2.2564318,4.644469,0.0024422223,0.03297,-0.019537779,9.897893161659205,0.03840195496609537,jump
05/08/2020, 15:20:41,8.444271,-2.2564318,4.644469,0.0012211112,0.029306669,-0.024422223,9.897893161659205,0.03816827101009611,jump
05/08/2020, 15:20:41,8.4682,-2.254039,4.587041,0.0012211112,0.029306669,-0.024422223,9.891008185722514,0.03816827101009611,jump
05/08/2020, 15:20:41,8.4682,-2.254039,4.587041,0.0,0.029306669,-0.028085556,9.891008185722514,0.04059161593999953,jump
05/08/2020, 15:20:41,8.484949,-2.2420747,4.546363,0.0,0.029306669,-0.028085556,9.883859363960948,0.04059161593999953,jump
05/08/2020, 15:20:41,8.484949,-2.2420747,4.546363,-0.0012211112,0.03052778,-0.03052778,9.883859363960948,0.04319006593497889,jump
05/08/2020, 15:20:41,8.49452,-2.2348964,4.534399,-0.0012211112,0.03052778,-0.03052778,9.884958766483614,0.04319006593497889,jump
05/08/2020, 15:20:41,8.49452,-2.2348964,4.534399,-0.0048844446,0.03297,-0.03174889,9.884958766483614,0.04603119350207497,jump
05/08/2020, 15:20:41,8.4705925,-2.2372892,4.551149,-0.0048844446,0.03297,-0.03174889,9.872657009818196,0.04603119350207497,jump
05/08/2020, 15:20:41,8.4705925,-2.2372892,4.551149,-0.009768889,0.03297,-0.03052778,9.872657009818196,0.045982577605295456,jump
05/08/2020, 15:20:41,8.4682,-2.2851455,4.5487556,-0.009768889,0.03297,-0.03052778,9.880459232417461,0.045982577605295456,jump
05/08/2020, 15:20:42,8.422736,-0.33499518,5.2642097,0.25765446,0.070824444,0.13554333,9.938139191456886,0.29962295722880494,jump
05/08/2020, 15:20:42,8.439486,-0.37088752,5.345566,0.25765446,0.070824444,0.13554333,9.996876891142424,0.29962295722880494,jump
05/08/2020, 15:20:42,8.439486,-0.37088752,5.345566,0.21247335,0.081814446,0.13554333,9.996876891142424,0.26497268111038785,jump
05/08/2020, 15:20:42,8.456235,-0.44506502,5.3479586,0.21247335,0.081814446,0.13554333,10.015320908887949,0.26497268111038785,jump
05/08/2020, 15:20:42,8.456235,-0.44506502,5.3479586,0.2075889,0.08059334,0.13310112,10.015320908887949,0.2594308088448891,jump
05/08/2020, 15:20:42,8.429914,-0.56470615,5.288138,0.2075889,0.08059334,0.13310112,9.967284166892059,0.2594308088448891,jump
05/08/2020, 15:20:42,8.429914,-0.56470615,5.288138,0.22224224,0.06594,0.13432223,9.967284166892059,0.2679219206207553,jump
05/08/2020, 15:20:42,8.403593,-0.60777694,5.3216376,0.22224224,0.06594,0.13432223,9.965420023915312,0.2679219206207553,jump
05/08/2020, 15:20:42,8.403593,-0.60777694,5.3216376,0.22224224,0.05250778,0.12821667,9.965420023915312,0.2618934759318262,jump
05/08/2020, 15:20:42,8.410771,-0.5240282,5.304888,0.22224224,0.05250778,0.12821667,9.957786643737844,0.2618934759318262,jump
05/08/2020, 15:20:42,8.410771,-0.5240282,5.304888,0.19782001,0.05006556,0.12455334,9.957786643737844,0.23906662158320444,jump
05/08/2020, 15:20:42,8.456235,-0.46181476,5.4173503,0.19782001,0.05006556,0.12455334,10.053301263085162,0.23906662158320444,jump
05/08/2020, 15:20:42,8.456235,-0.46181476,5.4173503,0.17950334,0.06349778,0.10745778,10.053301263085162,0.2186334614421019,jump
05/08/2020, 15:20:42,8.513663,-0.4139583,5.4484572,0.17950334,0.06349778,0.10745778,10.11629924623279,0.2186334614421019,jump
05/08/2020, 15:20:42,8.513663,-0.4139583,5.4484572,0.18683001,0.07204556,0.09524667,10.11629924623279,0.22173846100121816,jump
05/08/2020, 15:20:42,8.508878,-0.3493521,5.4891353,0.18683001,0.07204556,0.09524667,10.13181392847785,0.22173846100121816,jump
05/08/2020, 15:20:42,8.508878,-0.3493521,5.4891353,0.19293556,0.06716111,0.085477784,10.13181392847785,0.2214524679095628,jump
05/08/2020, 15:20:42,8.496913,-0.2632105,5.4987063,0.19293556,0.06716111,0.085477784,10.124355830283525,0.2214524679095628,jump
05/08/2020, 15:20:42,8.496913,-0.2632105,5.4987063,0.17828223,0.07693,0.068382226,10.124355830283525,0.2058613802017442,jump
05/08/2020, 15:20:42,8.480164,-0.18903299,5.5369916,0.17828223,0.07693,0.068382226,10.12952040583473,0.2058613802017442,jump
05/08/2020, 15:20:43,8.279166,-0.6556334,5.419743,0.007326667,-0.0036633336,0.0061055557,9.917059207001733,0.010216549100291232,jump
05/08/2020, 15:20:43,8.279166,-0.6556334,5.419743,-0.012211111,0.0036633336,0.0061055557,9.917059207001733,0.014135383415226287,jump
05/08/2020, 15:20:43,8.279166,-0.65084773,5.419743,-0.012211111,0.0036633336,0.0061055557,9.916743968901239,0.014135383415226287,jump
05/08/2020, 15:20:43,8.279166,-0.65084773,5.419743,-0.03052778,0.0036633336,0.009768889,9.916743968901239,0.03226137865047575,jump
05/08/2020, 15:20:43,8.276773,-0.66041905,5.4149575,-0.03052778,0.0036633336,0.009768889,9.912764351350932,0.03226137865047575,jump
05/08/2020, 15:20:43,8.276773,-0.66041905,5.4149575,-0.04151778,0.0061055557,0.0024422223,9.912764351350932,0.04203532148557257,jump
05/08/2020, 15:20:43,8.257631,-0.69152576,5.4125648,-0.04151778,0.0061055557,0.0024422223,9.897602730576654,0.04203532148557257,jump
05/08/2020, 15:20:43,8.257631,-0.69152576,5.4125648,-0.045181114,0.009768889,0.008547778,9.897602730576654,0.04700881612520233,jump
05/08/2020, 15:20:43,8.283952,-0.7298109,5.407779,-0.045181114,0.009768889,0.008547778,9.919705476911037,0.04700881612520233,jump
05/08/2020, 15:20:43,8.283952,-0.7298109,5.407779,-0.036633335,0.01099,0.007326667,9.919705476911037,0.038941769305471816,jump
05/08/2020, 15:20:43,8.262417,-0.75613195,5.410172,-0.036633335,0.01099,0.007326667,9.905010270902768,0.038941769305471816,jump
05/08/2020, 15:20:43,8.262417,-0.75613195,5.410172,-0.026864445,0.013432222,0.007326667,9.905010270902768,0.030916064557359856,jump
05/08/2020, 15:20:43,8.248059,-0.7322037,5.419743,-0.026864445,0.013432222,0.007326667,9.896475074769977,0.030916064557359856,jump
05/08/2020, 15:20:43,8.248059,-0.7322037,5.419743,-0.018316668,0.01099,0.013432222,9.896475074769977,0.0252330143986875,jump
05/08/2020, 15:20:43,8.226524,-0.7178468,5.4293146,-0.018316668,0.01099,0.013432222,9.882735661010326,0.0252330143986875,jump
05/08/2020, 15:20:43,8.226524,-0.7178468,5.4293146,-0.012211111,0.009768889,0.01099,9.882735661010326,0.01911341272822154,jump
05/08/2020, 15:20:43,8.248059,-0.6771688,5.45085,-0.012211111,0.009768889,0.01099,9.909631938832701,0.01911341272822154,jump
05/08/2020, 15:20:43,8.248059,-0.6771688,5.45085,-0.017095556,0.01099,0.017095556,9.909631938832701,0.026557413468859575,jump
05/08/2020, 15:20:43,8.29113,-0.64606214,5.460421,-0.017095556,0.01099,0.017095556,9.948689988263183,0.026557413468859575,jump
