DATE,TIME,ax,ay,az,gx,gy,gz,ma,mg,label
05/08/2020, 15:24:53,-4.2799,0.46702883,8.820857,0.023592725,-0.025582235,0.0041270624,9.815456160061576,0.03504425914295941,jump
05/08/2020, 15:24:53,-4.248765,0.5005591,8.777747,0.023592725,-0.025582235,0.0041270624,9.764804578846126,0.03504425914295941,jump
05/08/2020, 15:24:53,-4.248765,0.5005591,8.777747,0.0052667744,-0.029247425,0.002905332,9.764804578846126,0.029859533910855787,jump
05/08/2020, 15:24:53,-4.1960745,0.51971924,8.813672,0.0052667744,-0.029247425,0.002905332,9.77537541295039,0.029859533910855787,jump
05/08/2020, 15:24:53,-4.1960745,0.51971924,8.813672,-0.0045070667,-0.023138775,0.0016836026,9.77537541295039,0.023633684769725764,jump
05/08/2020, 15:24:53,-4.1553593,0.47181886,8.746612,-0.0045070667,-0.023138775,0.0016836026,9.694990360229928,0.023633684769725764,jump
05/08/2020, 15:24:53,-4.1553593,0.47181886,8.746612,-0.009393986,-0.014586665,-0.011755427,9.694990360229928,0.020957286062000268,jump
05/08/2020, 15:24:53,-4.1936793,0.33530274,8.818462,-0.009393986,-0.014586665,-0.011755427,9.770601459315785,0.020957286062000268,jump
05/08/2020, 15:24:53,-4.1936793,0.33530274,8.818462,-0.002063606,-0.009699745,-0.0068685077,9.770601459315785,0.012063163877446307,jump
05/08/2020, 15:24:53,-4.253555,0.29698244,8.866363,-0.002063606,-0.009699745,-0.0068685077,9.838359234984981,0.012063163877446307,jump
05/08/2020, 15:24:53,-4.253555,0.29698244,8.866363,0.027257916,0.017178316,0.0053487928,9.838359234984981,0.032660344079422685,jump
05/08/2020, 15:24:53,-4.3565407,0.28500733,8.669971,0.027257916,0.017178316,0.0053487928,9.707166481273921,0.032660344079422685,jump
05/08/2020, 15:24:53,-4.3565407,0.28500733,8.669971,0.09811826,0.07826482,-0.010533698,9.707166481273921,0.12595052008176594,jump
05/08/2020, 15:24:53,-4.4619217,0.3544629,9.953702,0.09811826,0.07826482,-0.010533698,10.913779001464638,0.12595052008176594,jump
05/08/2020, 15:24:53,-4.4619217,0.3544629,9.953702,0.13232669,0.2822937,-0.02397273,10.913779001464638,0.31268959422916004,jump
05/08/2020, 15:24:53,-5.9085135,0.12693603,8.57417,0.13232669,0.2822937,-0.02397273,10.413598715126614,0.31268959422916004,jump
05/08/2020, 15:24:53,-5.9085135,0.12693603,8.57417,0.012597155,-0.028025696,-7.598577E-4,10.413598715126614,0.030736059161181814,jump
05/08/2020, 15:24:53,-2.078877,0.80712163,9.968072,0.012597155,-0.028025696,-7.598577E-4,10.214481531178174,0.030736059161181814,jump
05/08/2020, 15:24:53,-2.078877,0.80712163,9.968072,-0.13767564,0.035504263,0.023674743,10.214481531178174,0.14413753438319485,jump
05/08/2020, 15:24:53,-2.5051906,0.91250247,3.7410207,-0.13767564,0.035504263,0.023674743,4.593895566352774,0.14413753438319485,jump
05/08/2020, 15:24:54,-4.1218286,-10.748848,1.695674,-0.51396847,-1.1410217,2.0554118,11.636258559472731,2.406410584799184,jump
05/08/2020, 15:24:54,-4.3397756,-10.679393,1.6884888,-0.51396847,-1.1410217,2.0554118,11.650496872953333,2.406410584799184,jump
05/08/2020, 15:24:54,-4.3397756,-10.679393,1.6884888,-0.3514784,-0.9528753,2.0712943,11.650496872953333,2.3068958670503243,jump
05/08/2020, 15:24:54,-4.430786,-10.40157,1.4418018,-0.3514784,-0.9528753,2.0712943,11.397513907455961,2.3068958670503243,jump
05/08/2020, 15:24:54,-4.430786,-10.40157,1.4418018,-0.3429263,-0.7757245,2.0334208,11.397513907455961,2.2032128929731005,jump
05/08/2020, 15:24:54,-4.5744877,-9.948912,1.2166699,-0.3429263,-0.7757245,2.0334208,11.01757989002942,2.2032128929731005,jump
05/08/2020, 15:24:54,-4.5744877,-9.948912,1.2166699,-0.52496403,-0.6401124,1.9601167,11.01757989002942,2.1277661461153183,jump
05/08/2020, 15:24:54,-4.912185,-9.347761,1.1256592,-0.52496403,-0.6401124,1.9601167,10.619666221366472,2.1277661461153183,jump
05/08/2020, 15:24:54,-4.912185,-9.347761,1.1256592,-0.7961881,-0.5460392,1.8819261,10.619666221366472,2.1151170284946854,jump
05/08/2020, 15:24:54,-5.1780324,-8.840017,1.2573853,-0.7961881,-0.5460392,1.8819261,10.32177036119121,2.1151170284946854,jump
05/08/2020, 15:24:54,-5.1780324,-8.840017,1.2573853,-1.0661905,-0.48617446,1.7841877,10.32177036119121,2.134585067350166,jump
05/08/2020, 15:24:54,-5.3792143,-8.638836,1.4609619,-1.0661905,-0.48617446,1.7841877,10.28104284375532,2.134585067350166,jump
05/08/2020, 15:24:54,-5.3792143,-8.638836,1.4609619,-1.2885454,-0.43608353,1.6864493,10.28104284375532,2.166709306161656,jump
05/08/2020, 15:24:54,-5.5229154,-8.770562,1.6214283,-1.2885454,-0.43608353,1.6864493,10.490680840446228,2.166709306161656,jump
05/08/2020, 15:24:54,-5.5229154,-8.770562,1.6214283,-1.425379,-0.3811057,1.629028,10.490680840446228,2.1978805819770124,jump
05/08/2020, 15:24:54,-5.4989653,-8.978929,1.9423609,-1.425379,-0.3811057,1.629028,10.7066588131413,2.1978805819770124,jump
05/08/2020, 15:24:54,-5.4989653,-8.978929,1.9423609,-1.4547006,-0.33101475,1.6045934,10.7066588131413,2.190991679022421,jump
05/08/2020, 15:24:54,-5.4055595,-9.072334,2.308799,-1.4547006,-0.33101475,1.6045934,10.810082162183221,2.190991679022421,jump
05/08/2020, 15:24:54,-5.4055595,-9.072334,2.308799,-1.4070531,-0.2797021,1.5777153,10.810082162183221,2.132420508089733,jump
05/08/2020, 15:24:54,-5.3001785,-9.050779,2.5123756,-1.4070531,-0.2797021,1.5777153,10.785199592844364,2.132420508089733,jump
05/08/2020, 15:24:55,-9.239985,-2.4093897,0.26105714,-0.087584704,0.68057775,0.76037794,9.552520145651794,1.0242225236510598,jump
05/08/2020, 15:24:55,-9.314231,-2.4812403,0.32572266,-0.087584704,0.68057775,0.76037794,9.644560443820932,1.0242225236510598,jump
05/08/2020, 15:24:55,-9.314231,-2.4812403,0.32572266,-0.053376265,0.68057775,0.7506041,9.644560443820932,1.0146140205802787,jump
05/08/2020, 15:24:55,-9.302257,-2.5770411,0.05748047,-0.053376265,0.68057775,0.7506041,9.652793515164468,1.0146140205802787,jump
05/08/2020, 15:24:55,-9.302257,-2.5770411,0.05748047,-0.06559356,0.69401675,0.7334999,9.652793515164468,1.0119208723655941,jump
05/08/2020, 15:24:55,-9.453142,-2.572251,-0.117355965,-0.06559356,0.69401675,0.7334999,9.79755810709262,1.0119208723655941,jump
05/08/2020, 15:24:55,-9.453142,-2.572251,-0.117355965,-0.066815294,0.6915733,0.7225043,9.79755810709262,1.0023724019497398,jump
05/08/2020, 15:24:55,-9.307046,-2.548301,-0.23231691,-0.066815294,0.6915733,0.7225043,9.65240452453981,1.0023724019497398,jump
05/08/2020, 15:24:55,-9.307046,-2.548301,-0.23231691,-0.060706645,0.69768196,0.7029567,9.65240452453981,0.9922668531723333,jump
05/08/2020, 15:24:55,-9.283096,-2.5842261,-0.366438,-0.060706645,0.69768196,0.7029567,9.64304820440929,0.9922668531723333,jump
05/08/2020, 15:24:55,-9.283096,-2.5842261,-0.366438,-0.06925876,0.7062341,0.6711917,9.64304820440929,0.9767608017009513,jump
05/08/2020, 15:24:55,-9.412427,-2.548301,-0.46942386,-0.06925876,0.7062341,0.6711917,9.762580484420827,0.9767608017009513,jump
05/08/2020, 15:24:55,-9.412427,-2.548301,-0.46942386,-0.07781087,0.6989037,0.64187014,9.762580484420827,0.95211247388387,jump
05/08/2020, 15:24:55,-9.419612,-2.3710694,-0.57719976,-0.07781087,0.6989037,0.64187014,9.730581623696619,0.95211247388387,jump
05/08/2020, 15:24:55,-9.419612,-2.3710694,-0.57719976,-0.058263183,0.6866864,0.60643995,9.730581623696619,0.9179881351928683,jump
05/08/2020, 15:24:55,-9.419612,-2.208208,-0.62510014,-0.058263183,0.6866864,0.60643995,9.695154565567925,0.9179881351928683,jump
05/08/2020, 15:24:55,-9.419612,-2.208208,-0.62510014,-0.050932802,0.67935604,0.5624577,9.695154565567925,0.883446331176393,jump
05/08/2020, 15:24:55,-9.419612,-2.0309765,-0.49337405,-0.050932802,0.67935604,0.5624577,9.648697972361381,0.883446331176393,jump
05/08/2020, 15:24:55,-9.419612,-2.0309765,-0.49337405,0.0052667744,0.65736485,0.5148102,9.648697972361381,0.8349765418148407,jump
05/08/2020, 15:24:55,-9.316627,-1.9950514,-0.5388794,0.0052667744,0.65736485,0.5148102,9.543068231744517,0.8349765418148407,jump
05/08/2020, 15:24:56,-9.374106,-2.8572583,-0.8933423,-0.12057141,-0.058568947,-0.054515976,9.84052115149733,0.14470583495789144,jump
05/08/2020, 15:24:56,-9.4435625,-2.919529,-0.8909473,-0.12057141,-0.058568947,-0.054515976,9.924631441547096,0.14470583495789144,jump
05/08/2020, 15:24:56,-9.4435625,-2.919529,-0.8909473,-0.08391952,-0.040242996,-0.017864078,9.924631441547096,0.09476871570121921,jump
05/08/2020, 15:24:56,-9.429193,-2.907554,-0.8095166,-0.08391952,-0.040242996,-0.017864078,9.900447409077097,0.09476871570121921,jump
05/08/2020, 15:24:56,-9.429193,-2.907554,-0.8095166,-0.046045884,-0.019473584,0.020009553,9.900447409077097,0.053850034171723155,jump
05/08/2020, 15:24:56,-9.402847,-2.8692336,-0.79035646,-0.046045884,-0.019473584,0.020009553,9.862591038260332,0.053850034171723155,jump
05/08/2020, 15:24:56,-9.402847,-2.8692336,-0.79035646,-0.019167827,0.0049610157,0.057883184,9.862591038260332,0.061175814844225365,jump
05/08/2020, 15:24:56,-9.457932,-2.7806177,-0.7783814,-0.019167827,0.0049610157,0.057883184,9.888892715335965,0.061175814844225365,jump
05/08/2020, 15:24:56,-9.457932,-2.7806177,-0.7783814,0.004045044,0.024508696,0.09331335,9.888892715335965,0.09656303686963798,jump
05/08/2020, 15:24:56,-9.513018,-2.7662477,-0.8286768,0.004045044,0.024508696,0.09331335,9.941646582715974,0.09656303686963798,jump
05/08/2020, 15:24:56,-9.513018,-2.7662477,-0.8286768,0.035810024,0.037947726,0.12996525,9.941646582715974,0.14004768028562295,jump
05/08/2020, 15:24:56,-9.474698,-2.7830129,-0.8214917,0.035810024,0.037947726,0.12996525,9.90908233472253,0.14004768028562295,jump
05/08/2020, 15:24:56,-9.474698,-2.7830129,-0.8214917,0.08223577,0.050165024,0.16539542,9.90908233472253,0.19140244881611487,jump
05/08/2020, 15:24:56,-9.414823,-2.7686427,-0.8813672,0.08223577,0.050165024,0.16539542,9.852972878112343,0.19140244881611487,jump
05/08/2020, 15:24:56,-9.414823,-2.7686427,-0.8813672,0.12377459,0.062382326,0.19960387,9.852972878112343,0.24300907045386597,jump
05/08/2020, 15:24:56,-9.441168,-2.7734327,-0.9388477,0.12377459,0.062382326,0.19960387,9.88478700733828,0.24300907045386597,jump
05/08/2020, 15:24:56,-9.441168,-2.7734327,-0.9388477,0.14698745,0.06604751,0.22892539,9.88478700733828,0.27995431828655165,jump
05/08/2020, 15:24:56,-9.503438,-2.694397,-1.0370435,0.14698745,0.06604751,0.22892539,9.932299225771372,0.27995431828655165,jump
05/08/2020, 15:24:56,-9.503438,-2.694397,-1.0370435,0.16409168,0.06360406,0.25458172,9.932299225771372,0.3094889437558382,jump
05/08/2020, 15:24:56,-9.486672,-2.703977,-1.1064991,0.16409168,0.06360406,0.25458172,9.926368200785307,0.3094889437558382,jump
05/08/2020, 15:24:57,-7.90117,3.6931202,-2.1339624,0.032144837,0.9713495,0.2374775,8.978942947434136,1.0004742174309098,jump
05/08/2020, 15:24:57,-7.9155397,3.3745828,-2.1650977,0.032144837,0.9713495,0.2374775,8.873061836988025,1.0004742174309098,jump
05/08/2020, 15:24:57,-7.9155397,3.3745828,-2.1650977,0.22029126,0.91637164,0.19960387,8.873061836988025,0.9633830661173927,jump
05/08/2020, 15:24:57,-7.941885,3.1135256,-2.1818628,0.22029126,0.91637164,0.19960387,8.805004515756274,0.9633830661173927,jump
05/08/2020, 15:24:57,-7.941885,3.1135256,-2.1818628,0.43165055,0.8430678,0.15562159,8.805004515756274,0.9598456295708686,jump
05/08/2020, 15:24:57,-7.862849,2.8548634,-2.308799,0.43165055,0.8430678,0.15562159,8.67785665454214,0.9598456295708686,jump
05/08/2020, 15:24:57,-7.862849,2.8548634,-2.308799,0.63934463,0.769764,0.12263487,8.67785665454214,1.008135653787606,jump
05/08/2020, 15:24:57,-7.671248,2.8572583,-2.454895,0.63934463,0.769764,0.12263487,8.546255315274724,1.008135653787606,jump
05/08/2020, 15:24:57,-7.671248,2.8572583,-2.454895,0.832378,0.6854647,0.10919584,8.546255315274724,1.083807476124093,jump
05/08/2020, 15:24:57,-7.429351,3.1135256,-2.193838,0.832378,0.6854647,0.10919584,8.34878557561998,1.083807476124093,jump
05/08/2020, 15:24:57,-7.429351,3.1135256,-2.193838,1.0131941,0.6011653,0.104308926,8.34878557561998,1.1827266445098907,jump
05/08/2020, 15:24:57,-7.216194,3.4823585,-2.0237916,1.0131941,0.6011653,0.104308926,8.26414004657149,1.1827266445098907,jump
05/08/2020, 15:24:57,-7.216194,3.4823585,-2.0237916,1.1634668,0.5486309,0.07132221,8.26414004657149,1.2883080902418955,jump
05/08/2020, 15:24:57,-7.0078273,3.8320315,-2.2201831,1.1634668,0.5486309,0.07132221,8.289953057210257,1.2883080902418955,jump
05/08/2020, 15:24:57,-7.0078273,3.8320315,-2.2201831,1.2404358,0.54252225,-0.010533698,8.289953057210257,1.353928514438219,jump
05/08/2020, 15:24:57,-7.0198026,3.9493873,-2.42376,1.2404358,0.54252225,-0.010533698,8.411296005959214,1.353928514438219,jump
05/08/2020, 15:24:57,-7.0198026,3.9493873,-2.42376,1.2098926,0.57917416,-0.11193729,8.411296005959214,1.346035974098688,jump
05/08/2020, 15:24:57,-7.3838453,3.791316,-2.5147705,1.2098926,0.57917416,-0.11193729,8.672907229491685,1.346035974098688,jump
05/08/2020, 15:24:57,-7.3838453,3.791316,-2.5147705,1.090163,0.6194912,-0.19134974,8.672907229491685,1.2684003492841607,jump
05/08/2020, 15:24:57,-7.94428,3.527864,-2.5985963,1.090163,0.6194912,-0.19134974,9.072492172990499,1.2684003492841607,jump
05/08/2020, 15:24:58,-8.782537,-4.655918,1.8058448,3.0925786,0.45455766,-0.5932989,10.103049696886991,3.1816142076416605,jump
05/08/2020, 15:24:58,-8.119117,-4.361331,1.9830762,3.0925786,0.45455766,-0.5932989,9.427293173632114,3.1816142076416605,jump
05/08/2020, 15:24:58,-8.119117,-4.361331,1.9830762,3.4835322,0.6304868,-0.66782445,9.427293173632114,3.602568472772597,jump
05/08/2020, 15:24:58,-7.788604,-3.911067,1.5974782,3.4835322,0.6304868,-0.66782445,8.860628108423747,3.602568472772597,jump
05/08/2020, 15:24:58,-7.788604,-3.911067,1.5974782,3.8121777,0.78320307,-0.73501956,8.860628108423747,3.960600875978777,jump
05/08/2020, 15:24:58,-7.8341093,-3.5182838,1.1448194,3.8121777,0.78320307,-0.73501956,8.663844483871978,3.960600875978777,jump
05/08/2020, 15:24:58,-7.8341093,-3.5182838,1.1448194,4.0259805,0.86872417,-0.79854953,8.663844483871978,4.195340486883546,jump
05/08/2020, 15:24:58,-8.140672,-3.0656252,0.6730005,4.0259805,0.86872417,-0.79854953,8.72476496639836,4.195340486883546,jump
05/08/2020, 15:24:58,-8.140672,-3.0656252,0.6730005,4.0895104,0.9090412,-0.85841435,8.72476496639836,4.276368412058226,jump
05/08/2020, 15:24:58,-8.878338,-2.7303224,0.23231691,4.0895104,0.9090412,-0.85841435,9.29158299217045,4.276368412058226,jump
05/08/2020, 15:24:58,-8.878338,-2.7303224,0.23231691,3.9991024,0.93714106,-0.90850526,9.29158299217045,4.206713065473008,jump
05/08/2020, 15:24:58,-9.872271,-2.3758595,-0.4239185,3.9991024,0.93714106,-0.90850526,10.16297897897877,4.206713065473008,jump
05/08/2020, 15:24:58,-9.872271,-2.3758595,-0.4239185,3.7889647,0.92125857,-0.9182791,10.16297897897877,4.006021435465996,jump
05/08/2020, 15:24:58,-10.753638,-1.9255958,-1.2933106,3.7889647,0.92125857,-0.9182791,11.000968477284438,4.006021435465996,jump
05/08/2020, 15:24:58,-10.753638,-1.9255958,-1.2933106,3.4590976,0.7917552,-0.88773584,11.000968477284438,3.657910277070289,jump
05/08/2020, 15:24:58,-11.316468,-1.4897022,-2.0166066,3.4590976,0.7917552,-0.88773584,11.590874348992617,3.657910277070289,jump
05/08/2020, 15:24:58,-11.316468,-1.4897022,-2.0166066,3.0339355,0.5364136,-0.8290928,11.590874348992617,3.1905954515733317,jump
05/08/2020, 15:24:58,-11.397899,-0.9867481,-2.3064039,3.0339355,0.5364136,-0.8290928,11.670701128500655,3.1905954515733317,jump
05/08/2020, 15:24:58,-11.397899,-0.9867481,-2.3064039,2.547687,0.22975935,-0.77289325,11.670701128500655,2.6722392592119575,jump
05/08/2020, 15:24:58,-10.8997345,-0.48379397,-2.064507,2.547687,0.22975935,-0.77289325,11.104073932582287,2.6722392592119575,jump
05/08/2020, 15:24:59,5.1756372,4.095484,-0.67539555,0.39988557,-0.9650926,-2.6213708,6.634483207596627,2.82186056028999,jump
05/08/2020, 15:24:59,4.423601,4.8427296,-1.5399976,0.39988557,-0.9650926,-2.6213708,6.737348837004262,2.82186056028999,jump
05/08/2020, 15:24:59,4.423601,4.8427296,-1.5399976,0.15676129,-0.38843605,-2.8315082,6.737348837004262,2.8623233786639783,jump
05/08/2020, 15:24:59,3.6332448,4.902605,-2.4668703,0.15676129,-0.38843605,-2.8315082,6.581903439968,2.8623233786639783,jump
05/08/2020, 15:24:59,3.6332448,4.902605,-2.4668703,-0.07903259,-0.38843605,-2.8400605,6.581903439968,2.8675899641337095,jump
05/08/2020, 15:24:59,2.43813,4.6894484,-2.5530908,-0.07903259,-0.38843605,-2.8400605,5.869725376542172,2.8675899641337095,jump
05/08/2020, 15:24:59,2.43813,4.6894484,-2.5530908,-0.25129655,-0.7292987,-2.5847187,5.869725376542172,2.69736859654579,jump
05/08/2020, 15:24:59,1.7890797,4.4355764,-2.2321582,-0.25129655,-0.7292987,-2.5847187,5.278036998333198,2.69736859654579,jump
05/08/2020, 15:24:59,1.7890797,4.4355764,-2.2321582,-0.43211257,-1.2045517,-2.231639,5.278036998333198,2.5725237189849803,jump
05/08/2020, 15:24:59,1.9112257,4.4475513,-2.44771,-0.43211257,-1.2045517,-2.231639,5.424461276335616,2.5725237189849803,jump
05/08/2020, 15:24:59,1.9112257,4.4475513,-2.44771,-0.6569109,-1.7176783,-1.9714104,5.424461276335616,2.695998820024416,jump
05/08/2020, 15:24:59,2.3638844,4.6607084,-2.5962012,-0.6569109,-1.7176783,-1.9714104,5.83527319909887,2.695998820024416,jump
05/08/2020, 15:24:59,2.3638844,4.6607084,-2.5962012,-0.8523877,-2.1697185,-1.860233,5.83527319909887,2.9824000147283236,jump
05/08/2020, 15:24:59,3.0991554,4.8355446,-2.9602442,-0.8523877,-2.1697185,-1.860233,6.461447314461872,2.9824000147283236,jump
05/08/2020, 15:24:59,3.0991554,4.8355446,-2.9602442,-1.0527514,-2.4665987,-1.8614547,6.461447314461872,3.2645686759428125,jump
05/08/2020, 15:24:59,3.7290456,4.8331494,-3.4584084,-1.0527514,-2.4665987,-1.8614547,7.016103128146743,3.2645686759428125,jump
05/08/2020, 15:24:59,3.7290456,4.8331494,-3.4584084,-1.3019843,-2.5826633,-1.9127674,7.016103128146743,3.467562835587104,jump
05/08/2020, 15:24:59,3.784131,4.6990285,-4.016448,-1.3019843,-2.5826633,-1.9127674,7.247921859240828,3.467562835587104,jump
05/08/2020, 15:24:59,3.784131,4.6990285,-4.016448,-1.5609912,-2.6266456,-1.937202,7.247921859240828,3.617832479507005,jump
05/08/2020, 15:24:59,4.366121,4.996011,-4.287085,-1.5609912,-2.6266456,-1.937202,7.89950840057831,3.617832479507005,jump
05/08/2020, 15:25:00,-7.9610453,-2.4213648,0.17723145,-0.14989294,-0.1501987,-0.36727884,8.323019891740469,0.4241713003346537,jump
05/08/2020, 15:25:00,-7.965835,-2.4884255,0.29937744,-0.14989294,-0.1501987,-0.36727884,8.350833314097045,0.4241713003346537,jump
05/08/2020, 15:25:00,-7.965835,-2.4884255,0.29937744,-0.17066236,0.014734855,-0.2512145,8.350833314097045,0.3040583556931682,jump
05/08/2020, 15:25:00,-8.064031,-2.668052,0.364043,-0.17066236,0.014734855,-0.2512145,8.501742105898037,0.3040583556931682,jump
05/08/2020, 15:25:00,-8.064031,-2.668052,0.364043,-0.17310582,0.16012074,-0.1363719,8.501742105898037,0.2723996526180043,jump
05/08/2020, 15:25:00,-8.291558,-2.8285182,0.36883304,-0.17310582,0.16012074,-0.1363719,8.768494238960171,0.2723996526180043,jump
05/08/2020, 15:25:00,-8.291558,-2.8285182,0.36883304,-0.13645391,0.24075492,-0.02397273,8.768494238960171,0.27777201432286064,jump
05/08/2020, 15:25:00,-8.454419,-3.0105398,0.4622388,-0.13645391,0.24075492,-0.02397273,8.986335033436434,0.27777201432286064,jump
05/08/2020, 15:25:00,-8.454419,-3.0105398,0.4622388,-0.07048049,0.28595892,0.095756814,8.986335033436434,0.3096923767845681,jump
05/08/2020, 15:25:00,-8.552615,-3.180586,0.62031007,-0.07048049,0.28595892,0.095756814,9.145935637784135,0.3096923767845681,jump
05/08/2020, 15:25:00,-8.552615,-3.180586,0.62031007,0.024814455,0.3336064,0.22037327,9.145935637784135,0.40059126482720414,jump
05/08/2020, 15:25:00,-8.533455,-3.293152,0.8310718,0.024814455,0.3336064,0.22037327,9.184518685573273,0.40059126482720414,jump
05/08/2020, 15:25:00,-8.533455,-3.293152,0.8310718,0.13477015,0.3959146,0.34132457,9.184518685573273,0.5398275993166401,jump
05/08/2020, 15:25:00,-8.449629,-3.4440382,1.0729688,0.13477015,0.3959146,0.34132457,9.187430995340197,0.5398275993166401,jump
05/08/2020, 15:25:00,-8.449629,-3.4440382,1.0729688,0.24106066,0.49487475,0.4402847,9.187430995340197,0.704884296638828,jump
05/08/2020, 15:25:00,-8.523875,-3.6763551,1.2693604,0.24106066,0.49487475,0.4402847,9.369274887927173,0.704884296638828,jump
05/08/2020, 15:25:00,-8.523875,-3.6763551,1.2693604,0.30825582,0.6329303,0.5135885,9.369274887927173,0.8714330291955331,jump
05/08/2020, 15:25:00,-8.753797,-3.9781277,1.2765454,0.30825582,0.6329303,0.5135885,9.699691893660903,0.8714330291955331,jump
05/08/2020, 15:25:00,-8.753797,-3.9781277,1.2765454,0.3204731,0.76487714,0.55757076,9.699691893660903,0.9993123627312264,jump
05/08/2020, 15:25:00,-9.14179,-4.24158,1.1975098,0.3204731,0.76487714,0.55757076,10.148761606737342,0.9993123627312264,jump
05/08/2020, 15:25:01,-6.9886675,-3.06323,0.8861573,0.038253486,0.20288129,0.38530684,7.681804881517165,0.4371332804529833,jump
05/08/2020, 15:25:01,-6.6174393,-3.0536501,1.0825489,0.038253486,0.20288129,0.38530684,7.367984371712061,0.4371332804529833,jump
05/08/2020, 15:25:01,-6.6174393,-3.0536501,1.0825489,0.0956748,0.18089014,0.4121849,7.367984371712061,0.4601861554505429,jump
05/08/2020, 15:25:01,-6.1240654,-3.0776002,1.22625,0.0956748,0.18089014,0.4121849,6.962721410917662,0.4601861554505429,jump
05/08/2020, 15:25:01,-6.1240654,-3.0776002,1.22625,0.16531341,0.14423825,0.41829357,6.962721410917662,0.47233748746089405,jump
05/08/2020, 15:25:01,-5.5061502,-3.04886,1.343606,0.16531341,0.14423825,0.41829357,6.435721819921374,0.47233748746089405,jump
05/08/2020, 15:25:01,-5.5061502,-3.04886,1.343606,0.24472585,0.083151735,0.3999676,6.435721819921374,0.47621323379232,jump
05/08/2020, 15:25:01,-4.960086,-3.0009596,1.3986914,0.24472585,0.083151735,0.3999676,5.963601951203723,0.47621323379232,jump
05/08/2020, 15:25:01,-4.960086,-3.0009596,1.3986914,0.32658178,0.0135131255,0.3559853,5.963601951203723,0.48328439309133236,jump
05/08/2020, 15:25:01,-4.24637,-2.9698243,1.4130616,0.32658178,0.0135131255,0.3559853,5.37105728906402,0.48328439309133236,jump
05/08/2020, 15:25:01,-4.24637,-2.9698243,1.4130616,0.41088113,-0.047573376,0.28756845,5.37105728906402,0.5037679466859204,jump
05/08/2020, 15:25:01,-3.5254688,-2.816543,1.3819263,0.41088113,-0.047573376,0.28756845,4.7192759810778835,0.5037679466859204,jump
05/08/2020, 15:25:01,-3.5254688,-2.816543,1.3819263,0.4988457,-0.07933836,0.20326905,4.7192759810778835,0.5444813222039205,jump
05/08/2020, 15:25:01,-2.8548634,-2.6201515,1.336421,0.4988457,-0.07933836,0.20326905,4.09895842535056,0.5444813222039205,jump
05/08/2020, 15:25:01,-2.8548634,-2.6201515,1.336421,0.57581466,-0.06956452,0.10553065,4.09895842535056,0.5895239336021054,jump
05/08/2020, 15:25:01,-2.311194,-2.3974147,1.2549903,0.57581466,-0.06956452,0.10553065,3.5586816888322343,0.5895239336021054,jump
05/08/2020, 15:25:01,-2.311194,-2.3974147,1.2549903,0.6344577,-0.021917045,-0.005646778,3.5586816888322343,0.6348612647279223,jump
05/08/2020, 15:25:01,-1.8010547,-2.1579127,1.2430152,0.6344577,-0.021917045,-0.005646778,3.0733486881353764,0.6348612647279223,jump
05/08/2020, 15:25:01,-1.8010547,-2.1579127,1.2430152,0.67966175,0.047721565,-0.12415459,3.0733486881353764,0.6925545505382312,jump
05/08/2020, 15:25:01,-1.5399976,-1.8968556,1.1735597,0.67966175,0.047721565,-0.12415459,2.710515812127639,0.6925545505382312,jump
05/08/2020, 15:25:02,-5.7648125,-6.236631,1.9447559,-6.688592,-0.21128519,-0.7056981,8.712674879434028,6.7290351143081955,jump
05/08/2020, 15:25:02,-6.4833183,-8.739427,2.2680836,-6.688592,-0.21128519,-0.7056981,11.115538545931742,6.7290351143081955,jump
05/08/2020, 15:25:02,-6.4833183,-8.739427,2.2680836,-6.071618,-0.26992825,-0.5077778,11.115538545931742,6.0987905090997865,jump
05/08/2020, 15:25:02,-7.32876,-11.299703,2.299219,-6.071618,-0.26992825,-0.5077778,13.663104063956174,6.0987905090997865,jump
05/08/2020, 15:25:02,-7.32876,-11.299703,2.299219,-5.1235557,-0.4470791,-0.14248054,13.663104063956174,5.144997864130269,jump
05/08/2020, 15:25:02,-7.9921803,-13.153448,2.8836036,-5.1235557,-0.4470791,-0.14248054,15.658969101399308,5.144997864130269,jump
05/08/2020, 15:25:02,-7.9921803,-13.153448,2.8836036,-3.8749478,-0.74762464,0.30345094,15.658969101399308,3.9580608152121326,jump
05/08/2020, 15:25:02,-8.296348,-14.283897,4.064348,-3.8749478,-0.74762464,0.30345094,17.01111504844599,3.9580608152121326,jump
05/08/2020, 15:25:02,-8.296348,-14.283897,4.064348,-2.5151622,-0.9895272,0.71517396,17.01111504844599,2.795832427662256,jump
05/08/2020, 15:25:02,-8.181387,-14.315032,4.9696655,-2.5151622,-0.9895272,0.71517396,17.220708729712626,2.795832427662256,jump
05/08/2020, 15:25:02,-8.181387,-14.315032,4.9696655,-1.1675941,-1.0054097,1.0071673,17.220708729712626,1.840790774101071,jump
05/08/2020, 15:25:02,-7.9778104,-13.186978,5.101392,-1.1675941,-1.0054097,1.0071673,16.234717566581615,1.840790774101071,jump
05/08/2020, 15:25:02,-7.9778104,-13.186978,5.101392,0.09811826,-0.81726325,1.1708792,16.234717566581615,1.4312597987570084,jump
05/08/2020, 15:25:02,-8.236472,-11.474539,4.6199927,0.09811826,-0.81726325,1.1708792,14.86098404353428,1.4312597987570084,jump
05/08/2020, 15:25:02,-8.236472,-11.474539,4.6199927,1.15858,-0.5790259,1.2454047,14.86098404353428,1.7968337231161704,jump
05/08/2020, 15:25:02,-8.703502,-9.927357,3.9326222,1.15858,-0.5790259,1.2454047,13.775662257549003,1.7968337231161704,jump
05/08/2020, 15:25:02,-8.703502,-9.927357,3.9326222,1.9123874,-0.3908795,1.2722828,13.775662257549003,2.329960487161223,jump
05/08/2020, 15:25:02,-9.237591,-8.557405,3.278782,1.9123874,-0.3908795,1.2722828,13.012020699968858,2.329960487161223,jump
05/08/2020, 15:25:02,-9.237591,-8.557405,3.278782,2.4426184,-0.2797021,1.2368526,13.012020699968858,2.7521668249775195,jump
05/08/2020, 15:25:02,-9.7812605,-7.247329,2.8812087,2.4426184,-0.2797021,1.2368526,12.509924106692054,2.7521668249775195,jump
05/08/2020, 15:25:03,-8.916658,-3.6284547,1.0418335,0.065131545,-0.06956452,0.059104916,9.682866183870422,0.1121371118280902,jump
05/08/2020, 15:25:03,-9.201666,-3.535049,0.9196875,0.065131545,-0.06956452,0.059104916,9.90015410042595,0.1121371118280902,jump
05/08/2020, 15:25:03,-9.201666,-3.535049,0.9196875,0.011375424,-0.078116626,0.035892043,9.90015410042595,0.08671704698589038,jump
05/08/2020, 15:25:03,-9.429193,-3.547024,0.78556645,0.011375424,-0.078116626,0.035892043,10.104858534315778,0.08671704698589038,jump
05/08/2020, 15:25:03,-9.429193,-3.547024,0.78556645,-0.044824153,-0.13553794,0.012679173,10.104858534315778,0.1433195679998254,jump
05/08/2020, 15:25:03,-9.455538,-3.551814,0.6993457,-0.044824153,-0.13553794,0.012679173,10.124804328229066,0.1433195679998254,jump
05/08/2020, 15:25:03,-9.455538,-3.551814,0.6993457,-0.10591066,-0.20884173,-0.005646778,10.124804328229066,0.23423027206191485,jump
05/08/2020, 15:25:03,-9.359736,-3.63564,0.62989014,-0.10591066,-0.20884173,-0.005646778,10.060780555862962,0.23423027206191485,jump
05/08/2020, 15:25:03,-9.359736,-3.63564,0.62989014,-0.1645537,-0.26137614,-0.02397273,10.060780555862962,0.3097904136945821,jump
05/08/2020, 15:25:03,-9.14658,-3.6811452,0.6179151,-0.1645537,-0.26137614,-0.02397273,9.878895179450453,0.3097904136945821,jump
05/08/2020, 15:25:03,-9.14658,-3.6811452,0.6179151,-0.21953155,-0.27848035,-0.04596387,9.878895179450453,0.35757248911292544,jump
05/08/2020, 15:25:03,-8.938213,-3.7098854,0.70174074,-0.21953155,-0.27848035,-0.04596387,9.702955596385712,0.35757248911292544,jump
05/08/2020, 15:25:03,-8.938213,-3.7098854,0.70174074,-0.27939633,-0.25771096,-0.07650712,9.702955596385712,0.3877248856264754,jump
05/08/2020, 15:25:03,-8.772957,-3.6164796,0.74724615,-0.27939633,-0.25771096,-0.07650712,9.518512153404846,0.3877248856264754,jump
05/08/2020, 15:25:03,-8.772957,-3.6164796,0.74724615,-0.34781322,-0.20762001,-0.10949383,9.518512153404846,0.41960577011316286,jump
05/08/2020, 15:25:03,-8.840017,-3.5829494,0.6562354,-0.34781322,-0.20762001,-0.10949383,9.561070938658052,0.41960577011316286,jump
05/08/2020, 15:25:03,-8.840017,-3.5829494,0.6562354,-0.421117,-0.15997253,-0.144924,9.561070938658052,0.4732163474049544,jump
05/08/2020, 15:25:03,-8.978929,-3.5925295,0.63707525,-0.421117,-0.15997253,-0.144924,9.691918877249591,0.4732163474049544,jump
05/08/2020, 15:25:03,-8.978929,-3.5925295,0.63707525,-0.48464698,-0.14286831,-0.17913245,9.691918877249591,0.536080664494634,jump
05/08/2020, 15:25:03,-9.11784,-3.5901344,0.59156984,-0.48464698,-0.14286831,-0.17913245,9.817027178277389,0.536080664494634,jump
05/08/2020, 15:25:04,6.974297,6.1240654,-4.4667115,-2.1840732,-0.78549826,-0.44058266,10.300315923385178,2.3624767484833677,jump
05/08/2020, 15:25:04,4.902605,4.018843,-5.2594633,-2.1840732,-0.78549826,-0.44058266,8.237025622846216,2.3624767484833677,jump
05/08/2020, 15:25:04,4.902605,4.018843,-5.2594633,-2.5053883,-0.15997253,-0.03252484,8.237025622846216,2.5107009796945308,jump
05/08/2020, 15:25:04,4.521797,3.2141163,-4.4834766,-2.5053883,-0.15997253,-0.03252484,7.1329346221331065,2.5107009796945308,jump
05/08/2020, 15:25:04,4.521797,3.2141163,-4.4834766,-2.3612242,0.23708972,0.5685663,7.1329346221331065,2.4402579376046476,jump
05/08/2020, 15:25:04,3.2692018,1.3962965,-3.9972878,-2.3612242,0.23708972,0.5685663,5.349358222789133,2.4402579376046476,jump
05/08/2020, 15:25:04,3.2692018,1.3962965,-3.9972878,-2.3795502,0.69401675,1.3077129,5.349358222789133,2.8025045156310737,jump
05/08/2020, 15:25:04,2.2513185,-0.098195806,-2.4668703,-2.3795502,0.69401675,1.3077129,3.341186363721339,2.8025045156310737,jump
05/08/2020, 15:25:04,2.2513185,-0.098195806,-2.4668703,-2.4980578,1.1607176,2.008986,3.341186363721339,3.409337630465216,jump
05/08/2020, 15:25:04,1.2334352,-0.91250247,-0.6586304,-2.4980578,1.1607176,2.008986,1.6696757164759148,3.409337630465216,jump
05/08/2020, 15:25:04,1.2334352,-0.91250247,-0.6586304,-2.3367896,1.5370104,2.5502126,1.6696757164759148,3.78504572677519,jump
05/08/2020, 15:25:04,0.4023633,-1.1352394,0.040715333,-2.3367896,1.5370104,2.5502126,1.2051233855734125,3.78504572677519,jump
05/08/2020, 15:25:04,0.4023633,-1.1352394,0.040715333,-1.9067407,1.7557001,2.969266,1.2051233855734125,3.9414062282094804,jump
05/08/2020, 15:25:04,-0.43589357,-1.5447876,-0.24189699,-1.9067407,1.7557001,2.969266,1.6232332616932628,3.9414062282094804,jump
05/08/2020, 15:25:04,-0.43589357,-1.5447876,-0.24189699,-1.4131618,1.7532567,3.3565543,1.6232332616932628,4.041953944780513,jump
05/08/2020, 15:25:04,-1.0681788,-1.5447876,-0.4239185,-1.4131618,1.7532567,3.3565543,1.9253783115517746,4.041953944780513,jump
05/08/2020, 15:25:04,-1.0681788,-1.5447876,-0.4239185,-0.9318002,1.5626668,3.7621686,1.9253783115517746,4.179006096384677,jump
05/08/2020, 15:25:04,-1.5998731,-1.1831397,-0.14130616,-0.9318002,1.5626668,3.7621686,1.9948385311149148,4.179006096384677,jump
05/08/2020, 15:25:04,-1.5998731,-1.1831397,-0.14130616,-0.5212989,1.2804471,4.166561,1.9948385311149148,4.389934964381511,jump
05/08/2020, 15:25:04,-1.9327809,-0.5388794,0.41194338,-0.5212989,1.2804471,4.166561,2.048348165445721,4.389934964381511,jump
05/08/2020, 15:25:05,-8.202942,-3.7937112,0.7209009,-0.18532312,0.28718063,1.1574402,9.066432505761993,1.2068492686387347,jump
05/08/2020, 15:25:05,-8.504715,-4.402046,0.9388477,-0.18532312,0.28718063,1.1574402,9.62235015321689,1.2068492686387347,jump
05/08/2020, 15:25:05,-8.504715,-4.402046,0.9388477,-0.34903494,0.44967073,1.1684357,9.62235015321689,1.2997196318555853,jump
05/08/2020, 15:25:05,-9.093889,-4.905,0.91250247,-0.34903494,0.44967073,1.1684357,10.372584502257848,1.2997196318555853,jump
05/08/2020, 15:25:05,-9.093889,-4.905,0.91250247,-0.5017512,0.54130054,1.1440011,10.372584502257848,1.3614327370354615,jump
05/08/2020, 15:25:05,-9.833951,-5.5301003,0.7544312,-0.5017512,0.54130054,1.1440011,11.30742094598483,1.3614327370354615,jump
05/08/2020, 15:25:05,-9.833951,-5.5301003,0.7544312,-0.62148076,0.511979,1.090245,11.30742094598483,1.355357885265783,jump
05/08/2020, 15:25:05,-10.408755,-5.989944,0.51971924,-0.62148076,0.511979,1.090245,12.02047103631994,1.355357885265783,jump
05/08/2020, 15:25:05,-10.408755,-5.989944,0.51971924,-0.68623245,0.3788104,1.0254933,12.02047103631994,1.2907551009307061,jump
05/08/2020, 15:25:05,-10.744058,-6.2031007,0.31135255,-0.68623245,0.3788104,1.0254933,12.410083536163683,1.2907551009307061,jump
05/08/2020, 15:25:05,-10.744058,-6.2031007,0.31135255,-0.6813455,0.20288129,0.96440685,12.410083536163683,1.1981123101462563,jump
05/08/2020, 15:25:05,-10.633887,-6.198311,0.3281177,-0.6813455,0.20288129,0.96440685,12.31285009895758,1.1981123101462563,jump
05/08/2020, 15:25:05,-10.633887,-6.198311,0.3281177,-0.6080417,0.042834643,0.909429,12.31285009895758,1.0948107832481242,jump
05/08/2020, 15:25:05,-10.126143,-6.006709,0.41194338,-0.6080417,0.042834643,0.909429,11.780875724000973,1.0948107832481242,jump
05/08/2020, 15:25:05,-10.126143,-6.006709,0.41194338,-0.49197733,-0.05001684,0.85322946,11.780875724000973,0.9861764031266599,jump
05/08/2020, 15:25:05,-9.544153,-5.743257,0.54366946,-0.49197733,-0.05001684,0.85322946,11.152194337457697,0.9861764031266599,jump
05/08/2020, 15:25:05,-9.544153,-5.743257,0.54366946,-0.35636532,-0.058568947,0.7945864,11.152194337457697,0.87280819426816,jump
05/08/2020, 15:25:05,-9.034014,-5.4223247,0.6777906,-0.35636532,-0.058568947,0.7945864,10.558144210327933,0.87280819426816,jump
05/08/2020, 15:25:05,-9.034014,-5.4223247,0.6777906,-0.2329706,-0.003591095,0.72739124,10.558144210327933,0.7637972339775005,jump
05/08/2020, 15:25:05,-8.753797,-5.0846267,0.79754156,-0.2329706,-0.003591095,0.72739124,10.154725770691384,0.7637972339775005,jump
05/08/2020, 15:25:06,-7.6664577,-2.6464968,0.852627,-1.2726629,-0.8661325,0.4806018,8.155089875661764,1.6127102601113583,jump
05/08/2020, 15:25:06,-7.6664577,-2.6464968,0.852627,-1.4266008,-0.7977156,0.45128027,8.155089875661764,1.6956396863712844,jump
05/08/2020, 15:25:06,-7.434141,-2.7159522,1.1472144,-1.4266008,-0.7977156,0.45128027,7.997434076369828,1.6956396863712844,jump
05/08/2020, 15:25:06,-7.434141,-2.7159522,1.1472144,-1.5622128,-0.6926468,0.41707182,7.997434076369828,1.7590387727632406,jump
05/08/2020, 15:25:06,-7.391031,-2.792593,1.3651612,-1.5622128,-0.6926468,0.41707182,8.018078126379988,1.7590387727632406,jump
05/08/2020, 15:25:06,-7.391031,-2.792593,1.3651612,-1.6794989,-0.58391285,0.38408512,8.018078126379988,1.8191185189298744,jump
05/08/2020, 15:25:06,-7.5203614,-2.8716285,1.4106666,-1.6794989,-0.58391285,0.38408512,8.172641343364905,1.8191185189298744,jump
05/08/2020, 15:25:06,-7.5203614,-2.8716285,1.4106666,-1.7723504,-0.4959483,0.3633157,8.172641343364905,1.8759501801005192,jump
05/08/2020, 15:25:06,-7.7071733,-3.1087356,1.4920973,-1.7723504,-0.4959483,0.3633157,8.443406423213187,1.8759501801005192,jump
05/08/2020, 15:25:06,-7.7071733,-3.1087356,1.4920973,-1.8236631,-0.438527,0.3633157,8.443406423213187,1.9105107633865346,jump
05/08/2020, 15:25:06,-8.004155,-3.293152,1.4968873,-1.8236631,-0.438527,0.3633157,8.78362238431421,1.9105107633865346,jump
05/08/2020, 15:25:06,-8.004155,-3.293152,1.4968873,-1.860315,-0.4055403,0.3804199,8.78362238431421,1.9416369389246753,jump
05/08/2020, 15:25:06,-8.250843,-3.535049,1.4298267,-1.860315,-0.4055403,0.3804199,9.089410688365051,1.9416369389246753,jump
05/08/2020, 15:25:06,-8.250843,-3.535049,1.4298267,-1.8884147,-0.39454472,0.40607625,9.089410688365051,1.971464859382083,jump
05/08/2020, 15:25:06,-8.420889,-3.6931202,1.583108,-1.8884147,-0.39454472,0.40607625,9.330420021123075,1.971464859382083,jump
05/08/2020, 15:25:06,-8.420889,-3.6931202,1.583108,-1.8908582,-0.39698818,0.4366195,9.330420021123075,1.9808030767427771,jump
05/08/2020, 15:25:06,-8.581355,-3.8224514,1.7004639,-1.8908582,-0.39698818,0.4366195,9.546851159216706,1.9808030767427771,jump
05/08/2020, 15:25:06,-8.581355,-3.8224514,1.7004639,-1.8700888,-0.3982099,0.4769366,9.546851159216706,1.970601895699316,jump
05/08/2020, 15:25:06,-8.648416,-3.887117,1.7818946,-1.8700888,-0.3982099,0.4769366,9.647793421156962,1.970601895699316,jump
05/08/2020, 15:25:06,-8.648416,-3.887117,1.7818946,-1.8261065,-0.39698818,0.5196971,9.647793421156962,1.9396777696494119,jump
05/08/2020, 15:25:07,-7.31439,-3.7122805,0.0023950196,0.040696945,0.023286967,-0.17180206,8.202520105224153,0.17808557370786607,jump
05/08/2020, 15:25:07,-6.967112,-3.6188745,-0.16046631,0.040696945,0.023286967,-0.17180206,7.852557097071147,0.17808557370786607,jump
05/08/2020, 15:25:07,-6.967112,-3.6188745,-0.16046631,0.099339984,0.0012958252,-0.14370227,7.852557097071147,0.1747010407984911,jump
05/08/2020, 15:25:07,-6.5791187,-3.396138,-0.41194338,0.099339984,0.0012958252,-0.14370227,7.415406501674343,0.1747010407984911,jump
05/08/2020, 15:25:07,-6.5791187,-3.396138,-0.41194338,0.14576572,0.011069666,-0.10216345,7.415406501674343,0.17834672255579537,jump
05/08/2020, 15:25:07,-6.219866,-3.1997461,-0.4766089,0.14576572,0.011069666,-0.10216345,7.010867415035852,0.17834672255579537,jump
05/08/2020, 15:25:07,-6.219866,-3.1997461,-0.4766089,0.18241762,0.07093444,-0.033746567,7.010867415035852,0.1986119630323827,jump
05/08/2020, 15:25:07,-5.934859,-2.9817994,-0.5125342,0.18241762,0.07093444,-0.033746567,6.661558955595126,0.1986119630323827,jump
05/08/2020, 15:25:07,-5.934859,-2.9817994,-0.5125342,0.19463493,0.15645555,0.059104916,6.661558955595126,0.2566212867858658,jump
05/08/2020, 15:25:07,-5.6929617,-2.672842,-0.49337405,0.19463493,0.15645555,0.059104916,6.3085113365465295,0.2566212867858658,jump
05/08/2020, 15:25:07,-5.6929617,-2.672842,-0.49337405,0.2105174,0.21754205,0.17639099,6.3085113365465295,0.3503653871313109,jump
05/08/2020, 15:25:07,-5.5875807,-2.3519094,-0.22992188,0.2105174,0.21754205,0.17639099,6.0667454006192,0.3503653871313109,jump
05/08/2020, 15:25:07,-5.5875807,-2.3519094,-0.22992188,0.22395644,0.2578591,0.3266638,6.0667454006192,0.4726066433299088,jump
05/08/2020, 15:25:07,-5.4414845,-1.7435743,-0.086220704,0.22395644,0.2578591,0.3266638,5.71465119227912,0.4726066433299088,jump
05/08/2020, 15:25:07,-5.4414845,-1.7435743,-0.086220704,0.28259948,0.26274604,0.52458405,5.71465119227912,0.6512191456602184,jump
05/08/2020, 15:25:07,-5.2355127,-1.101709,0.028740235,0.28259948,0.26274604,0.52458405,5.350250678434751,0.6512191456602184,jump
05/08/2020, 15:25:07,-5.2355127,-1.101709,0.028740235,0.3803379,0.25419393,0.76282144,5.350250678434751,0.8894762569450541,jump
05/08/2020, 15:25:07,-4.9624805,-0.80712163,0.009580079,0.3803379,0.25419393,0.76282144,5.027698307446006,0.8894762569450541,jump
05/08/2020, 15:25:07,-4.9624805,-0.80712163,0.009580079,0.43165055,0.2896241,1.0120543,5.027698307446006,1.137742619407274,jump
05/08/2020, 15:25:07,-4.761299,-1.0418335,0.31135255,0.43165055,0.2896241,1.0120543,4.883884410081393,1.137742619407274,jump
05/08/2020, 15:25:08,-7.2545147,-5.609136,1.3100758,-5.687995,-0.4959483,-1.815029,9.263190043659641,5.991125246830876,jump
05/08/2020, 15:25:08,-7.606582,-8.349038,2.5147705,-5.687995,-0.4959483,-1.815029,11.571110600702573,5.991125246830876,jump
05/08/2020, 15:25:08,-7.606582,-8.349038,2.5147705,-5.4876313,-0.5264915,-1.6012262,11.571110600702573,5.740663395093889,jump
05/08/2020, 15:25:08,-7.9945755,-10.626702,3.2620168,-5.4876313,-0.5264915,-1.6012262,13.692362572564688,5.740663395093889,jump
05/08/2020, 15:25:08,-7.9945755,-10.626702,3.2620168,-5.067356,-0.52771324,-1.3043458,13.692362572564688,5.259077608378767,jump
05/08/2020, 15:25:08,-8.260423,-11.833792,3.6548,-5.067356,-0.52771324,-1.3043458,14.887268811137364,5.259077608378767,jump
05/08/2020, 15:25:08,-8.260423,-11.833792,3.6548,-4.367305,-0.58269113,-1.0343435,14.887268811137364,4.525786851629039,jump
05/08/2020, 15:25:08,-8.490345,-11.941567,3.9805226,-4.367305,-0.58269113,-1.0343435,15.183265496516418,4.525786851629039,jump
05/08/2020, 15:25:08,-8.490345,-11.941567,3.9805226,-3.5328634,-0.6877599,-0.78633225,15.183265496516418,3.684081392359397,jump
05/08/2020, 15:25:08,-8.657996,-10.995535,4.136199,-3.5328634,-0.6877599,-0.78633225,14.593520056085337,3.684081392359397,jump
05/08/2020, 15:25:08,-8.657996,-10.995535,4.136199,-2.7069738,-0.78672004,-0.51388645,14.593520056085337,2.8654344885946967,jump
05/08/2020, 15:25:08,-8.473579,-9.532178,4.169729,-2.7069738,-0.78672004,-0.51388645,13.418293700505231,2.8654344885946967,jump
05/08/2020, 15:25:08,-8.473579,-9.532178,4.169729,-1.969049,-0.85635865,-0.2512145,13.418293700505231,2.161854003731628,jump
05/08/2020, 15:25:08,-8.008945,-7.9059596,3.9398074,-1.969049,-0.85635865,-0.2512145,11.923484693012787,2.161854003731628,jump
05/08/2020, 15:25:08,-8.008945,-7.9059596,3.9398074,-1.3496318,-0.88690186,-0.050850786,11.923484693012787,1.6157619448466807,jump
05/08/2020, 15:25:08,-7.4844365,-6.6437845,3.9541774,-1.3496318,-0.88690186,-0.050850786,10.760677554859427,1.6157619448466807,jump
05/08/2020, 15:25:08,-7.4844365,-6.6437845,3.9541774,-0.87315714,-0.8465848,0.07743086,10.760677554859427,1.2186487409079205,jump
05/08/2020, 15:25:08,-7.2329593,-5.53489,4.0020776,-0.87315714,-0.8465848,0.07743086,9.948232707799484,1.2186487409079205,jump
05/08/2020, 15:25:08,-7.2329593,-5.53489,4.0020776,-0.53107274,-0.709751,0.15073466,9.948232707799484,0.8991694420078651,jump
05/08/2020, 15:25:08,-7.3742657,-4.87147,3.9565725,-0.53107274,-0.709751,0.15073466,9.683257721550639,0.8991694420078651,jump
05/08/2020, 15:25:09,-9.608819,-4.258345,2.6464968,-0.16088851,-0.42875317,-0.2829795,10.838212542475727,0.5383231198654839,jump
05/08/2020, 15:25:09,-8.739427,-3.6404297,2.3662794,-0.16088851,-0.42875317,-0.2829795,9.75856465905833,0.5383231198654839,jump
05/08/2020, 15:25:09,-8.739427,-3.6404297,2.3662794,-0.18287966,-0.45563123,-0.32696176,9.75856465905833,0.5898718275071031,jump
05/08/2020, 15:25:09,-8.068821,-3.173401,2.0213966,-0.18287966,-0.45563123,-0.32696176,8.902942805212906,0.5898718275071031,jump
05/08/2020, 15:25:09,-8.068821,-3.173401,2.0213966,-0.24640962,-0.42142278,-0.3929352,8.902942805212906,0.6266681124975692,jump
05/08/2020, 15:25:09,-7.589817,-2.8476784,1.6357985,-0.24640962,-0.42142278,-0.3929352,8.269850772062897,0.6266681124975692,jump
05/08/2020, 15:25:09,-7.589817,-2.8476784,1.6357985,-0.32460034,-0.36033627,-0.4747911,8.269850772062897,0.6787003816491146,jump
05/08/2020, 15:25:09,-7.3958206,-2.680027,1.3819263,-0.32460034,-0.36033627,-0.4747911,7.986890988754399,0.6787003816491146,jump
05/08/2020, 15:25:09,-7.3958206,-2.680027,1.3819263,-0.39912587,-0.29802805,-0.5529818,7.986890988754399,0.7442520052944799,jump
05/08/2020, 15:25:09,-7.470066,-2.675237,1.2909156,-0.39912587,-0.29802805,-0.5529818,8.038982702662235,0.7442520052944799,jump
05/08/2020, 15:25:09,-7.470066,-2.675237,1.2909156,-0.47120795,-0.24305017,-0.6055162,8.038982702662235,0.804835497606528,jump
05/08/2020, 15:25:09,-7.7071733,-2.692002,1.1448194,-0.47120795,-0.24305017,-0.6055162,8.243664688633977,0.804835497606528,jump
05/08/2020, 15:25:09,-7.7071733,-2.692002,1.1448194,-0.5518421,-0.21372865,-0.6262856,8.243664688633977,0.8616514963038289,jump
05/08/2020, 15:25:09,-8.047266,-2.703977,1.0442286,-0.5518421,-0.21372865,-0.6262856,8.553385040555185,0.8616514963038289,jump
05/08/2020, 15:25:09,-8.047266,-2.703977,1.0442286,-0.63491976,-0.21983731,-0.61529005,8.553385040555185,0.9110616813898773,jump
05/08/2020, 15:25:09,-8.370594,-2.7758276,1.0322535,-0.63491976,-0.21983731,-0.61529005,8.879054608654355,0.9110616813898773,jump
05/08/2020, 15:25:09,-8.370594,-2.7758276,1.0322535,-0.71799743,-0.2442719,-0.58230335,8.879054608654355,0.9561727150667645,jump
05/08/2020, 15:25:09,-8.626861,-2.8380983,1.0178833,-0.71799743,-0.2442719,-0.58230335,9.138578250285384,0.9561727150667645,jump
05/08/2020, 15:25:09,-8.626861,-2.8380983,1.0178833,-0.81695753,-0.26748478,-0.5322124,9.138578250285384,1.0110478400413996,jump
05/08/2020, 15:25:09,-8.861572,-3.04886,1.1376343,-0.81695753,-0.26748478,-0.5322124,9.440191868450638,1.0110478400413996,jump
05/08/2020, 15:25:10,-8.856783,-2.8452833,1.5591577,0.12255286,-0.48983964,-0.20723224,9.43234929812979,0.5458088298982819,jump
05/08/2020, 15:25:10,-8.796907,-2.7207422,1.4106666,0.12255286,-0.48983964,-0.20723224,9.315470933618807,0.5458088298982819,jump
05/08/2020, 15:25:10,-8.796907,-2.7207422,1.4106666,0.059022896,-0.48495275,-0.17424552,9.315470933618807,0.5186755938043255,jump
05/08/2020, 15:25:10,-8.986114,-2.6512868,1.3747413,0.059022896,-0.48495275,-0.17424552,9.469396617436944,0.5186755938043255,jump
05/08/2020, 15:25:10,-8.986114,-2.6512868,1.3747413,-0.014280906,-0.49717003,-0.144924,9.469396617436944,0.5180588285302683,jump
05/08/2020, 15:25:10,-9.1849,-2.5914114,1.3867164,-0.014280906,-0.49717003,-0.144924,9.643691632300625,0.5180588285302683,jump
05/08/2020, 15:25:10,-9.1849,-2.5914114,1.3867164,-0.09369335,-0.53260016,-0.11926767,9.643691632300625,0.5537744642268465,jump
05/08/2020, 15:25:10,-9.455538,-2.5411158,1.219065,-0.09369335,-0.53260016,-0.11926767,9.866639938519727,0.5537744642268465,jump
05/08/2020, 15:25:10,-9.455538,-2.5411158,1.219065,-0.1889883,-0.5924649,-0.09849826,9.866639938519727,0.6296293914355982,jump
05/08/2020, 15:25:10,-9.551338,-2.4501052,1.096919,-0.1889883,-0.5924649,-0.09849826,9.921406550288632,0.6296293914355982,jump
05/08/2020, 15:25:10,-9.551338,-2.4501052,1.096919,-0.2940571,-0.68287295,-0.08750269,9.921406550288632,0.7486265867182788,jump
05/08/2020, 15:25:10,-9.608819,-2.411785,1.0514137,-0.2940571,-0.68287295,-0.08750269,9.962508707311562,0.7486265867182788,jump
05/08/2020, 15:25:10,-9.608819,-2.411785,1.0514137,-0.40156934,-0.7757245,-0.0838375,9.962508707311562,0.8775164460814059,jump
05/08/2020, 15:25:10,-9.445957,-2.4069948,1.0202783,-0.40156934,-0.7757245,-0.0838375,9.80105601763238,0.8775164460814059,jump
05/08/2020, 15:25:10,-9.445957,-2.4069948,1.0202783,-0.5188554,-0.83803266,-0.08261577,9.80105601763238,0.9891081984943451,jump
05/08/2020, 15:25:10,-9.153765,-2.3543043,0.9316626,-0.5188554,-0.83803266,-0.08261577,9.497481385762674,0.9891081984943451,jump
05/08/2020, 15:25:10,-9.153765,-2.3543043,0.9316626,-0.6288111,-0.8624673,-0.08750269,9.497481385762674,1.0709388268517632,jump
05/08/2020, 15:25:10,-8.844808,-2.430945,0.9436377,-0.6288111,-0.8624673,-0.08750269,9.221202052069472,1.0709388268517632,jump
05/08/2020, 15:25:10,-8.844808,-2.430945,0.9436377,-0.7131105,-0.85513693,-0.100941725,9.221202052069472,1.1180228070361466,jump
05/08/2020, 15:25:10,-8.57896,-2.5004005,0.98195803,-0.7131105,-0.85513693,-0.100941725,8.989705574604276,1.1180228070361466,jump
05/08/2020, 15:25:11,-8.55501,-3.8823268,-0.100590825,0.5489366,0.5828393,-0.20234531,9.39525271679911,0.825818795758917,jump
05/08/2020, 15:25:11,-8.873548,-4.0116577,-0.14130616,0.5489366,0.5828393,-0.20234531,9.739261329579165,0.825818795758917,jump
05/08/2020, 15:25:11,-8.873548,-4.0116577,-0.14130616,0.57337123,0.5180876,-0.15347612,9.739261329579165,0.7878605688774464,jump
05/08/2020, 15:25:11,-8.995694,-4.0859036,-0.18920656,0.57337123,0.5180876,-0.15347612,9.881949258210229,0.7878605688774464,jump
05/08/2020, 15:25:11,-8.995694,-4.0859036,-0.18920656,0.61491007,0.42279267,-0.09849826,9.881949258210229,0.7527084040783681,jump
05/08/2020, 15:25:11,-8.875943,-4.1888895,-0.10777588,0.61491007,0.42279267,-0.09849826,9.815333836241882,0.7527084040783681,jump
05/08/2020, 15:25:11,-8.875943,-4.1888895,-0.10777588,0.665001,0.34826714,-0.04229868,9.815333836241882,0.7518679900932536,jump
05/08/2020, 15:25:11,-8.547825,-4.287085,-0.050295413,0.665001,0.34826714,-0.04229868,9.562789223821607,0.7518679900932536,jump
05/08/2020, 15:25:11,-8.547825,-4.287085,-0.050295413,0.71264845,0.32383254,0.0090139825,9.562789223821607,0.7828260228987698,jump
05/08/2020, 15:25:11,-8.267608,-4.2224197,0.009580079,0.71264845,0.32383254,0.0090139825,9.283439940338747,0.7828260228987698,jump
05/08/2020, 15:25:11,-8.267608,-4.2224197,0.009580079,0.7602959,0.3421585,0.049331076,9.283439940338747,0.8351981137181805,jump
05/08/2020, 15:25:11,-8.131092,-4.2152348,0.083825685,0.7602959,0.3421585,0.049331076,9.159142376520865,0.8351981137181805,jump
05/08/2020, 15:25:11,-8.131092,-4.2152348,0.083825685,0.80183476,0.38858423,0.07865259,9.159142376520865,0.894495900876075,jump
05/08/2020, 15:25:11,-8.214917,-4.1170387,-0.047900394,0.80183476,0.38858423,0.07865259,9.188969836059224,0.894495900876075,jump
05/08/2020, 15:25:11,-8.214917,-4.1170387,-0.047900394,0.8116086,0.43501,0.099422,9.188969836059224,0.9261894850185858,jump
05/08/2020, 15:25:11,-8.519085,-4.0020776,-0.11496094,0.8116086,0.43501,0.099422,9.413004250580984,0.9261894850185858,jump
05/08/2020, 15:25:11,-8.519085,-4.0020776,-0.11496094,0.7883957,0.4533359,0.110417575,9.413004250580984,0.9161185912749197,jump
05/08/2020, 15:25:11,-8.931028,-3.8583767,-0.30177248,0.7883957,0.4533359,0.110417575,9.733519681047873,0.9161185912749197,jump
05/08/2020, 15:25:11,-8.931028,-3.8583767,-0.30177248,0.7395265,0.4203492,0.111639306,9.733519681047873,0.8579372079279172,jump
05/08/2020, 15:25:11,-9.304651,-3.7937112,-0.4526587,0.7395265,0.4203492,0.111639306,10.058512789980272,0.8579372079279172,jump
05/08/2020, 15:25:12,-8.698711,-4.239185,0.44786867,0.035810024,0.006182745,0.09331335,9.687045707282847,0.10013973062296126,jump
05/08/2020, 15:25:12,-8.737032,-4.25595,0.42152345,0.035810024,0.006182745,0.09331335,9.727616319740775,0.10013973062296126,jump
05/08/2020, 15:25:12,-8.737032,-4.25595,0.42152345,0.006488504,-0.03535608,0.08598297,9.727616319740775,0.09319455047853759,jump
05/08/2020, 15:25:12,-8.681946,-4.3062453,0.49337405,0.006488504,-0.03535608,0.08598297,9.703780173564226,0.09319455047853759,jump
05/08/2020, 15:25:12,-8.681946,-4.3062453,0.49337405,-0.028941667,-0.06712106,0.07987432,9.703780173564226,0.10827171319917274,jump
05/08/2020, 15:25:12,-8.629255,-4.4643164,0.5843848,-0.028941667,-0.06712106,0.07987432,9.733225219353015,0.10827171319917274,jump
05/08/2020, 15:25:12,-8.629255,-4.4643164,0.5843848,-0.05704146,-0.07445144,0.06643529,9.733225219353015,0.11493647320687488,jump
05/08/2020, 15:25:12,-8.646021,-4.622388,0.6945557,-0.05704146,-0.07445144,0.06643529,9.828659858146574,0.11493647320687488,jump
05/08/2020, 15:25:12,-8.646021,-4.622388,0.6945557,-0.06437183,-0.07933836,0.051774535,9.828659858146574,0.11453781076510719,jump
05/08/2020, 15:25:12,-8.677156,-4.749324,0.6993457,-0.06437183,-0.07933836,0.051774535,9.916562178112224,0.11453781076510719,jump
05/08/2020, 15:25:12,-8.677156,-4.749324,0.6993457,-0.058263183,-0.08666874,0.037113775,9.916562178112224,0.11083095563754589,jump
05/08/2020, 15:25:12,-8.696317,-4.84752,0.6706055,-0.058263183,-0.08666874,0.037113775,9.978681532306876,0.11083095563754589,jump
05/08/2020, 15:25:12,-8.696317,-4.84752,0.6706055,-0.03627205,-0.10010777,0.021231283,9.978681532306876,0.10857252803069313,jump
05/08/2020, 15:25:12,-8.758587,-4.7948294,0.68737066,-0.03627205,-0.10010777,0.021231283,10.008781708673709,0.10857252803069313,jump
05/08/2020, 15:25:12,-8.758587,-4.7948294,0.68737066,-0.002063606,-0.11232507,0.0016836026,10.008781708673709,0.1123566413333159,jump
05/08/2020, 15:25:12,-8.816068,-4.792434,0.69695073,-0.002063606,-0.11232507,0.0016836026,10.058638856684226,0.1123566413333159,jump
05/08/2020, 15:25:12,-8.816068,-4.792434,0.69695073,0.030923106,-0.12332064,-0.020307539,10.058638856684226,0.1287502025187852,jump
05/08/2020, 15:25:12,-8.796907,-4.7780643,0.68976563,0.030923106,-0.12332064,-0.020307539,10.034503219203177,0.1287502025187852,jump
05/08/2020, 15:25:12,-8.796907,-4.7780643,0.68976563,0.057801165,-0.13309447,-0.043520406,10.034503219203177,0.15148973416174277,jump
05/08/2020, 15:25:12,-8.820857,-4.806804,0.6993457,0.057801165,-0.13309447,-0.043520406,10.069854512716345,0.15148973416174277,jump
05/08/2020, 15:25:13,-8.940608,0.8382569,0.2682422,-3.7258966,0.4679967,-2.2133129,8.98382437248866,4.358908141370495,jump
05/08/2020, 15:25:13,-8.765772,-1.0250684,1.2837305,-3.7258966,0.4679967,-2.2133129,8.918379093072181,4.358908141370495,jump
05/08/2020, 15:25:13,-8.765772,-1.0250684,1.2837305,-4.574999,0.3018414,-2.3086078,8.918379093072181,5.133360772005023,jump
05/08/2020, 15:25:13,-8.897498,-3.7529957,2.318379,-4.574999,0.3018414,-2.3086078,9.931028686605785,5.133360772005023,jump
05/08/2020, 15:25:13,-8.897498,-3.7529957,2.318379,-5.244507,0.15767728,-2.230417,9.931028686605785,5.70126951904565,jump
05/08/2020, 15:25:13,-9.287886,-6.983877,4.2200246,-5.244507,0.15767728,-2.230417,12.363169825743748,5.70126951904565,jump
05/08/2020, 15:25:13,-9.287886,-6.983877,4.2200246,-5.542609,0.10636461,-1.9200978,12.363169825743748,5.866737253903487,jump
05/08/2020, 15:25:13,-9.467513,-10.255474,5.1756372,-5.542609,0.10636461,-1.9200978,14.886093299440939,5.866737253903487,jump
05/08/2020, 15:25:13,-9.467513,-10.255474,5.1756372,-5.4350967,0.07826482,-1.507153,14.886093299440939,5.64073685179661,jump
05/08/2020, 15:25:13,-9.481883,-12.365486,5.1660576,-5.4350967,0.07826482,-1.507153,16.41644007532042,5.64073685179661,jump
05/08/2020, 15:25:13,-9.481883,-12.365486,5.1660576,-4.9561787,-0.024360506,-1.1052039,16.41644007532042,5.077969671313981,jump
05/08/2020, 15:25:13,-9.469908,-12.861256,5.5253105,-4.9561787,-0.024360506,-1.1052039,16.900298993870184,5.077969671313981,jump
05/08/2020, 15:25:13,-9.469908,-12.861256,5.5253105,-4.2206974,-0.14286831,-0.7081415,16.900298993870184,4.282074533854767,jump
05/08/2020, 15:25:13,-9.268726,-11.881692,5.870193,-4.2206974,-0.14286831,-0.7081415,16.172292887058013,4.282074533854767,jump
05/08/2020, 15:25:13,-9.268726,-11.881692,5.870193,-3.4314597,-0.23816325,-0.3208531,16.172292887058013,3.454646709574381,jump
05/08/2020, 15:25:13,-8.777747,-10.018367,5.6642213,-3.4314597,-0.23816325,-0.3208531,14.474112114470886,3.454646709574381,jump
05/08/2020, 15:25:13,-8.777747,-10.018367,5.6642213,-2.7057521,-0.31879744,0.0090139825,14.474112114470886,2.724483009967603,jump
05/08/2020, 15:25:13,-8.054451,-8.135881,5.158872,-2.7057521,-0.31879744,0.0090139825,12.557097949100532,2.724483009967603,jump
05/08/2020, 15:25:13,-8.054451,-8.135881,5.158872,-2.0826697,-0.3811057,0.24358614,12.557097949100532,2.1312177221790987,jump
05/08/2020, 15:25:13,-7.32876,-6.864126,4.88105,-2.0826697,-0.3811057,0.24358614,11.164748274498082,2.1312177221790987,jump
05/08/2020, 15:25:14,-8.880733,-4.991221,0.5245093,0.3803379,0.102699414,0.21182117,10.200725806584439,0.4472944116480404,jump
05/08/2020, 15:25:14,-8.832832,-4.8906302,0.5412744,0.3803379,0.102699414,0.21182117,10.110893594809715,0.4472944116480404,jump
05/08/2020, 15:25:14,-8.832832,-4.8906302,0.5412744,0.39988557,0.083151735,0.20571251,10.110893594809715,0.45731861308362753,jump
05/08/2020, 15:25:14,-8.808882,-4.7876444,0.46942386,0.39988557,0.083151735,0.20571251,10.036846884634599,0.45731861308362753,jump
05/08/2020, 15:25:14,-8.808882,-4.7876444,0.46942386,0.40721595,0.075821355,0.19105175,10.036846884634599,0.4561518188605419,jump
05/08/2020, 15:25:14,-8.830438,-4.6942387,0.34967285,0.40721595,0.075821355,0.19105175,10.00673658084111,0.4561518188605419,jump
05/08/2020, 15:25:14,-8.830438,-4.6942387,0.34967285,0.41088113,0.06360406,0.17028235,10.00673658084111,0.4492937335025882,jump
05/08/2020, 15:25:14,-8.847202,-4.5960426,0.32093263,0.41088113,0.06360406,0.17028235,9.974948330244088,0.4492937335025882,jump
05/08/2020, 15:25:14,-8.847202,-4.5960426,0.32093263,0.41821152,0.037947726,0.14706947,9.974948330244088,0.4449385731037814,jump
05/08/2020, 15:25:14,-8.8879175,-4.624783,0.33290774,0.41821152,0.037947726,0.14706947,10.024695683026396,0.4449385731037814,jump
05/08/2020, 15:25:14,-8.8879175,-4.624783,0.33290774,0.41210288,0.0025175551,0.123856604,10.024695683026396,0.43032032091922334,jump
05/08/2020, 15:25:14,-8.914263,-4.5625124,0.31374758,0.41210288,0.0025175551,0.123856604,10.0189339596585,0.43032032091922334,jump
05/08/2020, 15:25:14,-8.914263,-4.5625124,0.31374758,0.38644654,-0.025582235,0.09453508,10.0189339596585,0.39866308766785236,jump
05/08/2020, 15:25:14,-8.859178,-4.488267,0.25147706,0.38644654,-0.025582235,0.09453508,9.934425420850193,0.39866308766785236,jump
05/08/2020, 15:25:14,-8.859178,-4.488267,0.25147706,0.34612945,-0.03902127,0.06521356,9.934425420850193,0.35437418384278835,jump
05/08/2020, 15:25:14,-8.849598,-4.406836,0.2778223,0.34612945,-0.03902127,0.06521356,9.890034003068491,0.35437418384278835,jump
05/08/2020, 15:25:14,-8.849598,-4.406836,0.2778223,0.30581236,-0.03902127,0.040778965,9.890034003068491,0.3109771409448841,jump
05/08/2020, 15:25:14,-8.8951025,-4.3709106,0.22752686,0.30581236,-0.03902127,0.040778965,9.913600598954243,0.3109771409448841,jump
05/08/2020, 15:25:14,-8.8951025,-4.3709106,0.22752686,0.25694317,-0.04635165,0.018787822,9.913600598954243,0.26176563617981946,jump
05/08/2020, 15:25:14,-8.897498,-4.3158255,0.21555176,0.25694317,-0.04635165,0.018787822,9.891323721920093,0.26176563617981946,jump
05/08/2020, 15:25:15,-9.002879,-3.302732,-0.27303225,-0.34903494,-0.11721199,0.13363044,9.593457044818187,0.3916900956454928,jump
05/08/2020, 15:25:15,-9.175321,-3.2213013,-0.31374758,-0.34903494,-0.11721199,0.13363044,9.729425897781518,0.3916900956454928,jump
05/08/2020, 15:25:15,-9.175321,-3.2213013,-0.31374758,-0.36980435,-0.064677596,0.1605085,9.729425897781518,0.4082908628502606,jump
05/08/2020, 15:25:15,-9.465117,-3.2284865,-0.48139894,-0.36980435,-0.064677596,0.1605085,10.012158543149377,0.4082908628502606,jump
05/08/2020, 15:25:15,-9.465117,-3.2284865,-0.48139894,-0.40156934,-0.041464727,0.18983002,10.012158543149377,0.44610838624214216,jump
05/08/2020, 15:25:15,-9.826766,-3.2069314,-0.6466553,-0.40156934,-0.041464727,0.18983002,10.357021874099487,0.44610838624214216,jump
05/08/2020, 15:25:15,-9.826766,-3.2069314,-0.6466553,-0.44188643,-0.05734722,0.221595,10.357021874099487,0.49765114495947094,jump
05/08/2020, 15:25:15,-10.102193,-3.2356715,-0.80233157,-0.44188643,-0.05734722,0.221595,10.63802646588517,0.49765114495947094,jump
05/08/2020, 15:25:15,-10.102193,-3.2356715,-0.80233157,-0.48831218,-0.11110334,0.25824693,10.63802646588517,0.5634573792824527,jump
05/08/2020, 15:25:15,-10.162068,-3.3171022,-0.7927515,-0.48831218,-0.11110334,0.25824693,10.719107023749341,0.5634573792824527,jump
05/08/2020, 15:25:15,-10.162068,-3.3171022,-0.7927515,-0.5347379,-0.18196367,0.2948988,10.719107023749341,0.6371975273189514,jump
05/08/2020, 15:25:15,-9.982442,-3.3650026,-0.70174074,-0.5347379,-0.18196367,0.2948988,10.557690519850098,0.6371975273189514,jump
05/08/2020, 15:25:15,-9.982442,-3.3650026,-0.70174074,-0.5628377,-0.24305017,0.330329,10.557690519850098,0.6964028535187837,jump
05/08/2020, 15:25:15,-9.527389,-3.396138,-0.48618898,-0.5628377,-0.24305017,0.330329,10.12626612981532,0.6964028535187837,jump
05/08/2020, 15:25:15,-9.527389,-3.396138,-0.48618898,-0.5603942,-0.27115,0.3559853,10.12626612981532,0.7171398416144563,jump
05/08/2020, 15:25:15,-8.919053,-3.5087037,-0.17483643,-0.5603942,-0.27115,0.3559853,9.585983376475863,0.7171398416144563,jump
05/08/2020, 15:25:15,-8.919053,-3.5087037,-0.17483643,-0.52496403,-0.2516023,0.37431127,9.585983376475863,0.6920981697328249,jump
05/08/2020, 15:25:15,-8.202942,-3.5877395,0.18681154,-0.52496403,-0.2516023,0.37431127,8.955167712710278,0.6920981697328249,jump
05/08/2020, 15:25:15,-8.202942,-3.5877395,0.18681154,-0.45532545,-0.18196367,0.38530684,8.955167712710278,0.6236131837376115,jump
05/08/2020, 15:25:15,-7.680828,-3.657195,0.4382886,-0.45532545,-0.18196367,0.38530684,8.518350371326047,0.6236131837376115,jump
05/08/2020, 15:25:16,-8.923843,-3.4799635,0.48379397,0.011375424,-0.10988161,-0.27198392,9.59057785508798,0.2935619559762945,jump
05/08/2020, 15:25:16,-8.940608,-3.5494192,0.60833496,0.011375424,-0.10988161,-0.27198392,9.63861606651743,0.2935619559762945,jump
05/08/2020, 15:25:16,-8.940608,-3.5494192,0.60833496,0.050470784,-0.08300355,-0.24388413,9.63861606651743,0.2625192545597074,jump
05/08/2020, 15:25:16,-8.940608,-3.6859353,0.7544312,0.050470784,-0.08300355,-0.24388413,9.699987474199435,0.2625192545597074,jump
05/08/2020, 15:25:16,-8.940608,-3.6859353,0.7544312,0.09689653,-0.054903757,-0.21456261,9.699987474199435,0.24174464503880877,jump
05/08/2020, 15:25:16,-8.940608,-3.8176613,0.85023195,0.09689653,-0.054903757,-0.21456261,9.758683512682943,0.24174464503880877,jump
05/08/2020, 15:25:16,-8.940608,-3.8176613,0.85023195,0.14820918,-0.032912616,-0.18524109,9.758683512682943,0.23950670846169292,jump
05/08/2020, 15:25:16,-8.983719,-3.8368216,0.9148975,0.14820918,-0.032912616,-0.18524109,9.811495393866972,0.23950670846169292,jump
05/08/2020, 15:25:16,-8.983719,-3.8368216,0.9148975,0.2019653,-0.012143205,-0.16202822,9.811495393866972,0.2592114693993558,jump
05/08/2020, 15:25:16,-9.019644,-3.8631666,0.9053174,0.2019653,-0.012143205,-0.16202822,9.853812946088386,0.2592114693993558,jump
05/08/2020, 15:25:16,-9.019644,-3.8631666,0.9053174,0.23983893,0.011069666,-0.14248054,9.853812946088386,0.2791880233507285,jump
05/08/2020, 15:25:16,-9.139395,-3.6883302,0.92208254,0.23983893,0.011069666,-0.14248054,9.898613653790786,0.2791880233507285,jump
05/08/2020, 15:25:16,-9.139395,-3.6883302,0.92208254,0.25938663,0.036725994,-0.12659805,9.898613653790786,0.2909592530588211,jump
05/08/2020, 15:25:16,-9.235196,-3.4967287,0.8430469,0.25938663,0.036725994,-0.12659805,9.910937728111085,0.2909592530588211,jump
05/08/2020, 15:25:16,-9.235196,-3.4967287,0.8430469,0.2618301,0.057495404,-0.122932866,9.910937728111085,0.29491220368730214,jump
05/08/2020, 15:25:16,-9.472302,-3.4440382,0.7424561,0.2618301,0.057495404,-0.122932866,10.106292756521118,0.29491220368730214,jump
05/08/2020, 15:25:16,-9.472302,-3.4440382,0.7424561,0.24716932,0.058717135,-0.13515016,10.106292756521118,0.2877602119666104,jump
05/08/2020, 15:25:16,-9.704619,-3.3745828,0.61552006,0.24716932,0.058717135,-0.13515016,10.293022473810476,0.2877602119666104,jump
05/08/2020, 15:25:16,-9.704619,-3.3745828,0.61552006,0.21906953,0.033060804,-0.15225439,10.293022473810476,0.2688231247364954,jump
05/08/2020, 15:25:16,-9.912986,-3.3506324,0.56522465,0.21906953,0.033060804,-0.15225439,10.47919386603275,0.2688231247364954,jump
05/08/2020, 15:25:17,-8.296348,-4.157754,1.4250367,-0.017946096,-0.08789047,-0.22555819,9.388665036623298,0.24274120910176816,jump
05/08/2020, 15:25:17,-8.260423,-4.191284,1.575923,-0.017946096,-0.08789047,-0.22555819,9.396008703777085,0.24274120910176816,jump
05/08/2020, 15:25:17,-8.260423,-4.191284,1.575923,-0.09858028,-0.070786245,-0.2512145,9.396008703777085,0.2789937113035136,jump
05/08/2020, 15:25:17,-8.298743,-4.3230104,1.7292042,-0.09858028,-0.070786245,-0.2512145,9.515655830744558,0.2789937113035136,jump
05/08/2020, 15:25:17,-8.298743,-4.3230104,1.7292042,-0.21097945,-0.047573376,-0.29030985,9.515655830744558,0.3620156902993481,jump
05/08/2020, 15:25:17,-8.418494,-4.6846585,1.7699195,-0.21097945,-0.047573376,-0.29030985,9.795391039423315,0.3620156902993481,jump
05/08/2020, 15:25:17,-8.418494,-4.6846585,1.7699195,-0.35392186,-0.032912616,-0.35017464,9.795391039423315,0.49896512807211596,jump
05/08/2020, 15:25:17,-8.703502,-5.1924024,2.0285816,-0.35392186,-0.032912616,-0.35017464,10.335720949646156,0.49896512807211596,jump
05/08/2020, 15:25:17,-8.703502,-5.1924024,2.0285816,-0.4736514,-0.025582235,-0.42470017,10.335720949646156,0.6366870056722737,jump
05/08/2020, 15:25:17,-9.158555,-5.973179,2.5530908,-0.4736514,-0.025582235,-0.42470017,11.228368923238266,0.6366870056722737,jump
05/08/2020, 15:25:17,-9.158555,-5.973179,2.5530908,-0.51152503,0.0074044755,-0.51022124,11.228368923238266,0.7225222517696165,jump
05/08/2020, 15:25:17,-9.884246,-7.1132083,3.4991236,-0.51152503,0.0074044755,-0.51022124,12.670434660336225,0.7225222517696165,jump
05/08/2020, 15:25:17,-9.884246,-7.1132083,3.4991236,-0.34659147,0.055051945,-0.588412,12.670434660336225,0.6851168015779204,jump
05/08/2020, 15:25:17,-10.734478,-8.851993,4.385281,-0.34659147,0.055051945,-0.588412,14.588265187600024,0.6851168015779204,jump
05/08/2020, 15:25:17,-10.734478,-8.851993,4.385281,0.043140404,0.083151735,-0.68492866,14.588265187600024,0.691304975275486,jump
05/08/2020, 15:25:17,-11.55118,-10.856624,4.8499146,0.043140404,0.083151735,-0.68492866,16.577626638770315,0.691304975275486,jump
05/08/2020, 15:25:17,-11.55118,-10.856624,4.8499146,0.5807016,0.07826482,-0.8437536,16.577626638770315,1.0272583975330252,jump
05/08/2020, 15:25:17,-12.482842,-12.614569,5.0630717,0.5807016,0.07826482,-0.8437536,18.454901641134597,1.0272583975330252,jump
05/08/2020, 15:25:17,-12.482842,-12.614569,5.0630717,1.1341453,0.046499833,-1.0685519,18.454901641134597,1.5589261893026731,jump
05/08/2020, 15:25:17,-13.546231,-13.603711,4.4523416,1.1341453,0.046499833,-1.0685519,19.70747785518302,1.5589261893026731,jump
05/08/2020, 15:25:18,-5.7839723,-4.1553593,2.7279274,0.72853094,-0.66210353,0.26679903,7.626462741231714,1.0199608564659823,jump
05/08/2020, 15:25:18,-5.4319043,-3.7529957,2.320774,0.72853094,-0.66210353,0.26679903,6.998325068592694,1.0199608564659823,jump
05/08/2020, 15:25:18,-5.4319043,-3.7529957,2.320774,1.1292584,-0.4104272,0.26679903,6.998325068592694,1.2307951664452406,jump
05/08/2020, 15:25:18,-5.5780005,-3.5110989,1.8848804,1.1292584,-0.4104272,0.26679903,6.855266553043358,1.2307951664452406,jump
05/08/2020, 15:25:18,-5.5780005,-3.5110989,1.8848804,1.4774514,-0.14286831,0.23992096,6.855266553043358,1.503607724434942,jump
05/08/2020, 15:25:18,-6.0761647,-3.3482375,1.2046949,1.4774514,-0.14286831,0.23992096,7.041431808278261,1.503607724434942,jump
05/08/2020, 15:25:18,-6.0761647,-3.3482375,1.2046949,1.7340147,0.08070827,0.21915154,7.041431808278261,1.749670933361414,jump
05/08/2020, 15:25:18,-6.7779055,-3.0799952,0.45026368,1.7340147,0.08070827,0.21915154,7.458492476284523,1.749670933361414,jump
05/08/2020, 15:25:18,-6.7779055,-3.0799952,0.45026368,1.8928397,0.18455534,0.21548635,7.458492476284523,1.9139846016621838,jump
05/08/2020, 15:25:18,-7.448511,-2.7782228,-0.26584718,1.8928397,0.18455534,0.21548635,7.954213638252115,1.9139846016621838,jump
05/08/2020, 15:25:18,-7.448511,-2.7782228,-0.26584718,1.9478176,0.15034689,0.21670808,7.954213638252115,1.965594017472572,jump
05/08/2020, 15:25:18,-8.025711,-2.5123756,-0.57959473,1.9478176,0.15034689,0.21670808,8.429709317973519,1.965594017472572,jump
05/08/2020, 15:25:18,-8.025711,-2.5123756,-0.57959473,1.8989483,0.050165024,0.21670808,8.429709317973519,1.9119319056921158,jump
05/08/2020, 15:25:18,-8.50711,-2.3662794,-0.62510014,1.8989483,0.050165024,0.21670808,8.852171635707949,1.9119319056921158,jump
05/08/2020, 15:25:18,-8.50711,-2.3662794,-0.62510014,1.7413452,-0.034134347,0.20693424,8.852171635707949,1.7539298520592286,jump
05/08/2020, 15:25:18,-8.875943,-2.4213648,-0.6490503,1.7413452,-0.034134347,0.20693424,9.223157870711129,1.7539298520592286,jump
05/08/2020, 15:25:18,-8.875943,-2.4213648,-0.6490503,1.4921122,-0.070786245,0.18616484,9.223157870711129,1.505346052494704,jump
05/08/2020, 15:25:18,-9.263936,-2.668052,-0.859812,1.4921122,-0.070786245,0.18616484,9.678754515316257,1.505346052494704,jump
05/08/2020, 15:25:18,-9.263936,-2.668052,-0.859812,1.2111143,-0.09277739,0.15317813,9.678754515316257,1.2242830549614612,jump
05/08/2020, 15:25:18,-9.642349,-2.9338992,-1.2358302,1.2111143,-0.09277739,0.15317813,10.154306450265855,1.2242830549614612,jump
05/08/2020, 15:25:19,-7.462881,-4.1050634,0.2778223,0.79694784,-0.06101241,0.048109345,8.52193201060739,0.8007264688514807,jump
05/08/2020, 15:25:19,-7.1084185,-4.1721244,0.51971924,0.79694784,-0.06101241,0.048109345,8.258713159517834,0.8007264688514807,jump
05/08/2020, 15:25:19,-7.1084185,-4.1721244,0.51971924,0.98875946,0.12224709,-7.598577E-4,8.258713159517834,0.996288208754555,jump
05/08/2020, 15:25:19,-7.0221977,-4.2296047,0.6825806,0.98875946,0.12224709,-7.598577E-4,8.225979165123173,0.996288208754555,jump
05/08/2020, 15:25:19,-7.0221977,-4.2296047,0.6825806,1.1952318,0.31161523,-0.041076947,8.225979165123173,1.2358682821505955,jump
05/08/2020, 15:25:19,-7.201824,-4.26553,0.8143067,1.1952318,0.31161523,-0.041076947,8.409763023751879,1.2358682821505955,jump
05/08/2020, 15:25:19,-7.201824,-4.26553,0.8143067,1.3943738,0.4765488,-0.072841935,8.409763023751879,1.4753585736035306,jump
05/08/2020, 15:25:19,-7.6401124,-4.258345,0.9053174,1.3943738,0.4765488,-0.072841935,8.793430522176461,1.4753585736035306,jump
05/08/2020, 15:25:19,-7.6401124,-4.258345,0.9053174,1.5715246,0.5828393,-0.0838375,8.793430522176461,1.6782193002147396,jump
05/08/2020, 15:25:19,-8.188572,-4.27032,0.98195803,1.5715246,0.5828393,-0.0838375,9.28722693844127,1.6782193002147396,jump
05/08/2020, 15:25:19,-8.188572,-4.27032,0.98195803,1.7303495,0.62437814,-0.07528539,9.28722693844127,1.841093558355339,jump
05/08/2020, 15:25:19,-8.753797,-4.282295,0.96758795,1.7303495,0.62437814,-0.07528539,9.793019624603858,1.841093558355339,jump
05/08/2020, 15:25:19,-8.753797,-4.282295,0.96758795,1.881844,0.61216086,-0.04596387,9.793019624603858,1.9794419927036588,jump
05/08/2020, 15:25:19,-9.201666,-4.239185,0.99393314,1.881844,0.61216086,-0.04596387,10.179845100584288,1.9794419927036588,jump
05/08/2020, 15:25:19,-9.201666,-4.239185,0.99393314,2.0150127,0.5608482,-0.004425048,10.179845100584288,2.091613397561691,jump
05/08/2020, 15:25:19,-9.5633135,-4.160149,0.9867481,2.0150127,0.5608482,-0.004425048,10.475565718442361,2.091613397561691,jump
05/08/2020, 15:25:19,-9.5633135,-4.160149,0.9867481,2.1127512,0.48143572,0.035892043,10.475565718442361,2.1672070535398027,jump
05/08/2020, 15:25:19,-9.759705,-4.0499783,0.9532178,2.1127512,0.48143572,0.035892043,10.609560864597706,2.1672070535398027,jump
05/08/2020, 15:25:19,-9.759705,-4.0499783,0.9532178,2.1603987,0.39347115,0.07132221,10.609560864597706,2.197095592252021,jump
05/08/2020, 15:25:19,-9.798025,-3.9637575,0.9484278,2.1603987,0.39347115,0.07132221,10.611888870243362,2.197095592252021,jump
05/08/2020, 15:25:20,-9.7812605,-0.80233157,1.9160157,1.1317018,-0.5399306,-0.45890862,9.999395434553064,1.3352419922951213,jump
05/08/2020, 15:25:20,-9.798025,-1.1256592,1.7268091,1.1317018,-0.5399306,-0.45890862,10.012505929494647,1.3352419922951213,jump
05/08/2020, 15:25:20,-9.798025,-1.1256592,1.7268091,1.0779457,-0.54726094,-0.46623898,10.012505929494647,1.2957006872246244,jump
05/08/2020, 15:25:20,-9.659114,-1.2885206,1.6908839,1.0779457,-0.54726094,-0.46623898,9.89029092458898,1.2957006872246244,jump
05/08/2020, 15:25:20,-9.659114,-1.2885206,1.6908839,1.0559546,-0.5692521,-0.45279995,9.89029092458898,1.2822307827560704,jump
05/08/2020, 15:25:20,-9.400452,-1.3100758,1.707649,1.0559546,-0.5692521,-0.45279995,9.643695090228501,1.2822307827560704,jump
05/08/2020, 15:25:20,-9.400452,-1.3100758,1.707649,1.0449591,-0.5570348,-0.43936092,9.643695090228501,1.2630380941651715,jump
05/08/2020, 15:25:20,-9.125025,-1.3172607,1.7555494,1.0449591,-0.5570348,-0.43936092,9.385265429711305,1.2630380941651715,jump
05/08/2020, 15:25:20,-9.125025,-1.3172607,1.7555494,1.0095289,-0.4922831,-0.42714363,9.385265429711305,1.2016417477758043,jump
05/08/2020, 15:25:20,-8.950189,-1.1615845,1.8513502,1.0095289,-0.4922831,-0.42714363,9.213178208197197,1.2016417477758043,jump
05/08/2020, 15:25:20,-8.950189,-1.1615845,1.8513502,0.92889464,-0.38354915,-0.42347842,9.213178208197197,1.0905453589072427,jump
05/08/2020, 15:25:20,-8.856783,-0.9987232,2.0142114,0.92889464,-0.38354915,-0.42347842,9.137674717838618,1.0905453589072427,jump
05/08/2020, 15:25:20,-8.856783,-0.9987232,2.0142114,0.800613,-0.27725863,-0.4308088,9.137674717838618,0.9504997300150325,jump
05/08/2020, 15:25:20,-8.878338,-0.8813672,2.2201831,0.800613,-0.27725863,-0.4308088,9.194068982767572,0.9504997300150325,jump
05/08/2020, 15:25:20,-8.878338,-0.8813672,2.2201831,0.66011405,-0.21006346,-0.44424784,9.194068982767572,0.8229418934760062,jump
05/08/2020, 15:25:20,-8.957374,-1.0083033,2.3998096,0.66011405,-0.21006346,-0.44424784,9.327931377143097,0.8229418934760062,jump
05/08/2020, 15:25:20,-8.957374,-1.0083033,2.3998096,0.5550453,-0.19173752,-0.45646515,9.327931377143097,0.743773490919789,jump
05/08/2020, 15:25:20,-8.873548,-1.3627661,2.5147705,0.5550453,-0.19173752,-0.45646515,9.323145846270508,0.743773490919789,jump
05/08/2020, 15:25:20,-8.873548,-1.3627661,2.5147705,0.5171717,-0.19418098,-0.46135205,9.323145846270508,0.7197350311004108,jump
05/08/2020, 15:25:20,-8.717872,-1.8226099,2.8261232,0.5171717,-0.19418098,-0.46135205,9.343990892065152,0.7197350311004108,jump
05/08/2020, 15:25:21,-7.096443,-3.403323,1.4609619,-1.294654,0.16500765,-0.5236603,8.00478122990473,1.406263363307011,jump
05/08/2020, 15:25:21,-7.3455253,-2.919529,1.2981006,-1.294654,0.16500765,-0.5236603,8.010334319721167,1.406263363307011,jump
05/08/2020, 15:25:21,-7.3455253,-2.919529,1.2981006,-1.3068713,0.20165956,-0.5578687,8.010334319721167,1.4351991734958582,jump
05/08/2020, 15:25:21,-7.537127,-2.574646,1.1567944,-1.3068713,0.20165956,-0.5578687,8.048307837107718,1.4351991734958582,jump
05/08/2020, 15:25:21,-7.537127,-2.574646,1.1567944,-1.3777316,0.20654647,-0.5847468,8.048307837107718,1.5108720974577219,jump
05/08/2020, 15:25:21,-7.846084,-2.4165747,0.9412427,-1.3777316,0.20654647,-0.5847468,8.26358319110841,1.5108720974577219,jump
05/08/2020, 15:25:21,-7.846084,-2.4165747,0.9412427,-1.4656962,0.1711163,-0.6079597,8.26358319110841,1.5959828222890406,jump
05/08/2020, 15:25:21,-8.159832,-2.4213648,0.63707525,-1.4656962,0.1711163,-0.6079597,8.535322522717843,1.5959828222890406,jump
05/08/2020, 15:25:21,-8.159832,-2.4213648,0.63707525,-1.5231175,0.09903423,-0.6238422,8.535322522717843,1.6489008129752791,jump
05/08/2020, 15:25:21,-8.4304695,-2.4716604,0.25387207,-1.5231175,0.09903423,-0.6238422,8.788991537551812,1.6489008129752791,jump
05/08/2020, 15:25:21,-8.4304695,-2.4716604,0.25387207,-1.5451087,-0.013364935,-0.6213987,8.788991537551812,1.6654356098835537,jump
05/08/2020, 15:25:21,-8.552615,-2.5938063,-0.13891114,-1.5451087,-0.013364935,-0.6213987,8.938364136014272,1.6654356098835537,jump
05/08/2020, 15:25:21,-8.552615,-2.5938063,-0.13891114,-1.5548825,-0.15142043,-0.60062927,8.938364136014272,1.6737214037569277,jump
05/08/2020, 15:25:21,-8.638836,-2.6057813,-0.44786867,-1.5548825,-0.15142043,-0.60062927,9.03438810593004,1.6737214037569277,jump
05/08/2020, 15:25:21,-8.638836,-2.6057813,-0.44786867,-1.5780953,-0.2797021,-0.56397736,9.03438810593004,1.6990257666547195,jump
05/08/2020, 15:25:21,-8.5598,-2.5938063,-0.52690434,-1.5780953,-0.2797021,-0.56397736,8.959667276846982,1.6990257666547195,jump
05/08/2020, 15:25:21,-8.5598,-2.5938063,-0.52690434,-1.6208559,-0.37011012,-0.5285472,8.959667276846982,1.7445680305812097,jump
05/08/2020, 15:25:21,-8.5119,-2.6393116,-0.3520679,-1.6208559,-0.37011012,-0.5285472,8.918652252060726,1.7445680305812097,jump
05/08/2020, 15:25:21,-8.5119,-2.6393116,-0.3520679,-1.6685034,-0.4055403,-0.5065561,8.918652252060726,1.7902417738606355,jump
05/08/2020, 15:25:21,-8.538245,-2.8141482,-0.05508545,-1.6685034,-0.4055403,-0.5065561,8.990222218784234,1.7902417738606355,jump
05/08/2020, 15:25:22,2.6105714,4.5074267,-0.5628296,0.14943092,-0.48495275,0.6540874,5.2391560324488635,0.8278521152898071,jump
05/08/2020, 15:25:22,2.8596535,4.4499464,-0.37122804,0.14943092,-0.48495275,0.6540874,5.302589106866622,0.8278521152898071,jump
05/08/2020, 15:25:22,2.8596535,4.4499464,-0.37122804,0.0052667744,-0.017030125,1.0096108,5.302589106866622,1.0097681294702245,jump
05/08/2020, 15:25:22,2.6105714,4.2032595,-0.17723145,0.0052667744,-0.017030125,1.0096108,4.951149775013452,1.0097681294702245,jump
05/08/2020, 15:25:22,2.6105714,4.2032595,-0.17723145,-0.11934968,0.38247558,1.3895688,4.951149775013452,1.4461788910790545,jump
05/08/2020, 15:25:22,2.1171973,3.7266505,-0.19160157,-0.11934968,0.38247558,1.3895688,4.290356539839119,1.4461788910790545,jump
05/08/2020, 15:25:22,2.1171973,3.7266505,-0.19160157,-0.24763134,0.71234274,1.7890745,4.290356539839119,1.9415306253780034,jump
05/08/2020, 15:25:22,1.4753321,3.2692018,-0.29937744,-0.24763134,0.71234274,1.7890745,3.5991543307812153,1.9415306253780034,jump
05/08/2020, 15:25:22,1.4753321,3.2692018,-0.29937744,-0.35636532,0.9469149,2.1849153,3.5991543307812153,2.407799613574076,jump
05/08/2020, 15:25:22,0.92926764,2.811753,-0.4047583,-0.35636532,0.9469149,2.1849153,2.9888664687982947,2.407799613574076,jump
05/08/2020, 15:25:22,0.92926764,2.811753,-0.4047583,-0.421117,1.0886356,2.5587647,2.9888664687982947,2.812426655967701,jump
05/08/2020, 15:25:22,0.54366946,2.2201831,-0.61073,-0.421117,1.0886356,2.5587647,2.3659629660217045,2.812426655967701,jump
05/08/2020, 15:25:22,0.54366946,2.2201831,-0.61073,-0.49075562,1.1582742,2.9045143,2.3659629660217045,3.1652240885448983,jump
05/08/2020, 15:25:22,0.1939966,1.7435743,-0.6514453,-0.49075562,1.1582742,2.9045143,1.871381014411066,3.1652240885448983,jump
05/08/2020, 15:25:22,0.1939966,1.7435743,-0.6514453,-0.56405944,1.2156954,3.2514856,1.871381014411066,3.5168504125901654,jump
05/08/2020, 15:25:22,-0.17004639,1.2286451,-0.5292993,-0.56405944,1.2156954,3.2514856,1.3485704621486132,3.5168504125901654,jump
05/08/2020, 15:25:22,-0.17004639,1.2286451,-0.5292993,-0.6446936,1.3256512,3.6497695,1.3485704621486132,3.9362162802383143,jump
05/08/2020, 15:25:22,-0.4742139,0.6777906,-0.2921924,-0.6446936,1.3256512,3.6497695,0.8773000016228443,3.9362162802383143,jump
05/08/2020, 15:25:22,-0.4742139,0.6777906,-0.2921924,-0.7570928,1.5174627,4.103031,0.8773000016228443,4.439678737665469,jump
05/08/2020, 15:25:22,-0.7711963,0.22752686,-0.026345216,-0.7570928,1.5174627,4.103031,0.8044913198494811,4.439678737665469,jump
05/08/2020, 15:25:23,-8.581355,-0.7807764,0.10777588,0.40355074,0.52297455,-0.68126345,8.617475422857046,0.9489338584381136,jump
05/08/2020, 15:25:23,-8.849598,-0.6610254,-0.51013917,0.40355074,0.52297455,-0.68126345,8.888902074762681,0.9489338584381136,jump
05/08/2020, 15:25:23,-8.849598,-0.6610254,-0.51013917,0.18241762,0.37148002,-0.6421681,8.888902074762681,0.7639721624803774,jump
05/08/2020, 15:25:23,-9.1130495,-0.6586304,-0.98914313,0.18241762,0.37148002,-0.6421681,9.19020508058533,0.7639721624803774,jump
05/08/2020, 15:25:23,-9.1130495,-0.6586304,-0.98914313,-0.09980201,0.20165956,-0.59574234,9.19020508058533,0.636817054442427,jump
05/08/2020, 15:25:23,-9.460327,-0.7448511,-1.2549903,-0.09980201,0.20165956,-0.59574234,9.572230340246735,0.636817054442427,jump
05/08/2020, 15:25:23,-9.460327,-0.7448511,-1.2549903,-0.38568684,0.039169453,-0.5383211,9.572230340246735,0.66338387904129,jump
05/08/2020, 15:25:23,-9.704619,-0.91010743,-1.334026,-0.38568684,0.039169453,-0.5383211,9.838066817277705,0.66338387904129,jump
05/08/2020, 15:25:23,-9.704619,-0.91010743,-1.334026,-0.63125455,-0.10377296,-0.46868244,9.838066817277705,0.7930412138441582,jump
05/08/2020, 15:25:23,-9.8866415,-1.099314,-1.3651612,-0.63125455,-0.10377296,-0.46868244,10.040808556067189,0.7930412138441582,jump
05/08/2020, 15:25:23,-9.8866415,-1.099314,-1.3651612,-0.8242879,-0.24549364,-0.38927,10.040808556067189,0.9440597395303033,jump
05/08/2020, 15:25:23,-10.020762,-1.3627661,-1.2046949,-0.8242879,-0.24549364,-0.38927,10.184502994417196,0.9440597395303033,jump
05/08/2020, 15:25:23,-10.020762,-1.3627661,-1.2046949,-0.95745647,-0.3908795,-0.31963137,10.184502994417196,1.0824388644106164,jump
05/08/2020, 15:25:23,-10.037527,-1.5807129,-0.8286768,-0.95745647,-0.3908795,-0.31963137,10.194964863044401,1.0824388644106164,jump
05/08/2020, 15:25:23,-10.037527,-1.5807129,-0.8286768,-1.0075474,-0.51549596,-0.2585449,10.194964863044401,1.1609191452527858,jump
05/08/2020, 15:25:23,-10.039923,-1.8824854,-0.35925296,-1.0075474,-0.51549596,-0.2585449,10.221196702889127,1.1609191452527858,jump
05/08/2020, 15:25:23,-10.039923,-1.8824854,-0.35925296,-1.0002171,-0.58513457,-0.19257148,10.221196702889127,1.1746916365130504,jump
05/08/2020, 15:25:23,-10.013577,-2.2920337,0.102985844,-1.0002171,-0.58513457,-0.19257148,10.273059817380712,1.1746916365130504,jump
05/08/2020, 15:25:23,-10.013577,-2.2920337,0.102985844,-0.9611217,-0.5912432,-0.12537631,10.273059817380712,1.1353601327567902,jump
05/08/2020, 15:25:23,-10.054293,-2.5962012,0.49337405,-0.9611217,-0.5912432,-0.12537631,10.39579144648834,1.1353601327567902,jump
05/08/2020, 15:25:24,-8.703502,-3.1087356,-1.6094532,-0.39423895,-0.024360506,0.18005618,9.381125639451595,0.4340944742816223,jump
05/08/2020, 15:25:24,-8.617281,-3.2476466,-1.4873072,-0.39423895,-0.024360506,0.18005618,9.328280767111703,0.4340944742816223,jump
05/08/2020, 15:25:24,-8.617281,-3.2476466,-1.4873072,-0.3917955,-0.045129918,0.22037327,9.328280767111703,0.4517795832946511,jump
05/08/2020, 15:25:24,-8.361013,-3.4488282,-1.3819263,-0.3917955,-0.045129918,0.22037327,9.149354166863061,0.4517795832946511,jump
05/08/2020, 15:25:24,-8.361013,-3.4488282,-1.3819263,-0.37346953,-0.015808396,0.25824693,9.149354166863061,0.4543356385172048,jump
05/08/2020, 15:25:24,-8.090376,-3.5973196,-1.1615845,-0.37346953,-0.015808396,0.25824693,8.929959074712306,0.4543356385172048,jump
05/08/2020, 15:25:24,-8.090376,-3.5973196,-1.1615845,-0.3343742,0.068490975,0.2900119,8.929959074712306,0.4478884030253223,jump
05/08/2020, 15:25:24,-7.8772197,-3.7314405,-1.0059083,-0.3343742,0.068490975,0.2900119,8.774171743399853,0.4478884030253223,jump
05/08/2020, 15:25:24,-7.8772197,-3.7314405,-1.0059083,-0.28061807,0.19310744,0.3058944,8.774171743399853,0.45783006964985234,jump
05/08/2020, 15:25:24,-7.965835,-3.8440065,-0.83586186,-0.28061807,0.19310744,0.3058944,8.88423210362322,0.45783006964985234,jump
05/08/2020, 15:25:24,-7.965835,-3.8440065,-0.83586186,-0.22564021,0.33604985,0.31200305,8.88423210362322,0.5110664428616486,jump
05/08/2020, 15:25:24,-8.334668,-3.9398074,-0.7664063,-0.22564021,0.33604985,0.31200305,9.250738046729913,0.5110664428616486,jump
05/08/2020, 15:25:24,-8.334668,-3.9398074,-0.7664063,-0.16333197,0.45700112,0.31322476,9.250738046729913,0.5776132859551538,jump
05/08/2020, 15:25:24,-8.801697,-4.038003,-0.7664063,-0.16333197,0.45700112,0.31322476,9.714047186506386,0.5776132859551538,jump
05/08/2020, 15:25:24,-8.801697,-4.038003,-0.7664063,-0.07903259,0.5046486,0.31322476,9.714047186506386,0.5991878989108034,jump
05/08/2020, 15:25:24,-9.275911,-4.1098537,-0.8262818,-0.07903259,0.5046486,0.31322476,10.179202837889992,0.5991878989108034,jump
05/08/2020, 15:25:24,-9.275911,-4.1098537,-0.8262818,0.023592725,0.48143572,0.32055515,10.179202837889992,0.5788718079129115,jump
05/08/2020, 15:25:24,-9.5489435,-4.184099,-0.80712163,0.023592725,0.48143572,0.32055515,10.456598575387453,0.5788718079129115,jump
05/08/2020, 15:25:24,-9.5489435,-4.184099,-0.80712163,0.12255286,0.43012306,0.33399418,10.456598575387453,0.558190973157292,jump
05/08/2020, 15:25:24,-9.565708,-4.2439747,-0.8143067,0.12255286,0.43012306,0.33399418,10.496532241924433,0.558190973157292,jump
05/08/2020, 15:25:25,-8.844808,-2.7015822,1.104104,0.31069928,0.34460196,0.18005618,9.313872127276401,0.4976994925185026,jump
05/08/2020, 15:25:25,-9.1849,-2.792593,1.0346485,0.31069928,0.34460196,0.18005618,9.655644281798688,0.4976994925185026,jump
05/08/2020, 15:25:25,-9.1849,-2.792593,1.0346485,0.26549527,0.3629279,0.18005618,9.655644281798688,0.4843806754591739,jump
05/08/2020, 15:25:25,-9.448353,-2.8979738,1.0059083,0.26549527,0.3629279,0.18005618,9.933854957023602,0.4843806754591739,jump
05/08/2020, 15:25:25,-9.448353,-2.8979738,1.0059083,0.24472585,0.3177239,0.18616484,9.933854957023602,0.4421499383173218,jump
05/08/2020, 15:25:25,-9.558523,-2.9650342,0.96040285,0.24472585,0.3177239,0.18616484,10.053813557855895,0.4421499383173218,jump
05/08/2020, 15:25:25,-9.558523,-2.9650342,0.96040285,0.23617375,0.26030257,0.20204732,10.053813557855895,0.4054116281549856,jump
05/08/2020, 15:25:25,-9.407638,-3.0608351,1.0322535,0.23617375,0.26030257,0.20204732,9.946753444556803,0.4054116281549856,jump
05/08/2020, 15:25:25,-9.407638,-3.0608351,1.0322535,0.24106066,0.24075492,0.22281674,9.946753444556803,0.4070877906120319,jump
05/08/2020, 15:25:25,-9.17053,-3.1255007,1.1088941,0.24106066,0.24075492,0.22281674,9.751770453447717,0.4070877906120319,jump
05/08/2020, 15:25:25,-9.17053,-3.1255007,1.1088941,0.2544997,0.2651895,0.24358614,9.751770453447717,0.4409419189977539,jump
05/08/2020, 15:25:25,-8.995694,-3.1949563,1.2382251,0.2544997,0.2651895,0.24358614,9.626186192289829,0.4409419189977539,jump
05/08/2020, 15:25:25,-8.995694,-3.1949563,1.2382251,0.27771255,0.3177239,0.26435557,9.626186192289829,0.4979524140092335,jump
05/08/2020, 15:25:25,-8.923843,-3.2452517,1.3531861,0.27771255,0.3177239,0.26435557,9.591545847790814,0.4979524140092335,jump
05/08/2020, 15:25:25,-8.923843,-3.2452517,1.3531861,0.3033689,0.37636694,0.28390324,9.591545847790814,0.5606119990006053,jump
05/08/2020, 15:25:25,-9.012459,-3.293152,1.4130616,0.3033689,0.37636694,0.28390324,9.698763194170416,0.5606119990006053,jump
05/08/2020, 15:25:25,-9.012459,-3.293152,1.4130616,0.33513388,0.41301882,0.29612055,9.698763194170416,0.6087582839526877,jump
05/08/2020, 15:25:25,-9.175321,-3.302732,1.3771362,0.33513388,0.41301882,0.29612055,9.848403493844463,0.6087582839526877,jump
05/08/2020, 15:25:25,-9.175321,-3.302732,1.3771362,0.36689886,0.41790575,0.30711612,9.848403493844463,0.6352797043098297,jump
05/08/2020, 15:25:25,-9.319021,-3.290757,1.4226416,0.36689886,0.41790575,0.30711612,9.984845870453436,0.6352797043098297,jump
05/08/2020, 15:25:26,-8.931028,-3.9829175,-0.050295413,3.798548E-4,0.0012958252,0.20693424,9.77903008955423,0.206938649268474,jump
05/08/2020, 15:25:26,-9.129815,-3.9877076,-0.07664063,3.798548E-4,0.0012958252,0.20693424,9.962992000280687,0.206938649268474,jump
05/08/2020, 15:25:26,-9.129815,-3.9877076,-0.07664063,-0.014280906,-0.008478015,0.18249965,9.962992000280687,0.18325376453115058,jump
05/08/2020, 15:25:26,-9.299861,-4.026028,-0.06945557,-0.014280906,-0.008478015,0.18249965,10.134157121369327,0.18325376453115058,jump
05/08/2020, 15:25:26,-9.299861,-4.026028,-0.06945557,-0.011837447,-0.04635165,0.14951293,10.134157121369327,0.15697998997493723,jump
05/08/2020, 15:25:26,-9.402847,-4.028423,-0.13651612,-0.011837447,-0.04635165,0.14951293,10.23036481897046,0.15697998997493723,jump
05/08/2020, 15:25:26,-9.402847,-4.028423,-0.13651612,3.798548E-4,-0.09644258,0.11286103,10.23036481897046,0.14845513671856767,jump
05/08/2020, 15:25:26,-9.398057,-3.9517825,-0.07664063,3.798548E-4,-0.09644258,0.11286103,10.195387854807878,0.14845513671856767,jump
05/08/2020, 15:25:26,-9.398057,-3.9517825,-0.07664063,0.012597155,-0.13798138,0.07743086,10.195387854807878,0.1587233091637457,jump
05/08/2020, 15:25:26,-9.311836,-3.8535867,-0.0047900393,0.012597155,-0.13798138,0.07743086,10.077720347721824,0.1587233091637457,jump
05/08/2020, 15:25:26,-9.311836,-3.8535867,-0.0047900393,0.019927535,-0.15630734,0.040778965,10.077720347721824,0.16276367856585916,jump
05/08/2020, 15:25:26,-9.144185,-3.8416114,0.05748047,0.019927535,-0.15630734,0.040778965,9.918538328085972,0.16276367856585916,jump
05/08/2020, 15:25:26,-9.144185,-3.8416114,0.05748047,0.016262345,-0.14286831,0.0041270624,9.918538328085972,0.143850097575727,jump
05/08/2020, 15:25:26,-9.096285,-3.7985013,0.038320314,0.016262345,-0.14286831,0.0041270624,9.857610186346893,0.143850097575727,jump
05/08/2020, 15:25:26,-9.096285,-3.7985013,0.038320314,0.0028233137,-0.106216416,-0.030081378,9.857610186346893,0.11043001131007783,jump
05/08/2020, 15:25:26,-9.2184305,-3.788921,0.0071850587,0.0028233137,-0.106216416,-0.030081378,9.966716415018292,0.11043001131007783,jump
05/08/2020, 15:25:26,-9.2184305,-3.788921,0.0071850587,-0.014280906,-0.07322971,-0.052072518,9.966716415018292,0.0909839626655427,jump
05/08/2020, 15:25:26,-9.517808,-3.784131,-0.06227051,-0.014280906,-0.07322971,-0.052072518,10.242665365718578,0.0909839626655427,jump
05/08/2020, 15:25:26,-9.517808,-3.784131,-0.06227051,-0.035050318,-0.06712106,-0.06673328,10.242665365718578,0.10093112367145571,jump
05/08/2020, 15:25:26,-9.77168,-3.7386258,-0.16525635,-0.035050318,-0.06712106,-0.06673328,10.463764136958513,0.10093112367145571,jump
05/08/2020, 15:25:27,-12.434942,-7.7862086,-3.647615,2.6600862,-0.14897697,-7.256614,15.118132435549468,7.730245937567016,jump
05/08/2020, 15:25:27,-12.451707,-6.5360084,-3.173401,2.6600862,-0.14897697,-7.256614,14.416479608053622,7.730245937567016,jump
05/08/2020, 15:25:27,-12.451707,-6.5360084,-3.173401,2.8176894,-0.31879744,-6.9633994,14.416479608053622,7.51863929276725,jump
05/08/2020, 15:25:27,-11.788286,-4.854705,-2.2513185,2.8176894,-0.31879744,-6.9633994,12.94605290348433,7.51863929276725,jump
05/08/2020, 15:25:27,-11.788286,-4.854705,-2.2513185,3.3088248,-0.48983964,-6.620093,12.94605290348433,7.417135152912606,jump
05/08/2020, 15:25:27,-10.542876,-2.9578493,-2.0429518,3.3088248,-0.48983964,-6.620093,11.138885218245374,7.417135152912606,jump
05/08/2020, 15:25:27,-10.542876,-2.9578493,-2.0429518,3.8500512,-0.6804295,-6.347647,11.138885218245374,7.455099137464464,jump
05/08/2020, 15:25:27,-9.295072,-1.0609937,-2.454895,3.8500512,-0.6804295,-6.347647,9.672154527898822,7.455099137464464,jump
05/08/2020, 15:25:27,-9.295072,-1.0609937,-2.454895,4.2202353,-0.89301056,-6.1130753,9.672154527898822,7.481814174017139,jump
05/08/2020, 15:25:27,-8.351434,1.0681788,-2.5459058,4.2202353,-0.89301056,-6.1130753,8.79596999342894,7.481814174017139,jump
05/08/2020, 15:25:27,-8.351434,1.0681788,-2.5459058,4.476799,-1.1288044,-5.8528466,8.79596999342894,7.454645695721016,jump
05/08/2020, 15:25:27,-7.3694754,2.912344,-2.6608667,4.476799,-1.1288044,-5.8528466,8.358895046359212,7.454645695721016,jump
05/08/2020, 15:25:27,-7.3694754,2.912344,-2.6608667,4.5598764,-1.3902547,-5.557188,8.358895046359212,7.321722491504074,jump
05/08/2020, 15:25:27,-6.330037,4.3230104,-2.806963,4.5598764,-1.3902547,-5.557188,8.163138508244478,7.321722491504074,jump
05/08/2020, 15:25:27,-6.330037,4.3230104,-2.806963,4.4694686,-1.6749178,-5.2334294,8.163138508244478,7.083098391387956,jump
05/08/2020, 15:25:27,-5.271438,5.2905984,-2.8357031,4.4694686,-1.6749178,-5.2334294,7.9887235206710905,7.083098391387956,jump
05/08/2020, 15:25:27,-5.271438,5.2905984,-2.8357031,4.2837653,-1.9571375,-4.8571367,7.9887235206710905,6.765560547372508,jump
05/08/2020, 15:25:27,-4.1146436,6.0426345,-2.811753,4.2837653,-1.9571375,-4.8571367,7.832603552583776,6.765560547372508,jump
05/08/2020, 15:25:27,-4.1146436,6.0426345,-2.811753,4.005211,-2.2699003,-4.438083,7.832603552583776,6.394587076332421,jump
05/08/2020, 15:25:27,-2.9961696,6.3156667,-3.3697927,4.005211,-2.2699003,-4.438083,7.760166265709722,6.394587076332421,jump
05/08/2020, 15:25:28,-8.911868,-2.8428884,0.1341211,-0.5261858,-0.5460392,-1.8248029,9.355287041082363,1.9760910595237775,jump
05/08/2020, 15:25:28,-9.251961,-2.7782228,0.0071850587,-0.5261858,-0.5460392,-1.8248029,9.660090649081996,1.9760910595237775,jump
05/08/2020, 15:25:28,-9.251961,-2.7782228,0.0071850587,-0.5579508,-0.41897932,-1.7429469,9.660090649081996,1.8774228413397374,jump
05/08/2020, 15:25:28,-9.496253,-2.7111623,-0.25866213,-0.5579508,-0.41897932,-1.7429469,9.879075289264724,1.8774228413397374,jump
05/08/2020, 15:25:28,-9.496253,-2.7111623,-0.25866213,-0.5799419,-0.4104272,-1.6586475,9.879075289264724,1.8044098176417505,jump
05/08/2020, 15:25:28,-9.580078,-2.7303224,-0.4239185,-0.5799419,-0.4104272,-1.6586475,9.970569891360642,1.8044098176417505,jump
05/08/2020, 15:25:28,-9.580078,-2.7303224,-0.4239185,-0.588494,-0.46173987,-1.5719047,9.970569891360642,1.74080819013027,jump
05/08/2020, 15:25:28,-9.311836,-2.699187,-0.5221143,-0.588494,-0.46173987,-1.5719047,9.70919709384964,1.74080819013027,jump
05/08/2020, 15:25:28,-9.311836,-2.699187,-0.5221143,-0.5897158,-0.48983964,-1.4766098,9.70919709384964,1.6637560381219594,jump
05/08/2020, 15:25:28,-8.837623,-2.7327175,-0.4622388,-0.5897158,-0.48983964,-1.4766098,9.262018337314606,1.6637560381219594,jump
05/08/2020, 15:25:28,-8.837623,-2.7327175,-0.4622388,-0.588494,-0.45807466,-1.3764279,9.262018337314606,1.5654747899380934,jump
05/08/2020, 15:25:28,-8.375383,-2.682422,-0.34967285,-0.588494,-0.45807466,-1.3764279,8.801403591988548,1.5654747899380934,jump
05/08/2020, 15:25:28,-8.375383,-2.682422,-0.34967285,-0.5762767,-0.37744048,-1.2811329,8.801403591988548,1.4545988368564584,jump
05/08/2020, 15:25:28,-8.008945,-2.7279274,-0.26105714,-0.5762767,-0.37744048,-1.2811329,8.464806344206425,1.4545988368564584,jump
05/08/2020, 15:25:28,-8.008945,-2.7279274,-0.26105714,-0.5408465,-0.27725863,-1.1870598,8.464806344206425,1.3336034604918006,jump
05/08/2020, 15:25:28,-7.7407036,-2.7566676,-0.18441652,-0.5408465,-0.27725863,-1.1870598,8.218985201480976,1.3336034604918006,jump
05/08/2020, 15:25:28,-7.7407036,-2.7566676,-0.18441652,-0.47976005,-0.16608118,-1.0856562,8.218985201480976,1.1984998848631905,jump
05/08/2020, 15:25:28,-7.6592727,-2.7901978,-0.038320314,-0.47976005,-0.16608118,-1.0856562,8.151756272693722,1.1984998848631905,jump
05/08/2020, 15:25:28,-7.6592727,-2.7901978,-0.038320314,-0.39057377,-0.05734722,-0.9793656,8.151756272693722,1.055932538895481,jump
05/08/2020, 15:25:28,-7.695198,-2.8213332,0.05748047,-0.39057377,-0.05734722,-0.9793656,8.196297824545153,1.055932538895481,jump
05/08/2020, 15:25:29,-7.7718387,-4.392466,0.3161426,0.35956848,-0.08178182,0.17150408,8.932814815739391,0.4066834210690728,jump
05/08/2020, 15:25:29,-7.7718387,-4.392466,0.3161426,0.44264612,0.035504263,0.07743086,8.932814815739391,0.4507678722662718,jump
05/08/2020, 15:25:29,-7.824529,-4.2367897,0.32093263,0.44264612,0.035504263,0.07743086,8.903743116753997,0.4507678722662718,jump
05/08/2020, 15:25:29,-7.824529,-4.2367897,0.32093263,0.5269455,0.13568613,-0.009311968,8.903743116753997,0.5442140834834907,jump
05/08/2020, 15:25:29,-7.9969707,-4.145779,0.38320315,0.5269455,0.13568613,-0.009311968,9.01586761798785,0.5442140834834907,jump
05/08/2020, 15:25:29,-7.9969707,-4.145779,0.38320315,0.6088014,0.20288129,-0.08261577,9.01586761798785,0.6470126416386482,jump
05/08/2020, 15:25:29,-8.207732,-4.0811133,0.4406836,0.6088014,0.20288129,-0.08261577,9.176957883568155,0.6470126416386482,jump
05/08/2020, 15:25:29,-8.207732,-4.0811133,0.4406836,0.67966175,0.24686356,-0.14614573,9.176957883568155,0.7377264309686918,jump
05/08/2020, 15:25:29,-8.464,-4.0667434,0.43589357,0.67966175,0.24686356,-0.14614573,9.40040938509228,0.7377264309686918,jump
05/08/2020, 15:25:29,-8.464,-4.0667434,0.43589357,0.74807864,0.2725199,-0.19623667,9.40040938509228,0.8199985226909273,jump
05/08/2020, 15:25:29,-8.605306,-4.009263,0.46702883,0.74807864,0.2725199,-0.19623667,9.5049246046972,0.8199985226909273,jump
05/08/2020, 15:25:29,-8.605306,-4.009263,0.46702883,0.81405205,0.2737416,-0.22555819,9.5049246046972,0.8879705487558002,jump
05/08/2020, 15:25:29,-8.749006,-3.9326222,0.48618898,0.81405205,0.2737416,-0.22555819,9.604530586220607,0.8879705487558002,jump
05/08/2020, 15:25:29,-8.749006,-3.9326222,0.48618898,0.8555909,0.25908086,-0.23777549,9.604530586220607,0.925038284492878,jump
05/08/2020, 15:25:29,-8.830438,-3.7649708,0.44786867,0.8555909,0.25908086,-0.23777549,9.610006274238465,0.925038284492878,jump
05/08/2020, 15:25:29,-8.830438,-3.7649708,0.44786867,0.86780816,0.23831145,-0.23899722,9.610006274238465,0.9311299743425756,jump
05/08/2020, 15:25:29,-8.808882,-3.652405,0.34009278,0.86780816,0.23831145,-0.23899722,9.542123632053997,0.9311299743425756,jump
05/08/2020, 15:25:29,-8.808882,-3.652405,0.34009278,0.8384867,0.21754205,-0.2341103,9.542123632053997,0.8973249541206608,jump
05/08/2020, 15:25:29,-8.830438,-3.4679885,0.2203418,0.8384867,0.21754205,-0.2341103,9.48957975648281,0.8973249541206608,jump
05/08/2020, 15:25:29,-8.830438,-3.4679885,0.2203418,0.78106534,0.19799437,-0.221893,9.48957975648281,0.835763928594479,jump
05/08/2020, 15:25:30,-8.741821,-4.6104126,0.24668702,-0.21097945,-0.10988161,-0.061846357,9.886161957946783,0.2457870357821774,jump
05/08/2020, 15:25:30,-8.837623,-4.5649076,0.16046631,-0.21097945,-0.10988161,-0.061846357,9.948251321549586,0.2457870357821774,jump
05/08/2020, 15:25:30,-8.837623,-4.5649076,0.16046631,-0.21220118,-0.12332064,-0.07772885,9.948251321549586,0.2574472655581156,jump
05/08/2020, 15:25:30,-8.818462,-4.517007,0.14370118,-0.21220118,-0.12332064,-0.07772885,9.909050395129105,0.2574472655581156,jump
05/08/2020, 15:25:30,-8.818462,-4.517007,0.14370118,-0.21097945,-0.13553794,-0.093611345,9.909050395129105,0.2676675984454335,jump
05/08/2020, 15:25:30,-8.780142,-4.4906616,0.13651612,-0.21097945,-0.13553794,-0.093611345,9.86283777672519,0.2676675984454335,jump
05/08/2020, 15:25:30,-8.780142,-4.4906616,0.13651612,-0.20609252,-0.14531177,-0.10460691,9.86283777672519,0.27300594261138117,jump
05/08/2020, 15:25:30,-8.629255,-4.521797,0.16046631,-0.20609252,-0.14531177,-0.10460691,9.743533554065493,0.27300594261138117,jump
05/08/2020, 15:25:30,-8.629255,-4.521797,0.16046631,-0.19631869,-0.14775524,-0.114380755,9.743533554065493,0.27102692316644184,jump
05/08/2020, 15:25:30,-8.581355,-4.4738965,0.22513184,-0.19631869,-0.14775524,-0.114380755,9.680190573209991,0.27102692316644184,jump
05/08/2020, 15:25:30,-8.581355,-4.4738965,0.22513184,-0.1889883,-0.1343162,-0.121711135,9.680190573209991,0.2618606889125647,jump
05/08/2020, 15:25:30,-8.528665,-4.4451566,0.23950197,-0.1889883,-0.1343162,-0.121711135,9.620545609928685,0.2618606889125647,jump
05/08/2020, 15:25:30,-8.528665,-4.4451566,0.23950197,-0.18410139,-0.10743815,-0.12904151,9.620545609928685,0.24917461187379647,jump
05/08/2020, 15:25:30,-8.504715,-4.430786,0.25147706,-0.18410139,-0.10743815,-0.12904151,9.592980929702554,0.24917461187379647,jump
05/08/2020, 15:25:30,-8.504715,-4.430786,0.25147706,-0.176771,-0.084225275,-0.13515016,9.592980929702554,0.237923202450071,jump
05/08/2020, 15:25:30,-8.586145,-4.4259963,0.23471193,-0.176771,-0.084225275,-0.13515016,9.66263037771806,0.237923202450071,jump
05/08/2020, 15:25:30,-8.586145,-4.4259963,0.23471193,-0.1682189,-0.07322971,-0.13759363,9.66263037771806,0.22932987853176795,jump
05/08/2020, 15:25:30,-8.614885,-4.378096,0.20597169,-0.1682189,-0.07322971,-0.13759363,9.665733240769896,0.22932987853176795,jump
05/08/2020, 15:25:30,-8.614885,-4.378096,0.20597169,-0.15844506,-0.07445144,-0.13759363,9.665733240769896,0.22266535447731856,jump
05/08/2020, 15:25:30,-8.655601,-4.3637257,0.20357667,-0.15844506,-0.07445144,-0.13759363,9.69551267124795,0.22266535447731856,jump
05/08/2020, 15:25:31,-8.619676,-3.307522,-0.17004639,-0.40279105,-0.24305017,-0.0032033178,9.23403627980213,0.4704511454190052,jump
05/08/2020, 15:25:31,-8.590936,-3.175796,-0.23710695,-0.40279105,-0.24305017,-0.0032033178,9.16220914764894,0.4704511454190052,jump
05/08/2020, 15:25:31,-8.590936,-3.175796,-0.23710695,-0.4895339,-0.22472422,-0.02397273,9.16220914764894,0.5391837409014265,jump
05/08/2020, 15:25:31,-8.744217,-3.1278956,-0.26345217,-0.4895339,-0.22472422,-0.02397273,9.290557971262041,0.5391837409014265,jump
05/08/2020, 15:25:31,-8.744217,-3.1278956,-0.26345217,-0.5909375,-0.20762001,-0.038633488,9.290557971262041,0.6275394315386587,jump
05/08/2020, 15:25:31,-9.0076685,-3.1949563,-0.30895755,-0.5909375,-0.20762001,-0.038633488,9.562494039770188,0.6275394315386587,jump
05/08/2020, 15:25:31,-9.0076685,-3.1949563,-0.30895755,-0.6947845,-0.21983731,-0.047185596,9.562494039770188,0.7302605387973474,jump
05/08/2020, 15:25:31,-9.268726,-3.2308815,-0.3305127,-0.6947845,-0.21983731,-0.047185596,9.821258663600894,0.7302605387973474,jump
05/08/2020, 15:25:31,-9.268726,-3.2308815,-0.3305127,-0.78519255,-0.27848035,-0.04962906,9.821258663600894,0.834590731261505,jump
05/08/2020, 15:25:31,-9.426797,-3.302732,-0.3520679,-0.78519255,-0.27848035,-0.04962906,9.994823182151492,0.834590731261505,jump
05/08/2020, 15:25:31,-9.426797,-3.302732,-0.3520679,-0.85849637,-0.3530059,-0.050850786,9.994823182151492,0.9296316323260108,jump
05/08/2020, 15:25:31,-9.371712,-3.3769777,-0.38080812,-0.85849637,-0.3530059,-0.050850786,9.968850177132031,0.9296316323260108,jump
05/08/2020, 15:25:31,-9.371712,-3.3769777,-0.38080812,-0.9134742,-0.40920547,-0.044742137,9.968850177132031,1.001941161279473,jump
05/08/2020, 15:25:31,-9.189691,-3.3266823,-0.4047583,-0.9134742,-0.40920547,-0.044742137,9.78166947623948,1.001941161279473,jump
05/08/2020, 15:25:31,-9.189691,-3.3266823,-0.4047583,-0.95623475,-0.42753142,-0.039855216,9.78166947623948,1.0482158448600203,jump
05/08/2020, 15:25:31,-8.981323,-3.403323,-0.28500733,-0.95623475,-0.42753142,-0.039855216,9.608746190745267,1.0482158448600203,jump
05/08/2020, 15:25:31,-8.981323,-3.403323,-0.28500733,-0.9916649,-0.40798375,-0.03619003,9.608746190745267,1.0729211087644313,jump
05/08/2020, 15:25:31,-8.907078,-3.396138,-0.28979737,-0.9916649,-0.40798375,-0.03619003,9.536968609174819,1.0729211087644313,jump
05/08/2020, 15:25:31,-8.907078,-3.396138,-0.28979737,-1.0173212,-0.361558,-0.02397273,9.536968609174819,1.0799265507619584,jump
05/08/2020, 15:25:31,-8.964559,-3.410508,-0.23231691,-1.0173212,-0.361558,-0.02397273,9.594208999155736,1.0799265507619584,jump
05/08/2020, 15:25:32,-8.959768,-3.7458107,0.3784131,0.0956748,-0.09399912,0.017566092,9.718628634804588,0.13527035396901277,jump
05/08/2020, 15:25:32,-8.974138,-3.7577858,0.4406836,0.0956748,-0.09399912,0.017566092,9.739112569573075,0.13527035396901277,jump
05/08/2020, 15:25:32,-8.974138,-3.7577858,0.4406836,0.107892096,-0.1013295,0.021231283,9.739112569573075,0.14952972583630944,jump
05/08/2020, 15:25:32,-8.943004,-3.7649708,0.4047583,0.107892096,-0.1013295,0.021231283,9.71165014911818,0.14952972583630944,jump
05/08/2020, 15:25:32,-8.943004,-3.7649708,0.4047583,0.12255286,-0.09522085,0.022453012,9.71165014911818,0.15681310699242126,jump
05/08/2020, 15:25:32,-8.957374,-3.779341,0.48618898,0.12255286,-0.09522085,0.022453012,9.734184102203868,0.15681310699242126,jump
05/08/2020, 15:25:32,-8.957374,-3.779341,0.48618898,0.12988323,-0.09033393,0.024896473,9.734184102203868,0.16015525853039536,jump
05/08/2020, 15:25:32,-8.947793,-3.774551,0.44547364,0.12988323,-0.09033393,0.024896473,9.721557543284357,0.16015525853039536,jump
05/08/2020, 15:25:32,-8.947793,-3.774551,0.44547364,0.1286615,-0.09644258,0.026118202,9.721557543284357,0.16290215756837118,jump
05/08/2020, 15:25:32,-8.938213,-3.6739602,0.3281177,0.1286615,-0.09644258,0.026118202,9.669400327934763,0.16290215756837118,jump
05/08/2020, 15:25:32,-8.938213,-3.6739602,0.3281177,0.11888767,-0.10255123,0.024896473,9.669400327934763,0.15896813247162445,jump
05/08/2020, 15:25:32,-8.957374,-3.7314405,0.31135255,0.11888767,-0.10255123,0.024896473,9.708508180825325,0.15896813247162445,jump
05/08/2020, 15:25:32,-8.957374,-3.7314405,0.31135255,0.099339984,-0.10377296,0.017566092,9.708508180825325,0.14472673368664982,jump
05/08/2020, 15:25:32,-8.914263,-3.6332448,0.36164796,0.099339984,-0.10377296,0.017566092,9.633033657427346,0.14472673368664982,jump
05/08/2020, 15:25:32,-8.914263,-3.6332448,0.36164796,0.07490539,-0.10743815,0.0053487928,9.633033657427346,0.13108158600452163,jump
05/08/2020, 15:25:32,-9.031619,-3.6068995,0.28500733,0.07490539,-0.10743815,0.0053487928,9.729393415841828,0.13108158600452163,jump
05/08/2020, 15:25:32,-9.031619,-3.6068995,0.28500733,0.043140404,-0.113546796,-0.008090238,9.729393415841828,0.12173504556037038,jump
05/08/2020, 15:25:32,-8.971744,-3.63564,0.2682422,0.043140404,-0.113546796,-0.008090238,9.684111437823423,0.12173504556037038,jump
05/08/2020, 15:25:32,-8.971744,-3.63564,0.2682422,0.011375424,-0.11843372,-0.017864078,9.684111437823423,0.12031239308731224,jump
05/08/2020, 15:25:32,-8.940608,-3.6236646,0.3305127,0.011375424,-0.11843372,-0.017864078,9.652701992519097,0.12031239308731224,jump
05/08/2020, 15:25:33,2.6273365,2.560276,-2.699187,-1.3300842,2.0806804,3.9319892,4.55450558581939,4.6431555873756425,jump
05/08/2020, 15:25:33,1.6429834,2.6560767,-2.924319,-1.3300842,2.0806804,3.9319892,4.278525403769167,4.6431555873756425,jump
05/08/2020, 15:25:33,1.6429834,2.6560767,-2.924319,-1.3007627,2.3238046,4.2459736,4.278525403769167,5.012019860277604,jump
05/08/2020, 15:25:33,0.72569096,2.7590625,-3.04886,-1.3007627,2.3238046,4.2459736,4.175476158807505,5.012019860277604,jump
05/08/2020, 15:25:33,0.72569096,2.7590625,-3.04886,-1.3704013,2.5314987,4.5404105,4.175476158807505,5.376040626637152,jump
05/08/2020, 15:25:33,-0.07664063,2.811753,-3.151846,-1.3704013,2.5314987,4.5404105,4.224448093247971,5.376040626637152,jump
05/08/2020, 15:25:33,-0.07664063,2.811753,-3.151846,-1.5548825,2.729419,4.810413,4.224448093247971,5.745211904051546,jump
05/08/2020, 15:25:33,-0.89573735,2.8333082,-3.2141163,-1.5548825,2.729419,4.810413,4.377273658744441,5.745211904051546,jump
05/08/2020, 15:25:33,-0.89573735,2.8333082,-3.2141163,-1.8175545,2.9407783,5.0559807,4.377273658744441,6.124918095276171,jump
05/08/2020, 15:25:33,-1.707649,2.7638526,-3.1374757,-1.8175545,2.9407783,5.0559807,4.516492024313836,6.124918095276171,jump
05/08/2020, 15:25:33,-1.707649,2.7638526,-3.1374757,-2.1217651,3.2046719,5.2697835,4.516492024313836,6.522455605656159,jump
05/08/2020, 15:25:33,-2.4956105,2.555486,-3.168611,-2.1217651,3.2046719,5.2697835,4.774795926622563,6.522455605656159,jump
05/08/2020, 15:25:33,-2.4956105,2.555486,-3.168611,-2.4259758,3.5540867,5.432274,4.774795926622563,6.930114723973578,jump
05/08/2020, 15:25:33,-3.3650026,2.083667,-3.295547,-2.4259758,3.5540867,5.432274,5.150295247137831,6.930114723973578,jump
05/08/2020, 15:25:33,-3.3650026,2.083667,-3.295547,-2.7485125,3.9902444,5.5141296,5.150295247137831,7.340435746669318,jump
05/08/2020, 15:25:33,-4.481082,1.2693604,-3.776946,-2.7485125,3.9902444,5.5141296,5.99639000051338,7.340435746669318,jump
05/08/2020, 15:25:33,-4.481082,1.2693604,-3.776946,-3.0527234,4.485045,5.561777,5.99639000051338,7.769691959071995,jump
05/08/2020, 15:25:33,-6.085745,0.30895755,-3.6811452,-3.0527234,4.485045,5.561777,7.1191695554012275,7.769691959071995,jump
05/08/2020, 15:25:33,-6.085745,0.30895755,-3.6811452,-3.1822267,4.934642,5.593542,7.1191695554012275,8.10956039408945,jump
05/08/2020, 15:25:33,-8.224498,-1.9351759,-3.515889,-3.1822267,4.934642,5.593542,9.1514340238345,8.10956039408945,jump
05/08/2020, 15:25:34,-7.2569094,-3.6404297,-0.8382569,-0.66546303,0.042834643,0.67852205,8.161993438508611,0.9513506316097721,jump
05/08/2020, 15:25:34,-7.5179667,-3.8895118,-0.7496411,-0.66546303,0.042834643,0.67852205,8.497651913855844,0.9513506316097721,jump
05/08/2020, 15:25:34,-7.5179667,-3.8895118,-0.7496411,-0.6569109,0.124690555,0.78359085,8.497651913855844,1.0300943090006847,jump
05/08/2020, 15:25:34,-7.7359133,-4.184099,-0.6466553,-0.6569109,0.124690555,0.78359085,8.81868490321037,1.0300943090006847,jump
05/08/2020, 15:25:34,-7.7359133,-4.184099,-0.6466553,-0.61659384,0.17355977,0.8727771,8.81868490321037,1.0826129633534014,jump
05/08/2020, 15:25:34,-7.8987746,-4.5385623,-0.59156984,-0.61659384,0.17355977,0.8727771,9.12902750387908,1.0826129633534014,jump
05/08/2020, 15:25:34,-7.8987746,-4.5385623,-0.59156984,-0.5579508,0.20410301,0.95463306,9.12902750387908,1.1244071330631165,jump
05/08/2020, 15:25:34,-8.056846,-4.8163843,-0.5987549,-0.5579508,0.20410301,0.95463306,9.405786907721867,1.1244071330631165,jump
05/08/2020, 15:25:34,-8.056846,-4.8163843,-0.5987549,-0.47487313,0.22853762,1.0340455,9.405786907721867,1.1605963715272956,jump
05/08/2020, 15:25:34,-8.150251,-5.0630717,-0.65384036,-0.47487313,0.22853762,1.0340455,9.617109765269818,1.1605963715272956,jump
05/08/2020, 15:25:34,-8.150251,-5.0630717,-0.65384036,-0.3844651,0.25908086,1.1146796,9.617109765269818,1.20724763706718,jump
05/08/2020, 15:25:34,-8.171807,-5.1900077,-0.7664063,-0.3844651,0.25908086,1.1146796,9.71092131421239,1.20724763706718,jump
05/08/2020, 15:25:34,-8.171807,-5.1900077,-0.7664063,-0.27328768,0.28595892,1.1843182,9.71092131421239,1.2486265345006808,jump
05/08/2020, 15:25:34,-8.1143265,-5.2355127,-0.79993653,-0.27328768,0.28595892,1.1843182,9.689829008562043,1.2486265345006808,jump
05/08/2020, 15:25:34,-8.1143265,-5.2355127,-0.79993653,-0.16944063,0.32749772,1.2331874,9.689829008562043,1.287134856222751,jump
05/08/2020, 15:25:34,-8.200547,-5.247488,-0.7831714,-0.16944063,0.32749772,1.2331874,9.767213660261294,1.287134856222751,jump
05/08/2020, 15:25:34,-8.200547,-5.247488,-0.7831714,-0.096136816,0.40691018,1.2600654,9.767213660261294,1.32762309663426,jump
05/08/2020, 15:25:34,-8.396939,-5.1852174,-0.6179151,-0.096136816,0.40691018,1.2600654,9.88821963647026,1.32762309663426,jump
05/08/2020, 15:25:34,-8.396939,-5.1852174,-0.6179151,-0.053376265,0.49365303,1.2735045,9.88821963647026,1.3668782093732423,jump
05/08/2020, 15:25:34,-8.583751,-5.120552,-0.6562354,-0.053376265,0.49365303,1.2735045,10.016560029832778,1.3668782093732423,jump
05/08/2020, 15:25:35,-8.602911,-3.0752053,1.0825489,-0.3184917,-0.11110334,0.38164166,9.199938990068395,0.5093439578033564,jump
05/08/2020, 15:25:35,-8.643626,-3.0416749,1.1184741,-0.3184917,-0.11110334,0.38164166,9.231199509766096,0.5093439578033564,jump
05/08/2020, 15:25:35,-8.643626,-3.0416749,1.1184741,-0.29161364,-0.09033393,0.39385894,9.231199509766096,0.49832077758280613,jump
05/08/2020, 15:25:35,-8.760982,-3.0704153,1.2430152,-0.29161364,-0.09033393,0.39385894,9.366287122573905,0.49832077758280613,jump
05/08/2020, 15:25:35,-8.760982,-3.0704153,1.2430152,-0.25984865,-0.07567317,0.40607625,9.366287122573905,0.4880017158319214,jump
05/08/2020, 15:25:35,-8.832832,-3.0991554,1.3747413,-0.25984865,-0.07567317,0.40607625,9.461162990010987,0.4880017158319214,jump
05/08/2020, 15:25:35,-8.832832,-3.0991554,1.3747413,-0.2329706,-0.062234137,0.41951528,9.461162990010987,0.4838816569131481,jump
05/08/2020, 15:25:35,-8.919053,-3.0871804,1.3915064,-0.2329706,-0.062234137,0.41951528,9.540255794867933,0.4838816569131481,jump
05/08/2020, 15:25:35,-8.919053,-3.0871804,1.3915064,-0.20487079,-0.052460298,0.4329543,9.540255794867933,0.48184391589978515,jump
05/08/2020, 15:25:35,-9.002879,-3.0967603,1.4753321,-0.20487079,-0.052460298,0.4329543,9.634228665207704,0.48184391589978515,jump
05/08/2020, 15:25:35,-9.002879,-3.0967603,1.4753321,-0.1804362,-0.054903757,0.44639334,9.634228665207704,0.4846015449131418,jump
05/08/2020, 15:25:35,-9.129815,-3.1278956,1.5328126,-0.1804362,-0.054903757,0.44639334,9.771733167001782,0.4846015449131418,jump
05/08/2020, 15:25:35,-9.129815,-3.1278956,1.5328126,-0.1645537,-0.06712106,0.4561672,9.771733167001782,0.48956272704465204,jump
05/08/2020, 15:25:35,-9.201666,-3.0177248,1.5998731,-0.1645537,-0.06712106,0.4561672,9.815136853062615,0.48956272704465204,jump
05/08/2020, 15:25:35,-9.201666,-3.0177248,1.5998731,-0.16333197,-0.08300355,0.46349758,9.815136853062615,0.4983943497679712,jump
05/08/2020, 15:25:35,-9.244776,-2.9841945,1.5495777,-0.16333197,-0.08300355,0.46349758,9.83730080261235,0.4983943497679712,jump
05/08/2020, 15:25:35,-9.244776,-2.9841945,1.5495777,-0.17188409,-0.10743815,0.47204968,9.83730080261235,0.513729500101494,jump
05/08/2020, 15:25:35,-9.263936,-2.9099488,1.4585669,-0.17188409,-0.10743815,0.47204968,9.819151215224807,0.513729500101494,jump
05/08/2020, 15:25:35,-9.263936,-2.9099488,1.4585669,-0.19265349,-0.13920312,0.47571486,9.819151215224807,0.5317870869625825,jump
05/08/2020, 15:25:35,-9.211246,-2.8500733,1.4250367,-0.19265349,-0.13920312,0.47571486,9.746829837239243,0.5317870869625825,jump
05/08/2020, 15:25:36,-8.844808,-2.2896388,-0.852627,-1.3496318,-0.39576644,-0.60062927,9.176057994952103,1.529343830369014,jump
05/08/2020, 15:25:36,-9.565708,-2.44292,-1.0609937,-1.3496318,-0.39576644,-0.60062927,9.9295688807927,1.529343830369014,jump
05/08/2020, 15:25:36,-9.565708,-2.44292,-1.0609937,-1.488909,-0.42997488,-0.5737512,9.9295688807927,1.6525492069862322,jump
05/08/2020, 15:25:36,-10.068663,-2.6009912,-1.2813355,-1.488909,-0.42997488,-0.5737512,10.477831049391519,1.6525492069862322,jump
05/08/2020, 15:25:36,-10.068663,-2.6009912,-1.2813355,-1.6342949,-0.53504366,-0.5285472,10.477831049391519,1.7990424120268458,jump
05/08/2020, 15:25:36,-10.233919,-2.8428884,-1.3244458,-1.6342949,-0.53504366,-0.5285472,10.703703659605118,1.7990424120268458,jump
05/08/2020, 15:25:36,-10.233919,-2.8428884,-1.3244458,-1.7833459,-0.6474428,-0.4711259,10.703703659605118,1.9548566571856423,jump
05/08/2020, 15:25:36,-10.188414,-3.1255007,-1.2909156,-1.7833459,-0.6474428,-0.4711259,10.734942463500147,1.9548566571856423,jump
05/08/2020, 15:25:36,-10.188414,-3.1255007,-1.2909156,-1.9128494,-0.7085293,-0.41126114,10.734942463500147,2.0808994242210406,jump
05/08/2020, 15:25:36,-9.889036,-3.4368532,-1.1448194,-1.9128494,-0.7085293,-0.41126114,10.531647908399234,2.0808994242210406,jump
05/08/2020, 15:25:36,-9.889036,-3.4368532,-1.1448194,-1.9947053,-0.7109728,-0.35872674,10.531647908399234,2.1477933996382177,jump
05/08/2020, 15:25:36,-9.594449,-3.7170706,-0.83586186,-1.9947053,-0.7109728,-0.35872674,10.323213220167101,2.1477933996382177,jump
05/08/2020, 15:25:36,-9.594449,-3.7170706,-0.83586186,-2.0203614,-0.6718774,-0.3159662,10.323213220167101,2.1524669877722897,jump
05/08/2020, 15:25:36,-9.323812,-3.9493873,-0.5628296,-2.0203614,-0.6718774,-0.3159662,10.141395307381229,2.1524669877722897,jump
05/08/2020, 15:25:36,-9.323812,-3.9493873,-0.5628296,-1.9861532,-0.6095692,-0.27687082,10.141395307381229,2.0959572422985007,jump
05/08/2020, 15:25:36,-9.15616,-4.1050634,-0.3784131,-1.9861532,-0.6095692,-0.27687082,10.041414977749943,2.0959572422985007,jump
05/08/2020, 15:25:36,-9.15616,-4.1050634,-0.3784131,-1.8957452,-0.5374871,-0.24999279,10.041414977749943,1.9862624374225668,jump
05/08/2020, 15:25:36,-8.966953,-4.1553593,-0.1341211,-1.8957452,-0.5374871,-0.24999279,9.88388841504145,1.9862624374225668,jump
05/08/2020, 15:25:36,-8.966953,-4.1553593,-0.1341211,-1.7601331,-0.4666268,-0.2304451,9.88388841504145,1.8354602161484437,jump
05/08/2020, 15:25:36,-8.722662,-4.191284,-0.016765138,-1.7601331,-0.4666268,-0.2304451,9.677395105261075,1.8354602161484437,jump
05/08/2020, 15:25:37,-8.787327,-3.9326222,0.57959473,0.20685223,-0.15508561,0.09331335,9.644612998435042,0.2748577294675423,jump
05/08/2020, 15:25:37,-8.732242,-4.009263,0.57719976,0.20685223,-0.15508561,0.09331335,9.625974941113547,0.2748577294675423,jump
05/08/2020, 15:25:37,-8.732242,-4.009263,0.57719976,0.23739548,-0.16852464,0.08842643,9.625974941113547,0.30426370429126787,jump
05/08/2020, 15:25:37,-8.763377,-4.102669,0.6346802,0.23739548,-0.16852464,0.08842643,9.696983536706224,0.30426370429126787,jump
05/08/2020, 15:25:37,-8.763377,-4.102669,0.6346802,0.30947754,-0.1587508,0.095756814,9.696983536706224,0.36075965832611573,jump
05/08/2020, 15:25:37,-8.907078,-4.150569,0.7065308,0.30947754,-0.1587508,0.095756814,9.852027366918898,0.36075965832611573,jump
05/08/2020, 15:25:37,-8.907078,-4.150569,0.7065308,0.3974421,-0.11843372,0.12141314,9.852027366918898,0.4321202634313977,jump
05/08/2020, 15:25:37,-9.189691,-4.1793094,0.80712163,0.3974421,-0.11843372,0.12141314,10.127610047074503,0.4321202634313977,jump
05/08/2020, 15:25:37,-9.189691,-4.1793094,0.80712163,0.48418495,-0.05979068,0.16173023,10.127610047074503,0.5139714572240653,jump
05/08/2020, 15:25:37,-9.592053,-4.129014,0.8310718,0.48418495,-0.05979068,0.16173023,10.47601669289835,0.5139714572240653,jump
05/08/2020, 15:25:37,-9.592053,-4.129014,0.8310718,0.55748874,-0.023138775,0.20815597,10.47601669289835,0.5955317013972957,jump
05/08/2020, 15:25:37,-10.140513,-4.1625443,0.7496411,0.55748874,-0.023138775,0.20815597,10.987208420251592,0.5955317013972957,jump
05/08/2020, 15:25:37,-10.140513,-4.1625443,0.7496411,0.6051362,-0.023138775,0.2606904,10.987208420251592,0.659306243271491,jump
05/08/2020, 15:25:37,-10.672208,-4.1242237,0.71371585,0.6051362,-0.023138775,0.2606904,11.463622094946494,0.659306243271491,jump
05/08/2020, 15:25:37,-10.672208,-4.1242237,0.71371585,0.62590563,-0.056125488,0.32055515,11.463622094946494,0.7054527172836115,jump
05/08/2020, 15:25:37,-11.208692,-4.126619,0.5604346,0.62590563,-0.056125488,0.32055515,11.957334045182453,0.7054527172836115,jump
05/08/2020, 15:25:37,-11.208692,-4.126619,0.5604346,0.59780586,-0.10499469,0.37797648,11.957334045182453,0.7150258359356136,jump
05/08/2020, 15:25:37,-11.625425,-3.9757326,0.24189699,0.59780586,-0.10499469,0.37797648,12.288835497590984,0.7150258359356136,jump
05/08/2020, 15:25:37,-11.625425,-3.9757326,0.24189699,0.52083683,-0.16485946,0.42562392,12.288835497590984,0.6925354641289363,jump
05/08/2020, 15:25:37,-11.891273,-3.7242556,-0.06466553,0.52083683,-0.16485946,0.42562392,12.461004127164417,0.6925354641289363,jump
05/08/2020, 15:25:38,-12.279265,-7.575447,6.3635674,-1.3398579,0.73311216,-0.9146139,15.769043940674374,1.7802222650639625,jump
05/08/2020, 15:25:38,-14.715,-11.206297,6.8521514,-1.3398579,0.73311216,-0.9146139,19.7247128975825,1.7802222650639625,jump
05/08/2020, 15:25:38,-14.715,-11.206297,6.8521514,-1.0857382,0.833294,-1.3544368,19.7247128975825,1.925540228495414,jump
05/08/2020, 15:25:38,-18.362616,-15.946041,6.7803006,-1.0857382,0.833294,-1.3544368,25.24746233953323,1.925540228495414,jump
05/08/2020, 15:25:38,-18.362616,-15.946041,6.7803006,-0.6239242,0.8064159,-1.8504592,25.24746233953323,2.112767698634081,jump
05/08/2020, 15:25:38,-23.636448,-20.23073,5.733677,-0.6239242,0.8064159,-1.8504592,31.63604209092647,2.112767698634081,jump
05/08/2020, 15:25:38,-23.636448,-20.23073,5.733677,0.052914247,0.5657351,-2.3513684,31.63604209092647,2.4190472512159347,jump
05/08/2020, 15:25:38,-30.229939,-22.52037,4.3373804,0.052914247,0.5657351,-2.3513684,37.9450805463084,2.4190472512159347,jump
05/08/2020, 15:25:38,-30.229939,-22.52037,4.3373804,0.6417881,-0.14897697,-2.9695637,37.9450805463084,3.041774948398191,jump
05/08/2020, 15:25:38,-35.276245,-21.794678,2.7901978,0.6417881,-0.14897697,-2.9695637,41.559675782556916,3.041774948398191,jump
05/08/2020, 15:25:38,-35.276245,-21.794678,2.7901978,0.88735586,-1.3841461,-3.8748658,41.559675782556916,4.209257129000333,jump
05/08/2020, 15:25:38,-36.48573,-18.83683,2.9410841,0.88735586,-1.3841461,-3.8748658,41.16654688194329,4.209257129000333,jump
05/08/2020, 15:25:38,-36.48573,-18.83683,2.9410841,0.95332927,-2.547233,-4.868132,41.16654688194329,5.576373683747605,jump
05/08/2020, 15:25:38,-34.38051,-16.753162,4.4595265,0.95332927,-2.547233,-4.868132,38.50422296619229,5.576373683747605,jump
05/08/2020, 15:25:38,-34.38051,-16.753162,4.4595265,0.845817,-3.2118542,-5.7978687,38.50422296619229,6.68181829809669,jump
05/08/2020, 15:25:38,-32.011833,-16.458574,6.100115,0.845817,-3.2118542,-5.7978687,36.508266638049975,6.68181829809669,jump
05/08/2020, 15:25:38,-32.011833,-16.458574,6.100115,0.8971297,-3.3719008,-6.524798,36.508266638049975,7.399158368267788,jump
05/08/2020, 15:25:38,-29.731773,-18.149458,7.9538603,0.8971297,-3.3719008,-6.524798,35.73017023073479,7.399158368267788,jump
05/08/2020, 15:25:38,-29.731773,-18.149458,7.9538603,1.4334692,-3.2643886,-7.0660243,35.73017023073479,7.914528792982214,jump
05/08/2020, 15:25:38,-27.030191,-19.363733,8.066426,1.4334692,-3.2643886,-7.0660243,34.21480159459498,7.914528792982214,jump
05/08/2020, 15:25:39,-11.500884,-0.9364527,-1.6381935,1.0742805,-1.5331972,-0.34773117,11.65465381771451,1.90412423639003,jump
05/08/2020, 15:25:39,-10.703342,-0.3879932,-1.8154249,1.0742805,-1.5331972,-0.34773117,10.863141612330304,1.90412423639003,jump
05/08/2020, 15:25:39,-10.703342,-0.3879932,-1.8154249,0.41454634,-1.633379,-0.6067379,10.863141612330304,1.7910629421387951,jump
05/08/2020, 15:25:39,-10.111773,-0.09101075,-1.6429834,0.41454634,-1.633379,-0.6067379,10.244785081888953,1.7910629421387951,jump
05/08/2020, 15:25:39,-10.111773,-0.09101075,-1.6429834,-0.20487079,-1.5820663,-0.8816272,10.244785081888953,1.822682729891573,jump
05/08/2020, 15:25:39,-10.061478,0.009580079,-1.4705421,-0.20487079,-1.5820663,-0.8816272,10.168378361006106,1.822682729891573,jump
05/08/2020, 15:25:39,-10.061478,0.009580079,-1.4705421,-0.7754187,-1.4452325,-1.1785077,10.168378361006106,2.0196166797665698,jump
05/08/2020, 15:25:39,-10.511742,-0.045505375,-1.5687379,-0.7754187,-1.4452325,-1.1785077,10.628251102347214,2.0196166797665698,jump
05/08/2020, 15:25:39,-10.511742,-0.045505375,-1.5687379,-1.281215,-1.3682636,-1.4912705,10.628251102347214,2.3953172795183675,jump
05/08/2020, 15:25:39,-11.122471,-0.22752686,-1.8920655,-1.281215,-1.3682636,-1.4912705,11.284548655511204,2.3953172795183675,jump
05/08/2020, 15:25:39,-11.122471,-0.22752686,-1.8920655,-1.6953814,-1.4647802,-1.7967031,11.284548655511204,2.871940319656784,jump
05/08/2020, 15:25:39,-11.56076,-0.54366946,-2.196233,-1.6953814,-1.4647802,-1.7967031,11.780075435546049,2.871940319656784,jump
05/08/2020, 15:25:39,-11.56076,-0.54366946,-2.196233,-2.0191398,-1.6810265,-2.0508227,11.780075435546049,3.3329640325291834,jump
05/08/2020, 15:25:39,-11.57992,-0.90771246,-2.2680836,-2.0191398,-1.6810265,-2.0508227,11.834808318003413,3.3329640325291834,jump
05/08/2020, 15:25:39,-11.57992,-0.90771246,-2.2680836,-2.2744813,-1.872838,-2.2279737,11.834808318003413,3.6938671097719795,jump
