DATE,TIME,ax,ay,az,gx,gy,gz,ma,mg,label
05/08/2020, 15:22:31,-1.4489869,-0.51013917,9.754915,0.13354842,0.025730425,-0.047185596,9.875129176917213,0.14395734344633315,jump
05/08/2020, 15:22:31,-1.4058765,-0.38559815,9.644744,0.13354842,0.025730425,-0.047185596,9.754294438228689,0.14395734344633315,jump
05/08/2020, 15:22:31,-1.4058765,-0.38559815,9.644744,0.09445307,0.030617347,-0.039855216,9.754294438228689,0.10699178446346025,jump
05/08/2020, 15:22:31,-1.4058765,-0.2778223,9.687855,0.09445307,0.030617347,-0.039855216,9.793273405144797,0.10699178446346025,jump
05/08/2020, 15:22:31,-1.4058765,-0.2778223,9.687855,0.045583867,0.034282535,-0.033746567,9.793273405144797,0.06627225569492176,jump
05/08/2020, 15:22:31,-1.3627661,-0.32332766,9.592053,0.045583867,0.034282535,-0.033746567,9.69376918602428,0.06627225569492176,jump
05/08/2020, 15:22:31,-1.3627661,-0.32332766,9.592053,0.0016015843,0.044056375,-0.03619003,9.69376918602428,0.05703724598161927,jump
05/08/2020, 15:22:31,-1.3483961,-0.51013917,9.524993,0.0016015843,0.044056375,-0.03619003,9.633478316419044,0.05703724598161927,jump
05/08/2020, 15:22:31,-1.3483961,-0.51013917,9.524993,-0.022833018,0.048943296,-0.037411757,9.633478316419044,0.06569956219600279,jump
05/08/2020, 15:22:31,-1.3483961,-0.51013917,9.524993,-0.026498208,0.045278106,-0.02763792,9.633478316419044,0.059296850503952114,jump
05/08/2020, 15:22:31,-1.4058765,-0.69216067,9.575289,-0.026498208,0.045278106,-0.02763792,9.702666141209864,0.059296850503952114,jump
05/08/2020, 15:22:31,-1.4753321,-0.80233157,9.6615095,-0.026498208,0.045278106,-0.02763792,9.806380930570164,0.059296850503952114,jump
05/08/2020, 15:22:31,-1.4753321,-0.80233157,9.6615095,-0.015502637,0.050165024,-0.010533698,9.806380930570164,0.05355203218893901,jump
05/08/2020, 15:22:31,-1.468147,-0.852627,9.764495,-0.015502637,0.050165024,-0.010533698,9.910993344160694,0.05355203218893901,jump
05/08/2020, 15:22:31,-1.468147,-0.852627,9.764495,-8.418765E-4,0.062382326,-0.0032033178,9.910993344160694,0.0624701892042105,jump
05/08/2020, 15:22:31,-1.4274317,-0.8765772,9.72857,-8.418765E-4,0.062382326,-0.0032033178,9.871728460236149,0.0624701892042105,jump
05/08/2020, 15:22:31,-1.4274317,-0.8765772,9.72857,0.004045044,0.07093444,-0.004425048,9.871728460236149,0.07118734307086151,jump
05/08/2020, 15:22:31,-1.4968873,-0.9388477,9.419612,0.004045044,0.07093444,-0.004425048,9.583902943881313,0.07118734307086151,jump
05/08/2020, 15:22:31,-1.4968873,-0.9388477,9.419612,-0.031385124,0.17355977,-0.008090238,9.583902943881313,0.17656010790135926,jump
05/08/2020, 15:22:31,-1.954336,-1.1759547,9.630374,-0.031385124,0.17355977,-0.008090238,9.896787425693333,0.17656010790135926,jump
05/08/2020, 15:22:32,1.6813037,-3.3841627,8.770562,-0.9843346,-1.4525629,-1.0673302,9.549979058386594,2.0537885688163273,jump
05/08/2020, 15:22:32,1.0777588,-3.2620168,12.068504,-0.9843346,-1.4525629,-1.0673302,12.54795259330419,2.0537885688163273,jump
05/08/2020, 15:22:32,1.0777588,-3.2620168,12.068504,-1.0930685,-1.4818845,-1.172399,12.54795259330419,2.1829566720741695,jump
05/08/2020, 15:22:32,0.7161109,-3.2069314,10.918895,-1.0930685,-1.4818845,-1.172399,11.402608756317635,2.1829566720741695,jump
05/08/2020, 15:22:32,0.7161109,-3.2069314,10.918895,-1.2555586,-1.4684454,-1.2249334,11.402608756317635,2.2876234775671014,jump
05/08/2020, 15:22:32,0.39517823,-2.9650342,9.3453665,-1.2555586,-1.4684454,-1.2249334,9.812414000767545,2.2876234775671014,jump
05/08/2020, 15:22:32,0.39517823,-2.9650342,9.3453665,-1.4876873,-1.4159111,-1.2371507,9.812414000767545,2.3976154006555466,jump
05/08/2020, 15:22:32,0.9436377,-2.8836036,9.1130495,-1.4876873,-1.4159111,-1.2371507,9.60485778384778,2.3976154006555466,jump
05/08/2020, 15:22:32,0.9436377,-2.8836036,9.1130495,-1.7796808,-1.3670418,-1.217603,9.60485778384778,2.553159662867008,jump
05/08/2020, 15:22:32,1.0466236,-2.6608667,8.717872,-1.7796808,-1.3670418,-1.217603,9.174798042039471,2.553159662867008,jump
05/08/2020, 15:22:32,1.0466236,-2.6608667,8.717872,-2.068009,-1.3316116,-1.2029423,9.174798042039471,2.7380504767376697,jump
05/08/2020, 15:22:32,1.4394068,-2.3543043,8.234077,-2.068009,-1.3316116,-1.2029423,8.68416214224552,2.7380504767376697,jump
05/08/2020, 15:22:32,1.4394068,-2.3543043,8.234077,-2.3636677,-1.2839642,-1.2298203,8.68416214224552,2.9576928388557926,jump
05/08/2020, 15:22:32,1.8705103,-2.1363575,8.167017,-2.3636677,-1.2839642,-1.2298203,8.64655994577735,2.9576928388557926,jump
05/08/2020, 15:22:32,1.8705103,-2.1363575,8.167017,-2.6031268,-1.2265428,-1.3385543,8.64655994577735,3.1737050558102586,jump
05/08/2020, 15:22:32,2.2345533,-2.4980054,8.023315,-2.6031268,-1.2265428,-1.3385543,8.695219952933805,3.1737050558102586,jump
05/08/2020, 15:22:32,2.2345533,-2.4980054,8.023315,-2.6862044,-1.2094387,-1.5181485,8.695219952933805,3.3140928135318686,jump
05/08/2020, 15:22:32,2.435735,-3.7122805,7.692803,-2.6862044,-1.2094387,-1.5181485,8.882175863941523,3.3140928135318686,jump
05/08/2020, 15:22:32,2.435735,-3.7122805,7.692803,-2.6251178,-1.2106605,-1.692856,8.882175863941523,3.350030354735522,jump
05/08/2020, 15:22:32,2.574646,-5.1780324,7.592212,-2.6251178,-1.2106605,-1.692856,9.543715608429919,3.350030354735522,jump
05/08/2020, 15:22:33,2.1650977,-4.7157936,8.270002,-0.042380698,-0.002369365,-0.025194459,9.763160174675146,0.04936089750751103,jump
05/08/2020, 15:22:33,2.1746778,-4.749324,8.310719,-0.042380698,-0.002369365,-0.025194459,9.815973885501004,0.04936089750751103,jump
05/08/2020, 15:22:33,2.1746778,-4.749324,8.310719,-0.041158967,-0.003591095,-0.019085808,9.815973885501004,0.04551070821258078,jump
05/08/2020, 15:22:33,2.1818628,-4.8115945,8.47837,-0.041158967,-0.003591095,-0.019085808,9.98973072215726,0.04551070821258078,jump
05/08/2020, 15:22:33,2.1818628,-4.8115945,8.47837,-0.009393986,-0.0011476349,-0.016642349,9.98973072215726,0.01914502075617623,jump
05/08/2020, 15:22:33,2.193838,-4.8906302,8.557405,-0.009393986,-0.0011476349,-0.016642349,10.097543129527647,0.01914502075617623,jump
05/08/2020, 15:22:33,2.193838,-4.8906302,8.557405,0.035810024,-0.004812825,-0.014198888,10.097543129527647,0.03882176572489314,jump
05/08/2020, 15:22:33,2.1195924,-4.9073954,8.689131,0.035810024,-0.004812825,-0.014198888,10.201774114072606,0.03882176572489314,jump
05/08/2020, 15:22:33,2.1195924,-4.9073954,8.689131,0.07734884,-0.006034555,-0.005646778,10.201774114072606,0.0777891091321663,jump
05/08/2020, 15:22:33,2.1531227,-4.8523097,8.693921,0.07734884,-0.006034555,-0.005646778,10.186516115467404,0.0777891091321663,jump
05/08/2020, 15:22:33,2.1531227,-4.8523097,8.693921,0.107892096,-0.008478015,-0.0019815876,10.186516115467404,0.10824281875352669,jump
05/08/2020, 15:22:33,2.1076174,-4.775669,8.641231,0.107892096,-0.008478015,-0.0019815876,10.095540220193884,0.10824281875352669,jump
05/08/2020, 15:22:33,2.1076174,-4.775669,8.641231,0.114000745,-0.012143205,0.0053487928,10.095540220193884,0.11477036593632367,jump
05/08/2020, 15:22:33,2.1531227,-4.737349,8.528665,0.114000745,-0.012143205,0.0053487928,9.990822425523483,0.11477036593632367,jump
05/08/2020, 15:22:33,2.1531227,-4.737349,8.528665,0.10422691,-0.021917045,0.017566092,9.990822425523483,0.10794523215922737,jump
05/08/2020, 15:22:33,2.1004322,-4.679868,8.435259,0.10422691,-0.021917045,0.017566092,9.872516089755335,0.10794523215922737,jump
05/08/2020, 15:22:33,2.1004322,-4.679868,8.435259,0.09200961,-0.036577806,0.032226853,9.872516089755335,0.1041262432665916,jump
05/08/2020, 15:22:33,2.1100123,-4.5960426,8.351434,0.09200961,-0.036577806,0.032226853,9.76330914740524,0.1041262432665916,jump
05/08/2020, 15:22:33,2.1100123,-4.5960426,8.351434,0.05413598,-0.05001684,0.034670316,9.76330914740524,0.08145194360398637,jump
05/08/2020, 15:22:33,2.1483326,-4.598438,8.322693,0.05413598,-0.05001684,0.034670316,9.74823982273175,0.08145194360398637,jump
05/08/2020, 15:22:34,-8.533455,-3.6883302,2.2393434,3.0241618,2.7538536,1.2368526,9.562337099188355,4.273063138070685,jump
05/08/2020, 15:22:34,-8.842413,-3.1350808,2.4045997,3.0241618,2.7538536,1.2368526,9.684993444648606,4.273063138070685,jump
05/08/2020, 15:22:34,-8.842413,-3.1350808,2.4045997,2.6576428,2.6671107,1.1721009,9.684993444648606,3.9433951594042655,jump
05/08/2020, 15:22:34,-9.10347,-2.703977,2.7327175,2.6576428,2.6671107,1.1721009,9.881922914954078,3.9433951594042655,jump
05/08/2020, 15:22:34,-9.10347,-2.703977,2.7327175,2.3387713,2.5730374,1.0780277,9.881922914954078,3.640400604563965,jump
05/08/2020, 15:22:34,-9.333391,-2.4045997,3.0728102,2.3387713,2.5730374,1.0780277,10.11614813126697,3.640400604563965,jump
05/08/2020, 15:22:34,-9.333391,-2.4045997,3.0728102,2.0760994,2.5058424,0.95952,10.11614813126697,3.3926558428673688,jump
05/08/2020, 15:22:34,-9.620794,-2.2465284,3.4631984,2.0760994,2.5058424,0.95952,10.469016955029208,3.3926558428673688,jump
05/08/2020, 15:22:34,-9.620794,-2.2465284,3.4631984,1.8757354,2.4594166,0.8410121,10.469016955029208,3.205372807433238,jump
05/08/2020, 15:22:34,-9.946517,-2.0980372,3.8751419,1.8757354,2.4594166,0.8410121,10.878956059561421,3.205372807433238,jump
05/08/2020, 15:22:34,-9.946517,-2.0980372,3.8751419,1.7242409,2.4142127,0.72983474,10.878956059561421,3.055174037235462,jump
05/08/2020, 15:22:34,-10.212363,-2.0237916,4.184099,1.7242409,2.4142127,0.72983474,11.220284370146286,3.055174037235462,jump
05/08/2020, 15:22:34,-10.212363,-2.0237916,4.184099,1.5898507,2.3299131,0.62843114,11.220284370146286,2.8898176535204954,jump
05/08/2020, 15:22:34,-10.454261,-1.9303858,4.3373804,1.5898507,2.3299131,0.62843114,11.481760652436297,2.8898176535204954,jump
05/08/2020, 15:22:34,-10.454261,-1.9303858,4.3373804,1.4493517,2.185749,0.54413176,11.481760652436297,2.67846944226336,jump
05/08/2020, 15:22:34,-10.5764065,-1.8848804,4.4331813,1.4493517,2.185749,0.54413176,11.621800399717891,2.67846944226336,jump
05/08/2020, 15:22:34,-10.5764065,-1.8848804,4.4331813,1.2929702,1.9939375,0.47938004,11.621800399717891,2.4243275016441546,jump
05/08/2020, 15:22:34,-10.633887,-1.7986598,4.526587,1.2929702,1.9939375,0.47938004,11.696355242216987,2.4243275016441546,jump
05/08/2020, 15:22:34,-10.633887,-1.7986598,4.526587,1.1097107,1.7886869,0.4317326,11.696355242216987,2.148779090761042,jump
05/08/2020, 15:22:34,-10.631493,-1.7148341,4.528982,1.1097107,1.7886869,0.4317326,11.682507034687829,2.148779090761042,jump
05/08/2020, 15:22:35,-8.495134,-3.1231055,3.9469924,-0.23785752,0.022065235,-0.06917674,9.874200970058919,0.24869357891432708,jump
05/08/2020, 15:22:35,-8.475974,-3.1326857,3.999683,-0.23785752,0.022065235,-0.06917674,9.881969410713054,0.24869357891432708,jump
05/08/2020, 15:22:35,-8.475974,-3.1326857,3.999683,-0.18287966,-0.002369365,-0.059402898,9.881969410713054,0.19229999208702483,jump
05/08/2020, 15:22:35,-8.413704,-3.0991554,4.0499783,-0.18287966,-0.002369365,-0.059402898,9.838572145287234,0.19229999208702483,jump
05/08/2020, 15:22:35,-8.413704,-3.0991554,4.0499783,-0.124236606,-0.012143205,-0.052072518,9.838572145287234,0.1352543485359203,jump
05/08/2020, 15:22:35,-8.349038,-3.0895753,4.1002736,-0.124236606,-0.012143205,-0.052072518,9.801232409456539,0.1352543485359203,jump
05/08/2020, 15:22:35,-8.349038,-3.0895753,4.1002736,-0.075367406,-0.006034555,-0.04596387,9.801232409456539,0.08848355185655538,jump
05/08/2020, 15:22:35,-8.341853,-3.0871804,4.160149,-0.075367406,-0.006034555,-0.04596387,9.81957417744483,0.08848355185655538,jump
05/08/2020, 15:22:35,-8.341853,-3.0871804,4.160149,-0.038715504,0.011069666,-0.04596387,9.81957417744483,0.06110732332335539,jump
05/08/2020, 15:22:35,-8.425679,-2.9913795,4.0859036,-0.038715504,0.011069666,-0.04596387,9.830311795614564,0.06110732332335539,jump
05/08/2020, 15:22:35,-8.425679,-2.9913795,4.0859036,-0.017946096,0.023286967,-0.044742137,9.830311795614564,0.0535369407136495,jump
05/08/2020, 15:22:35,-8.473579,-2.924319,3.9829175,-0.017946096,0.023286967,-0.044742137,9.809017378556286,0.0535369407136495,jump
05/08/2020, 15:22:35,-8.473579,-2.924319,3.9829175,-0.005728796,0.019621776,-0.044742137,9.809017378556286,0.049190365473824244,jump
05/08/2020, 15:22:35,-8.519085,-2.8979738,3.9422023,-0.005728796,0.019621776,-0.044742137,9.824154888085067,0.049190365473824244,jump
05/08/2020, 15:22:35,-8.519085,-2.8979738,3.9422023,-0.0032853354,-0.002369365,-0.043520406,9.824154888085067,0.043708500861271954,jump
05/08/2020, 15:22:35,-8.514295,-2.8093581,3.8416114,-0.0032853354,-0.002369365,-0.043520406,9.754162395208418,0.043708500861271954,jump
05/08/2020, 15:22:35,-8.514295,-2.8093581,3.8416114,-0.0045070667,-0.030469155,-0.043520406,9.754162395208418,0.05331705901004645,jump
05/08/2020, 15:22:35,-8.499925,-2.8285182,3.8535867,-0.0045070667,-0.030469155,-0.043520406,9.751890299352388,0.05331705901004645,jump
05/08/2020, 15:22:35,-8.499925,-2.8285182,3.8535867,-0.009393986,-0.04635165,-0.04229868,9.751890299352388,0.06344998438332705,jump
05/08/2020, 15:22:35,-8.480764,-2.816543,3.8607717,-0.009393986,-0.04635165,-0.04229868,9.734569196905614,0.06344998438332705,jump
05/08/2020, 15:22:36,-8.200547,-3.0368848,3.3506324,-0.024054745,-0.017030125,-0.021529268,9.364741403293761,0.03649884028594977,jump
05/08/2020, 15:22:36,-8.178992,-2.9961696,3.3386574,-0.024054745,-0.017030125,-0.021529268,9.328428578609751,0.03649884028594977,jump
05/08/2020, 15:22:36,-8.178992,-2.9961696,3.3386574,0.012597155,0.0012958252,-0.010533698,9.328428578609751,0.016471984223509775,jump
05/08/2020, 15:22:36,-8.169412,-3.0129347,3.3123121,0.012597155,0.0012958252,-0.010533698,9.316033162984812,0.016471984223509775,jump
05/08/2020, 15:22:36,-8.169412,-3.0129347,3.3123121,0.041918673,0.020843506,-0.0019815876,9.316033162984812,0.04685673420451675,jump
05/08/2020, 15:22:36,-8.133487,-2.9794044,3.2811768,0.041918673,0.020843506,-0.0019815876,9.262644264900572,0.04685673420451675,jump
05/08/2020, 15:22:36,-8.133487,-2.9794044,3.2811768,0.065131545,0.044056375,0.0077922526,9.262644264900572,0.07901772904982726,jump
05/08/2020, 15:22:36,-8.116721,-2.9650342,3.2141163,0.065131545,0.044056375,0.0077922526,9.219714430324021,0.07901772904982726,jump
05/08/2020, 15:22:36,-8.116721,-2.9650342,3.2141163,0.085900955,0.06604751,0.023674743,9.219714430324021,0.11091321545139414,jump
05/08/2020, 15:22:36,-8.135881,-2.9746144,3.2093263,0.085900955,0.06604751,0.023674743,9.238001534668792,0.11091321545139414,jump
05/08/2020, 15:22:36,-8.135881,-2.9746144,3.2093263,0.09689653,0.09292558,0.034670316,9.238001534668792,0.13865832565290975,jump
05/08/2020, 15:22:36,-8.214917,-2.943479,3.2428565,0.09689653,0.09292558,0.034670316,9.309406619198926,0.13865832565290975,jump
05/08/2020, 15:22:36,-8.214917,-2.943479,3.2428565,0.0956748,0.12713403,0.040778965,9.309406619198926,0.16425483632407703,jump
05/08/2020, 15:22:36,-8.291558,-2.9530592,3.2524366,0.0956748,0.12713403,0.040778965,9.383434401888742,0.16425483632407703,jump
05/08/2020, 15:22:36,-8.291558,-2.9530592,3.2524366,0.08467923,0.15889901,0.040778965,9.383434401888742,0.1846141686629361,jump
05/08/2020, 15:22:36,-8.394544,-3.0249097,3.2236965,0.08467923,0.15889901,0.040778965,9.487394842097645,0.1846141686629361,jump
05/08/2020, 15:22:36,-8.394544,-3.0249097,3.2236965,0.079792306,0.17233804,0.040778965,9.487394842097645,0.19424246603928116,jump
05/08/2020, 15:22:36,-8.447234,-3.1470559,3.2141163,0.079792306,0.17233804,0.040778965,9.570280522317379,0.19424246603928116,jump
05/08/2020, 15:22:36,-8.447234,-3.1470559,3.2141163,0.078570575,0.16012074,0.037113775,9.570280522317379,0.18217963385677605,jump
05/08/2020, 15:22:36,-8.4448395,-3.2332766,3.3506324,0.078570575,0.16012074,0.037113775,9.643450061303371,0.18217963385677605,jump
05/08/2020, 15:22:37,-18.434465,1.334026,5.611531,1.6973629,2.8186052,-0.80343646,19.31575569081562,3.3868991927975607,jump
05/08/2020, 15:22:37,-17.881216,2.5291407,5.1828227,1.6973629,2.8186052,-0.80343646,18.78819020867926,3.3868991927975607,jump
05/08/2020, 15:22:37,-17.881216,2.5291407,5.1828227,0.9301164,2.2199576,-0.896288,18.78819020867926,2.568396462058524,jump
05/08/2020, 15:22:37,-17.03817,3.2141163,4.9337406,0.9301164,2.2199576,-0.896288,18.026967922688375,2.568396462058524,jump
05/08/2020, 15:22:37,-17.03817,3.2141163,4.9337406,0.21540433,1.701944,-1.0001351,18.026967922688375,1.9857700093022712,jump
05/08/2020, 15:22:37,-16.238234,3.5063088,4.9624805,0.21540433,1.701944,-1.0001351,17.337838500579338,1.9857700093022712,jump
05/08/2020, 15:22:37,-16.238234,3.5063088,4.9624805,-0.4003476,1.2706733,-1.0697737,17.337838500579338,1.708597225377443,jump
05/08/2020, 15:22:37,-15.397581,3.6404297,5.199588,-0.4003476,1.2706733,-1.0697737,16.65454730457875,1.708597225377443,jump
05/08/2020, 15:22:37,-15.397581,3.6404297,5.199588,-0.9122525,0.88338494,-1.1076473,16.65454730457875,1.685068573077962,jump
05/08/2020, 15:22:37,-14.461128,3.558999,5.326524,-0.9122525,0.88338494,-1.1076473,15.816528055587595,1.685068573077962,jump
05/08/2020, 15:22:37,-14.461128,3.558999,5.326524,-1.3704013,0.5180876,-1.1442991,15.816528055587595,1.8589876152245328,jump
05/08/2020, 15:22:37,-13.404925,3.539839,5.3480787,-1.3704013,0.5180876,-1.1442991,14.86016251503427,1.8589876152245328,jump
05/08/2020, 15:22:37,-13.404925,3.539839,5.3480787,-1.8041154,0.1869988,-1.1882815,14.86016251503427,2.168366663943702,jump
05/08/2020, 15:22:37,-12.396622,3.3841627,5.333709,-1.8041154,0.1869988,-1.1882815,13.913203649182392,2.168366663943702,jump
05/08/2020, 15:22:37,-12.396622,3.3841627,5.333709,-2.235386,-0.09399912,-1.2188247,13.913203649182392,2.5478068391867548,jump
05/08/2020, 15:22:37,-11.486514,3.276387,5.2810183,-2.235386,-0.09399912,-1.2188247,13.060010391434755,2.5478068391867548,jump
05/08/2020, 15:22:37,-11.486514,3.276387,5.2810183,-2.6727653,-0.3053584,-1.2066075,13.060010391434755,2.948358769140163,jump
05/08/2020, 15:22:37,-10.609937,3.04407,5.130132,-2.6727653,-0.3053584,-1.2066075,12.171909285276566,2.948358769140163,jump
05/08/2020, 15:22:37,-10.609937,3.04407,5.130132,-3.1199186,-0.46173987,-1.1565166,12.171909285276566,3.3592597721140347,jump
05/08/2020, 15:22:37,-9.867481,2.7231374,4.9002104,-3.1199186,-0.46173987,-1.1565166,11.348776357593257,3.3592597721140347,jump
05/08/2020, 15:22:38,-8.281978,-1.9447559,4.287085,0.29115158,0.111251526,-0.12781978,9.526401612870908,0.3368739253999028,jump
05/08/2020, 15:22:38,-8.281978,-1.9447559,4.287085,0.15065265,0.09536903,-0.14614573,9.526401612870908,0.23054294037867393,jump
05/08/2020, 15:22:38,-8.375383,-1.9711012,4.3637257,0.15065265,0.09536903,-0.14614573,9.647506837009804,0.23054294037867393,jump
05/08/2020, 15:22:38,-8.375383,-1.9711012,4.3637257,0.024814455,0.081930004,-0.15836303,9.647506837009804,0.18001980947266513,jump
05/08/2020, 15:22:38,-8.47837,-2.0860622,4.481082,0.024814455,0.081930004,-0.15836303,9.813995313609636,0.18001980947266513,jump
05/08/2020, 15:22:38,-8.47837,-2.0860622,4.481082,-0.08391952,0.057495404,-0.15836303,9.813995313609636,0.18822076400802482,jump
05/08/2020, 15:22:38,-8.674761,-2.1818628,4.567302,-0.08391952,0.057495404,-0.15836303,10.043517825175075,0.18822076400802482,jump
05/08/2020, 15:22:38,-8.674761,-2.1818628,4.567302,-0.14989294,0.0135131255,-0.122932866,10.043517825175075,0.19432701292670607,jump
05/08/2020, 15:22:38,-8.770562,-2.198628,4.519402,-0.14989294,0.0135131255,-0.122932866,10.108497432937112,0.19432701292670607,jump
05/08/2020, 15:22:38,-8.770562,-2.198628,4.519402,-0.17799273,-0.06589933,-0.09238961,10.108497432937112,0.21109233624429238,jump
05/08/2020, 15:22:38,-8.641231,-2.3016138,4.5313773,-0.17799273,-0.06589933,-0.09238961,10.025052243613974,0.21109233624429238,jump
05/08/2020, 15:22:38,-8.641231,-2.3016138,4.5313773,-0.20975772,-0.15386388,-0.10460691,10.025052243613974,0.2803836617953994,jump
05/08/2020, 15:22:38,-8.502319,-2.4141798,4.4379716,-0.20975772,-0.15386388,-0.10460691,9.890060164493775,0.2803836617953994,jump
05/08/2020, 15:22:38,-8.502319,-2.4141798,4.4379716,-0.24030095,-0.20028962,-0.114380755,9.890060164493775,0.33308172850936585,jump
05/08/2020, 15:22:38,-8.456815,-2.6009912,4.5002418,-0.24030095,-0.20028962,-0.114380755,9.926482122558209,0.33308172850936585,jump
05/08/2020, 15:22:38,-8.456815,-2.6009912,4.5002418,-0.23541406,-0.19784616,-0.08261577,9.926482122558209,0.3184152115929966,jump
05/08/2020, 15:22:38,-8.358619,-2.6896071,4.4738965,-0.23541406,-0.19784616,-0.08261577,9.85475741394396,0.3184152115929966,jump
05/08/2020, 15:22:38,-8.358619,-2.6896071,4.4738965,-0.21464464,-0.17218983,-0.041076947,9.85475741394396,0.2782246852851779,jump
05/08/2020, 15:22:38,-8.315508,-2.7901978,4.4259963,-0.21464464,-0.17218983,-0.041076947,9.824577281786631,0.2782246852851779,jump
05/08/2020, 15:22:38,-8.315508,-2.7901978,4.4259963,-0.21342291,-0.14164658,-0.017864078,9.824577281786631,0.25677269492109595,jump
05/08/2020, 15:22:39,-8.377779,-2.8740237,3.5566041,0.114000745,0.051386755,0.044444155,9.544455261423849,0.13271040419546962,jump
05/08/2020, 15:22:39,-8.406519,-2.8141482,3.4847536,0.114000745,0.051386755,0.044444155,9.5253607994304,0.13271040419546962,jump
05/08/2020, 15:22:39,-8.406519,-2.8141482,3.4847536,0.093231335,0.047721565,0.045665886,9.5253607994304,0.11425761589443896,jump
05/08/2020, 15:22:39,-8.449629,-2.787803,3.532654,0.093231335,0.047721565,0.045665886,9.573281421870004,0.11425761589443896,jump
05/08/2020, 15:22:39,-8.449629,-2.787803,3.532654,0.07368366,0.030617347,0.046887614,9.573281421870004,0.09254810392353162,jump
05/08/2020, 15:22:39,-8.466394,-2.7470875,3.6068995,0.07368366,0.030617347,0.046887614,9.60396002531147,0.09254810392353162,jump
05/08/2020, 15:22:39,-8.466394,-2.7470875,3.6068995,0.050470784,0.017178316,0.050552804,9.60396002531147,0.07347095066991145,jump
05/08/2020, 15:22:39,-8.468789,-2.799778,3.5949244,0.050470784,0.017178316,0.050552804,9.616788829699459,0.07347095066991145,jump
05/08/2020, 15:22:39,-8.468789,-2.799778,3.5949244,0.023592725,0.020843506,0.051774535,9.616788829699459,0.060594314391484536,jump
05/08/2020, 15:22:39,-8.480764,-2.794988,3.6188745,0.023592725,0.020843506,0.051774535,9.634914378753908,0.060594314391484536,jump
05/08/2020, 15:22:39,-8.480764,-2.794988,3.6188745,-0.0045070667,0.031839073,0.056661453,9.634914378753908,0.06515029138791321,jump
05/08/2020, 15:22:39,-8.552615,-2.818938,3.6116896,-0.0045070667,0.031839073,0.056661453,9.70247078059403,0.06515029138791321,jump
05/08/2020, 15:22:39,-8.552615,-2.818938,3.6116896,-0.025276477,0.035504263,0.06643529,9.70247078059403,0.07945502514117131,jump
05/08/2020, 15:22:39,-8.655601,-2.8357031,3.5661843,-0.025276477,0.035504263,0.06643529,9.781528686533466,0.07945502514117131,jump
05/08/2020, 15:22:39,-8.655601,-2.8357031,3.5661843,-0.04360243,0.026952157,0.07254394,9.781528686533466,0.08882687678236602,jump
05/08/2020, 15:22:39,-8.693921,-2.8620484,3.5829494,-0.04360243,0.026952157,0.07254394,9.829196878682058,0.08882687678236602,jump
05/08/2020, 15:22:39,-8.693921,-2.8620484,3.5829494,-0.06437183,0.015956586,0.082317784,9.829196878682058,0.1057098055792598,jump
05/08/2020, 15:22:39,-8.693921,-2.8716285,3.547024,-0.06437183,0.015956586,0.082317784,9.818955831303294,0.1057098055792598,jump
05/08/2020, 15:22:39,-8.693921,-2.8716285,3.547024,-0.08514125,0.003739285,0.09209162,9.818955831303294,0.1254746229424358,jump
05/08/2020, 15:22:39,-8.710687,-2.8596535,3.4967287,-0.08514125,0.003739285,0.09209162,9.812277605035396,0.1254746229424358,jump
05/08/2020, 15:22:40,-8.480764,-3.8440065,2.682422,0.17386551,0.040391184,0.12263487,9.68995037453053,0.21656402302627661,jump
05/08/2020, 15:22:40,-8.528665,-3.8464015,2.7015822,0.17386551,0.040391184,0.12263487,9.73814510858087,0.21656402302627661,jump
05/08/2020, 15:22:40,-8.528665,-3.8464015,2.7015822,0.20807396,0.051386755,0.12507834,9.73814510858087,0.2481530996877153,jump
05/08/2020, 15:22:40,-8.54064,-3.7937112,2.6153615,0.20807396,0.051386755,0.12507834,9.704374765941937,0.2481530996877153,jump
05/08/2020, 15:22:40,-8.54064,-3.7937112,2.6153615,0.2105174,0.053830214,0.12263487,9.704374765941937,0.24950868195712606,jump
05/08/2020, 15:22:40,-8.59333,-3.6212697,2.6081765,0.2105174,0.053830214,0.12263487,9.683052506075628,0.24950868195712606,jump
05/08/2020, 15:22:40,-8.59333,-3.6212697,2.6081765,0.17386551,0.048943296,0.11896968,9.683052506075628,0.21628325638127233,jump
05/08/2020, 15:22:40,-8.612491,-3.4440382,2.5914114,0.17386551,0.048943296,0.11896968,9.630773949086457,0.21628325638127233,jump
05/08/2020, 15:22:40,-8.612491,-3.4440382,2.5914114,0.11033556,0.045278106,0.111639306,9.630773949086457,0.16336271609084643,jump
05/08/2020, 15:22:40,-8.610096,-3.3937428,2.5842261,0.11033556,0.045278106,0.111639306,9.608822385493824,0.16336271609084643,jump
05/08/2020, 15:22:40,-8.610096,-3.3937428,2.5842261,0.039475217,0.041612916,0.09331335,9.608822385493824,0.10953222846337646,jump
05/08/2020, 15:22:40,-8.586145,-3.3985329,2.550696,0.039475217,0.041612916,0.09331335,9.58008183956552,0.10953222846337646,jump
05/08/2020, 15:22:40,-8.586145,-3.3985329,2.550696,-0.033828586,0.031839073,0.07376567,9.58008183956552,0.087174963605985,jump
05/08/2020, 15:22:40,-8.55501,-3.527864,2.5914114,-0.033828586,0.031839073,0.07376567,9.60986110451879,0.087174963605985,jump
05/08/2020, 15:22:40,-8.55501,-3.527864,2.5914114,-0.09247163,0.028173886,0.056661453,9.60986110451879,0.11205039211636739,jump
05/08/2020, 15:22:40,-8.59333,-3.6931202,2.6967921,-0.09247163,0.028173886,0.056661453,9.73432853162004,0.11205039211636739,jump
05/08/2020, 15:22:40,-8.59333,-3.6931202,2.6967921,-0.1401191,0.039169453,0.048109345,9.73432853162004,0.1532387643267215,jump
05/08/2020, 15:22:40,-8.646021,-3.8224514,2.7662477,-0.1401191,0.039169453,0.048109345,9.849717669820835,0.1532387643267215,jump
05/08/2020, 15:22:40,-8.646021,-3.8224514,2.7662477,-0.17554927,0.06360406,0.034670316,9.849717669820835,0.1899080108485678,jump
05/08/2020, 15:22:40,-8.62207,-3.9422023,2.7973828,-0.17554927,0.06360406,0.034670316,9.884655097061327,0.1899080108485678,jump
05/08/2020, 15:22:41,-16.348404,0.60594,4.7062135,3.7229915,4.9969497,0.28756845,17.023099588799536,6.238017882685503,jump
05/08/2020, 15:22:41,-15.285015,1.5519727,4.9792457,3.7229915,4.9969497,0.28756845,16.150331066983412,6.238017882685503,jump
05/08/2020, 15:22:41,-15.285015,1.5519727,4.9792457,2.724838,5.087358,-0.14248054,16.150331066983412,5.772889599573126,jump
05/08/2020, 15:22:41,-15.079043,1.9112257,5.5253105,2.724838,5.087358,-0.14248054,16.172797822178698,5.772889599573126,jump
05/08/2020, 15:22:41,-15.079043,1.9112257,5.5253105,1.8842876,5.027493,-0.49800396,16.172797822178698,5.3920528143446305,jump
05/08/2020, 15:22:41,-15.687379,1.7890797,5.973179,1.8842876,5.027493,-0.49800396,16.881158965473908,5.3920528143446305,jump
05/08/2020, 15:22:41,-15.687379,1.7890797,5.973179,1.1512495,4.7623777,-0.7386848,16.881158965473908,4.954924055780588,jump
05/08/2020, 15:22:41,-16.602276,1.4705421,6.574329,1.1512495,4.7623777,-0.7386848,17.91702703610332,4.954924055780588,jump
05/08/2020, 15:22:41,-16.602276,1.4705421,6.574329,0.5391628,4.2981205,-0.81809723,17.91702703610332,4.4083805921845265,jump
05/08/2020, 15:22:41,-17.438137,1.3627661,7.941885,0.5391628,4.2981205,-0.81809723,19.209874876375576,4.4083805921845265,jump
05/08/2020, 15:22:41,-17.438137,1.3627661,7.941885,0.05413598,3.6750379,-0.7618976,19.209874876375576,3.753574559233235,jump
05/08/2020, 15:22:41,-17.62016,1.4705421,8.954978,0.05413598,3.6750379,-0.7618976,19.8197914524415,3.753574559233235,jump
05/08/2020, 15:22:41,-17.62016,1.4705421,8.954978,-0.51152503,2.9994214,-0.68370694,19.8197914524415,3.118596082141732,jump
05/08/2020, 15:22:41,-17.12918,1.7627344,9.335787,-0.51152503,2.9994214,-0.68370694,19.587572252211576,3.118596082141732,jump
05/08/2020, 15:22:41,-17.12918,1.7627344,9.335787,-1.1749245,2.3555696,-0.6128466,19.587572252211576,2.7027276370879725,jump
05/08/2020, 15:22:41,-16.147223,1.8872755,9.618399,-1.1749245,2.3555696,-0.6128466,18.88936729043721,2.7027276370879725,jump
05/08/2020, 15:22:41,-16.147223,1.8872755,9.618399,-1.9189581,1.7899085,-0.5737512,18.88936729043721,2.6861427844460155,jump
05/08/2020, 15:22:41,-14.695841,1.2765454,8.768167,-1.9189581,1.7899085,-0.5737512,17.160362774301802,2.6861427844460155,jump
05/08/2020, 15:22:41,-14.695841,1.2765454,8.768167,-2.7949383,1.3476423,-0.57008606,17.160362774301802,3.1548087325607397,jump
05/08/2020, 15:22:41,-13.505516,0.5843848,8.265213,-2.7949383,1.3476423,-0.57008606,15.844690453776979,3.1548087325607397,jump
05/08/2020, 15:22:42,-9.5561285,-2.1411476,4.4188113,0.44386786,0.35437578,-0.16691515,10.743835373853349,0.591997921534321,jump
05/08/2020, 15:22:42,-9.544153,-2.0022364,4.3254056,0.44386786,0.35437578,-0.16691515,10.668127512066166,0.591997921534321,jump
05/08/2020, 15:22:42,-9.544153,-2.0022364,4.3254056,0.29115158,0.24319838,-0.19990185,10.668127512066166,0.4288070027604975,jump
05/08/2020, 15:22:42,-9.498648,-1.949546,4.277505,0.29115158,0.24319838,-0.19990185,10.59821144393367,0.4288070027604975,jump
05/08/2020, 15:22:42,-9.498648,-1.949546,4.277505,0.13721362,0.12957749,-0.22922337,10.59821144393367,0.29691961163341013,jump
05/08/2020, 15:22:42,-9.398057,-1.8729054,4.2128396,0.13721362,0.12957749,-0.22922337,10.468011613294436,0.29691961163341013,jump
05/08/2020, 15:22:42,-9.398057,-1.8729054,4.2128396,-0.014280906,0.034282535,-0.25732315,10.468011613294436,0.25998930343543203,jump
05/08/2020, 15:22:42,-9.256751,-1.8992506,4.2343946,-0.014280906,0.034282535,-0.25732315,10.354935554899354,0.25998930343543203,jump
05/08/2020, 15:22:42,-9.256751,-1.8992506,4.2343946,-0.14622775,-0.03902127,-0.28542295,10.354935554899354,0.3230657431451876,jump
05/08/2020, 15:22:42,-9.14179,-1.9734962,4.2799,-0.14622775,-0.03902127,-0.28542295,10.285162294516104,0.3230657431451876,jump
05/08/2020, 15:22:42,-9.14179,-1.9734962,4.2799,-0.24640962,-0.09644258,-0.30619234,10.285162294516104,0.4046883030397848,jump
05/08/2020, 15:22:42,-9.077125,-2.1219873,4.366121,-0.24640962,-0.09644258,-0.30619234,10.293688949135595,0.4046883030397848,jump
05/08/2020, 15:22:42,-9.077125,-2.1219873,4.366121,-0.31238303,-0.13798138,-0.3245183,10.293688949135595,0.47109886441098137,jump
05/08/2020, 15:22:42,-9.053174,-2.2537134,4.430786,-0.31238303,-0.13798138,-0.3245183,10.328167771766571,0.47109886441098137,jump
05/08/2020, 15:22:42,-9.053174,-2.2537134,4.430786,-0.34903494,-0.17341156,-0.33917907,10.328167771766571,0.5166617819476835,jump
05/08/2020, 15:22:42,-9.096285,-2.42376,4.397256,-0.34903494,-0.17341156,-0.33917907,10.390037056303752,0.5166617819476835,jump
05/08/2020, 15:22:42,-9.096285,-2.42376,4.397256,-0.35636532,-0.21983731,-0.35017464,10.390037056303752,0.5458451803341924,jump
05/08/2020, 15:22:42,-9.093889,-2.4668703,4.3637257,-0.35636532,-0.21983731,-0.35017464,10.383947814591084,0.5458451803341924,jump
05/08/2020, 15:22:42,-9.093889,-2.4668703,4.3637257,-0.3355959,-0.2760369,-0.3526181,10.383947814591084,0.5596074507479463,jump
05/08/2020, 15:22:42,-9.065149,-2.5459058,4.2990603,-0.3355959,-0.2760369,-0.3526181,10.350868963403931,0.5596074507479463,jump
05/08/2020, 15:22:43,-8.806487,-4.0020776,3.0752053,1.9759173,0.2896241,0.27535114,10.150257509077502,2.015924030521208,jump
05/08/2020, 15:22:43,-9.060359,-3.7122805,2.8764186,1.9759173,0.2896241,0.27535114,10.205141632365427,2.015924030521208,jump
05/08/2020, 15:22:43,-9.060359,-3.7122805,2.8764186,1.9160526,0.2774068,0.26435557,10.205141632365427,1.9539948555409552,jump
05/08/2020, 15:22:43,-9.280701,-3.4584084,2.914739,1.9160526,0.2774068,0.26435557,10.32413174802878,1.9539948555409552,jump
05/08/2020, 15:22:43,-9.280701,-3.4584084,2.914739,1.8244227,0.24075492,0.26679903,10.32413174802878,1.8594792025404066,jump
05/08/2020, 15:22:43,-9.414823,-3.04407,2.943479,1.8244227,0.24075492,0.26679903,10.323241514393077,1.8594792025404066,jump
05/08/2020, 15:22:43,-9.414823,-3.04407,2.943479,1.7230192,0.17966841,0.28145978,10.323241514393077,1.7550771078107714,jump
05/08/2020, 15:22:43,-9.350157,-2.6273365,2.8285182,1.7230192,0.17966841,0.28145978,10.115772037720564,1.7550771078107714,jump
05/08/2020, 15:22:43,-9.350157,-2.6273365,2.8285182,1.5861855,0.11369499,0.2948988,10.115772037720564,1.617367044296675,jump
05/08/2020, 15:22:43,-9.18011,-2.1555176,2.7542725,1.5861855,0.11369499,0.2948988,9.82378196122851,1.617367044296675,jump
05/08/2020, 15:22:43,-9.18011,-2.1555176,2.7542725,1.4200301,0.06726924,0.28145978,9.82378196122851,1.4492171304950212,jump
05/08/2020, 15:22:43,-8.914263,-1.7244141,2.7015822,1.4200301,0.06726924,0.28145978,9.472920939826755,1.4492171304950212,jump
05/08/2020, 15:22:43,-8.914263,-1.7244141,2.7015822,1.230662,0.056273676,0.24114269,9.472920939826755,1.2553268311614596,jump
05/08/2020, 15:22:43,-8.760982,-1.4801221,2.7518775,1.230662,0.056273676,0.24114269,9.301526182284027,1.2553268311614596,jump
05/08/2020, 15:22:43,-8.760982,-1.4801221,2.7518775,1.0474025,0.07826482,0.1727258,9.301526182284027,1.064430167668313,jump
05/08/2020, 15:22:43,-8.669971,-1.5352076,2.6608667,1.0474025,0.07826482,0.1727258,9.198123693512533,1.064430167668313,jump
05/08/2020, 15:22:43,-8.669971,-1.5352076,2.6608667,0.8616995,0.11491672,0.09209162,9.198123693512533,0.8741926471397486,jump
05/08/2020, 15:22:43,-8.775352,-1.829795,2.565066,0.8616995,0.11491672,0.09209162,9.32386766432442,0.8741926471397486,jump
05/08/2020, 15:22:43,-8.775352,-1.829795,2.565066,0.69310075,0.14423825,0.026118202,9.32386766432442,0.7084317067106546,jump
05/08/2020, 15:22:43,-8.966953,-2.0932472,2.7806177,0.69310075,0.14423825,0.026118202,9.618719753169245,0.7084317067106546,jump
05/08/2020, 15:22:44,-9.400452,-1.334026,3.0799952,0.17630897,0.10880806,-0.021529268,9.981707613658964,0.20829680386716218,jump
05/08/2020, 15:22:44,-9.366921,-1.5639478,2.9650342,0.17630897,0.10880806,-0.021529268,9.948697290267782,0.20829680386716218,jump
05/08/2020, 15:22:44,-9.366921,-1.5639478,2.9650342,0.19585665,0.068490975,-0.033746567,9.948697290267782,0.2102133916461538,jump
05/08/2020, 15:22:44,-9.378897,-1.6860938,2.929109,0.19585665,0.068490975,-0.033746567,9.969267575105247,0.2102133916461538,jump
05/08/2020, 15:22:44,-9.378897,-1.6860938,2.929109,0.22762163,0.030617347,-0.033746567,9.969267575105247,0.23213758649509422,jump
05/08/2020, 15:22:44,-9.2256155,-1.6741188,2.9794044,0.22762163,0.030617347,-0.033746567,9.838267421990055,0.23213758649509422,jump
05/08/2020, 15:22:44,-9.2256155,-1.6741188,2.9794044,0.25572142,0.0135131255,-0.021529268,9.838267421990055,0.25698163092609316,jump
05/08/2020, 15:22:44,-9.09868,-1.5423926,3.0225148,0.25572142,0.0135131255,-0.021529268,9.710846524562188,0.25698163092609316,jump
05/08/2020, 15:22:44,-9.09868,-1.5423926,3.0225148,0.26793873,0.022065235,0.002905332,9.710846524562188,0.26886145179026627,jump
05/08/2020, 15:22:44,-9.086704,-1.3052857,3.178191,0.26793873,0.022065235,0.002905332,9.714569606195248,0.26886145179026627,jump
05/08/2020, 15:22:44,-9.086704,-1.3052857,3.178191,0.2716039,0.046499833,0.021231283,9.714569606195248,0.2763723700827567,jump
05/08/2020, 15:22:44,-9.08431,-1.1328443,3.307522,0.2716039,0.046499833,0.021231283,9.733843996527826,0.2763723700827567,jump
05/08/2020, 15:22:44,-9.08431,-1.1328443,3.307522,0.2630518,0.075821355,0.023674743,9.733843996527826,0.27478286876895924,jump
05/08/2020, 15:22:44,-9.192085,-1.1424243,3.159031,0.2630518,0.075821355,0.023674743,9.786676720987991,0.27478286876895924,jump
05/08/2020, 15:22:44,-9.192085,-1.1424243,3.159031,0.2618301,0.09292558,0.027339933,9.786676720987991,0.2791731216930233,jump
05/08/2020, 15:22:44,-9.275911,-1.1232642,2.9674294,0.2618301,0.09292558,0.027339933,9.803565204214769,0.2791731216930233,jump
05/08/2020, 15:22:44,-9.275911,-1.1232642,2.9674294,0.31314275,0.07704309,0.044444155,9.803565204214769,0.3255292611376487,jump
05/08/2020, 15:22:44,-9.319021,-1.1711646,2.8428884,0.31314275,0.07704309,0.044444155,9.813144113222426,0.3255292611376487,jump
05/08/2020, 15:22:44,-9.319021,-1.1711646,2.8428884,0.4133246,0.034282535,0.068878755,9.813144113222426,0.4204245420178911,jump
05/08/2020, 15:22:44,-9.304651,-1.2621753,2.7734327,0.4133246,0.034282535,0.068878755,9.790891212575447,0.4204245420178911,jump
05/08/2020, 15:22:45,-9.472302,1.0418335,3.515889,-0.53351617,0.041612916,0.3559853,10.157332597766827,0.6427259761683197,jump
05/08/2020, 15:22:45,-9.472302,1.0418335,3.515889,-0.6043765,0.19799437,0.4158501,10.157332597766827,0.7598710579656768,jump
05/08/2020, 15:22:45,-9.865086,1.3220508,3.0608351,-0.6043765,0.19799437,0.4158501,10.413282091895693,0.7598710579656768,jump
05/08/2020, 15:22:45,-9.865086,1.3220508,3.0608351,-0.78885776,0.24197665,0.39874586,10.413282091895693,0.9164319535241852,jump
05/08/2020, 15:22:45,-10.243499,1.3483961,2.6249416,-0.78885776,0.24197665,0.39874586,10.660101218571675,0.9164319535241852,jump
05/08/2020, 15:22:45,-10.243499,1.3483961,2.6249416,-0.96845204,0.09903423,0.3547636,10.660101218571675,1.0361294971704187,jump
05/08/2020, 15:22:45,-10.439891,0.92208254,2.3543043,-0.96845204,0.09903423,0.3547636,10.74170871967657,1.0361294971704187,jump
05/08/2020, 15:22:45,-10.439891,0.92208254,2.3543043,-1.090625,-0.1465335,0.32910725,10.74170871967657,1.1485846279626613,jump
05/08/2020, 15:22:45,-10.265054,0.30416748,2.4022048,-1.090625,-0.1465335,0.32910725,10.546773629761008,1.1485846279626613,jump
05/08/2020, 15:22:45,-10.265054,0.30416748,2.4022048,-1.1321639,-0.34445378,0.3474332,10.546773629761008,1.233350436460539,jump
05/08/2020, 15:22:45,-9.831555,-0.102985844,2.6704469,-1.1321639,-0.34445378,0.3474332,10.188295907997196,1.233350436460539,jump
05/08/2020, 15:22:45,-9.831555,-0.102985844,2.6704469,-1.0894034,-0.4153141,0.38530684,10.188295907997196,1.2279034627026815,jump
05/08/2020, 15:22:45,-9.239985,-0.366438,2.8548634,-1.0894034,-0.4153141,0.38530684,9.677905418184677,1.2279034627026815,jump
05/08/2020, 15:22:45,-9.239985,-0.366438,2.8548634,-1.0148778,-0.38843605,0.4158501,9.677905418184677,1.1635251667171813,jump
05/08/2020, 15:22:45,-8.725057,-0.34727785,2.9626393,-1.0148778,-0.38843605,0.4158501,9.220870199212271,1.1635251667171813,jump
05/08/2020, 15:22:45,-8.725057,-0.34727785,2.9626393,-0.9831128,-0.32246265,0.42928913,9.220870199212271,1.1201705762137995,jump
05/08/2020, 15:22:45,-8.396939,-0.18920656,2.955454,-0.9831128,-0.32246265,0.42928913,8.903881027730293,1.1201705762137995,jump
05/08/2020, 15:22:45,-8.396939,-0.18920656,2.955454,-1.0319821,-0.2552675,0.43906295,8.903881027730293,1.150184661097907,jump
05/08/2020, 15:22:45,-8.255632,0.021555176,3.027305,-1.0319821,-0.2552675,0.43906295,8.793207938035666,1.150184661097907,jump
05/08/2020, 15:22:45,-8.255632,0.021555176,3.027305,-1.1431595,-0.21250692,0.4488368,8.793207938035666,1.2463656484162042,jump
05/08/2020, 15:22:46,-14.964083,-23.557413,3.2141163,4.5818677,7.189955,5.377296,28.092810956235795,10.079894831123072,jump
05/08/2020, 15:22:46,-13.584552,-18.796114,2.8596535,4.5818677,7.189955,5.377296,23.366890383422035,10.079894831123072,jump
05/08/2020, 15:22:46,-13.584552,-18.796114,2.8596535,7.318543,7.5332613,6.1152205,23.366890383422035,12.153477656786448,jump
05/08/2020, 15:22:46,-9.718989,-11.357183,-0.06227051,7.318543,7.5332613,6.1152205,14.948185444973191,12.153477656786448,jump
05/08/2020, 15:22:46,-9.718989,-11.357183,-0.06227051,9.104712,7.874124,5.8000145,14.948185444973191,13.361802640392224,jump
05/08/2020, 15:22:46,-7.4988065,-5.0343313,-3.5733693,9.104712,7.874124,5.8000145,9.713164177105945,13.361802640392224,jump
05/08/2020, 15:22:46,-7.4988065,-5.0343313,-3.5733693,9.501774,8.52042,4.674801,9.713164177105945,13.591726433477724,jump
05/08/2020, 15:22:46,-8.119117,0.43110353,-3.8056862,9.501774,8.52042,4.674801,8.977146278873212,13.591726433477724,jump
05/08/2020, 15:22:46,-8.119117,0.43110353,-3.8056862,8.960547,9.164271,3.208725,8.977146278873212,13.212539346570583,jump
05/08/2020, 15:22:46,-11.050621,4.7469287,-3.4823585,8.960547,9.164271,3.208725,12.521037402228856,13.212539346570583,jump
05/08/2020, 15:22:46,-11.050621,4.7469287,-3.4823585,7.477368,9.442826,1.6363584,12.521037402228856,12.155478892933576,jump
05/08/2020, 15:22:46,-14.873072,6.933582,-4.744534,7.477368,9.442826,1.6363584,17.081961858139266,12.155478892933576,jump
05/08/2020, 15:22:46,-14.873072,6.933582,-4.744534,5.4651785,9.236354,0.40118933,17.081961858139266,10.739616459165465,jump
05/08/2020, 15:22:46,-19.323019,6.229446,-4.126619,5.4651785,9.236354,0.40118933,20.717481609187526,10.739616459165465,jump
05/08/2020, 15:22:46,-19.323019,6.229446,-4.126619,3.5189624,8.656032,-0.2182278,20.717481609187526,9.346528919226898,jump
05/08/2020, 15:22:46,-22.934708,3.5134938,-1.9088306,3.5189624,8.656032,-0.2182278,23.280659087416268,9.346528919226898,jump
05/08/2020, 15:22:46,-22.934708,3.5134938,-1.9088306,2.162842,8.006071,-0.33795732,23.280659087416268,8.299956333068524,jump
05/08/2020, 15:22:46,-24.752527,0.40715334,1.4873072,2.162842,8.006071,-0.33795732,24.800513324047785,8.299956333068524,jump
05/08/2020, 15:22:46,-24.752527,0.40715334,1.4873072,1.7718884,7.4257493,-0.24877106,24.800513324047785,7.638273898457149,jump
05/08/2020, 15:22:46,-24.90102,-1.6573536,4.064348,1.7718884,7.4257493,-0.24877106,25.284907495970057,7.638273898457149,jump
05/08/2020, 15:22:47,-9.726174,-3.535049,3.2811768,2.7529378,1.3867376,0.31566823,10.856387979677356,3.0986051788591196,jump
05/08/2020, 15:22:47,-9.553733,-3.1207106,3.0847852,2.7529378,1.3867376,0.31566823,10.513255746035355,3.0986051788591196,jump
05/08/2020, 15:22:47,-9.553733,-3.1207106,3.0847852,2.755381,1.3342032,0.221595,10.513255746035355,3.0694181348968224,jump
05/08/2020, 15:22:47,-9.539363,-2.7087672,2.9889846,2.755381,1.3342032,0.221595,10.357166269762045,3.0694181348968224,jump
05/08/2020, 15:22:47,-9.539363,-2.7087672,2.9889846,2.7052903,1.2889992,0.123856604,10.357166269762045,2.9992424206436197,jump
05/08/2020, 15:22:47,-9.517808,-2.3423293,2.9650342,2.7052903,1.2889992,0.123856604,10.24043958213061,2.9992424206436197,jump
05/08/2020, 15:22:47,-9.517808,-2.3423293,2.9650342,2.5989997,1.2511256,0.031005124,10.24043958213061,2.8846275602953955,jump
05/08/2020, 15:22:47,-9.6758795,-1.9782863,2.9051588,2.5989997,1.2511256,0.031005124,10.294474617155075,2.8846275602953955,jump
05/08/2020, 15:22:47,-9.6758795,-1.9782863,2.9051588,2.448727,1.2071433,-0.055737708,10.294474617155075,2.7306711718856387,jump
05/08/2020, 15:22:47,-9.8866415,-1.587898,2.8285182,2.448727,1.2071433,-0.055737708,10.405172523474285,2.7306711718856387,jump
05/08/2020, 15:22:47,-9.8866415,-1.587898,2.8285182,2.2605805,1.1387265,-0.12904151,10.405172523474285,2.534477079638154,jump
05/08/2020, 15:22:47,-10.095008,-1.3076807,2.816543,2.2605805,1.1387265,-0.12904151,10.561824101785113,2.534477079638154,jump
05/08/2020, 15:22:47,-10.095008,-1.3076807,2.816543,2.037004,1.0336577,-0.20112358,10.561824101785113,2.2930948835327283,jump
05/08/2020, 15:22:47,-10.142908,-1.1064991,2.7135572,2.037004,1.0336577,-0.20112358,10.557761020601284,2.2930948835327283,jump
05/08/2020, 15:22:47,-10.142908,-1.1064991,2.7135572,1.7926579,0.8943805,-0.26954046,10.557761020601284,2.021432840921524,jump
05/08/2020, 15:22:47,-10.138118,-0.9915381,2.7806177,1.7926579,0.8943805,-0.26954046,10.559186285782037,2.021432840921524,jump
05/08/2020, 15:22:47,-10.138118,-0.9915381,2.7806177,1.5409814,0.74288595,-0.3330704,10.559186285782037,1.742825043463268,jump
05/08/2020, 15:22:47,-10.075848,-0.90771246,3.1015503,1.5409814,0.74288595,-0.3330704,10.581411144163486,1.742825043463268,jump
05/08/2020, 15:22:47,-10.075848,-0.90771246,3.1015503,1.2905267,0.6194912,-0.38927,10.581411144163486,1.483495802631854,jump
05/08/2020, 15:22:47,-10.039923,-0.8334668,3.3338673,1.2905267,0.6194912,-0.38927,10.611756985131054,1.483495802631854,jump
05/08/2020, 15:22:48,-8.971744,-2.6656568,2.5842261,0.015040615,0.019621776,0.023674743,9.709589787006964,0.03423050783327616,jump
05/08/2020, 15:22:48,-8.971744,-2.6656568,2.5842261,0.028479645,0.020843506,0.015122632,9.709589787006964,0.03839577975395092,jump
05/08/2020, 15:22:48,-8.945398,-2.672842,2.6033864,0.028479645,0.020843506,0.015122632,9.692360731428238,0.03839577975395092,jump
05/08/2020, 15:22:48,-8.945398,-2.672842,2.6033864,0.056579433,0.026952157,0.012679173,9.692360731428238,0.06394069484791882,jump
05/08/2020, 15:22:48,-8.943004,-2.6608667,2.572251,0.056579433,0.026952157,0.012679173,9.678533038852947,0.06394069484791882,jump
05/08/2020, 15:22:48,-8.943004,-2.6608667,2.572251,0.0834575,0.026952157,0.011457441,9.678533038852947,0.08844685399796488,jump
05/08/2020, 15:22:48,-9.017249,-2.6704469,2.562671,0.0834575,0.026952157,0.011457441,9.747273995444399,0.08844685399796488,jump
05/08/2020, 15:22:48,-9.017249,-2.6704469,2.562671,0.10422691,0.023286967,0.015122632,9.747273995444399,0.10786206691578698,jump
05/08/2020, 15:22:48,-9.005274,-2.5985963,2.5123756,0.10422691,0.023286967,0.015122632,9.70359163327223,0.10786206691578698,jump
05/08/2020, 15:22:48,-9.005274,-2.5985963,2.5123756,0.11522248,0.0135131255,0.016344363,9.70359163327223,0.11715785006067002,jump
05/08/2020, 15:22:48,-9.022039,-2.4860303,2.4525,0.11522248,0.0135131255,0.016344363,9.67431128271194,0.11715785006067002,jump
05/08/2020, 15:22:48,-9.022039,-2.4860303,2.4525,0.10911383,0.003739285,0.017566092,9.67431128271194,0.11058199297483359,jump
05/08/2020, 15:22:48,-8.983719,-2.4572902,2.42376,0.10911383,0.003739285,0.017566092,9.62393329144741,0.11058199297483359,jump
05/08/2020, 15:22:48,-8.983719,-2.4572902,2.42376,0.093231335,-0.003591095,0.015122632,9.62393329144741,0.09451810317588108,jump
05/08/2020, 15:22:48,-8.988508,-2.3614893,2.4644752,0.093231335,-0.003591095,0.015122632,9.614756865652488,0.09451810317588108,jump
05/08/2020, 15:22:48,-8.988508,-2.3614893,2.4644752,0.06635328,-0.006034555,0.0077922526,9.614756865652488,0.06708123685945143,jump
05/08/2020, 15:22:48,-9.0076685,-2.3998096,2.4812403,0.06635328,-0.006034555,0.0077922526,9.646436187530236,0.06708123685945143,jump
05/08/2020, 15:22:48,-9.0076685,-2.3998096,2.4812403,0.032144837,-0.003591095,-7.598577E-4,9.646436187530236,0.032353730831615114,jump
05/08/2020, 15:22:48,-9.017249,-2.4045997,2.4932153,0.032144837,-0.003591095,-7.598577E-4,9.659658568764852,0.032353730831615114,jump
05/08/2020, 15:22:48,-9.017249,-2.4045997,2.4932153,-0.009393986,7.409509E-5,-0.009311968,9.659658568764852,0.013227442140229502,jump
05/08/2020, 15:22:49,-9.137,-2.5051906,2.936294,0.09200961,0.015956586,0.1360739,9.91879899220861,0.1650348087903509,jump
05/08/2020, 15:22:49,-9.096285,-2.5291407,2.9003687,0.09200961,0.015956586,0.1360739,9.876795515015937,0.1650348087903509,jump
05/08/2020, 15:22:49,-9.096285,-2.5291407,2.9003687,0.056579433,0.011069666,0.12996525,9.876795515015937,0.14217853169763542,jump
05/08/2020, 15:22:49,-9.031619,-2.5099807,2.8788135,0.056579433,0.011069666,0.12996525,9.806003939694337,0.14217853169763542,jump
05/08/2020, 15:22:49,-9.031619,-2.5099807,2.8788135,0.022370994,0.012291396,0.123856604,9.806003939694337,0.12645947244930836,jump
05/08/2020, 15:22:49,-8.957374,-2.4980054,2.7638526,0.022370994,0.012291396,0.123856604,9.701208906887203,0.12645947244930836,jump
05/08/2020, 15:22:49,-8.957374,-2.4980054,2.7638526,-0.011837447,0.017178316,0.10186546,9.701208906887203,0.10397976834940605,jump
05/08/2020, 15:22:49,-9.0148535,-2.5147705,2.562671,-0.011837447,0.017178316,0.10186546,9.703552767180433,0.10397976834940605,jump
05/08/2020, 15:22:49,-9.0148535,-2.5147705,2.562671,-0.028941667,-0.008478015,0.074987404,9.703552767180433,0.08082454807474729,jump
05/08/2020, 15:22:49,-9.048384,-2.5075855,2.5890162,-0.028941667,-0.008478015,0.074987404,9.739827404041616,0.08082454807474729,jump
05/08/2020, 15:22:49,-9.048384,-2.5075855,2.5890162,-0.033828586,-0.05001684,0.06765702,9.739827404041616,0.09068368262639917,jump
05/08/2020, 15:22:49,-9.101074,-2.4932153,2.6033864,-0.033828586,-0.05001684,0.06765702,9.78893739577046,0.09068368262639917,jump
05/08/2020, 15:22:49,-9.101074,-2.4932153,2.6033864,-0.032606855,-0.070786245,0.08353951,9.78893739577046,0.11424862775687775,jump
05/08/2020, 15:22:49,-9.053174,-2.4333398,2.6584718,-0.032606855,-0.070786245,0.08353951,9.744155940707415,0.11424862775687775,jump
05/08/2020, 15:22:49,-9.053174,-2.4333398,2.6584718,-0.014280906,-0.06956452,0.07743086,9.744155940707415,0.105065240959331,jump
05/08/2020, 15:22:49,-8.943004,-2.3303542,2.5530908,-0.014280906,-0.06956452,0.07743086,9.587811940869893,0.105065240959331,jump
05/08/2020, 15:22:49,-8.943004,-2.3303542,2.5530908,0.015040615,-0.06712106,0.051774535,9.587811940869893,0.08609331634105723,jump
05/08/2020, 15:22:49,-8.847202,-2.2776637,2.4501052,0.015040615,-0.06712106,0.051774535,9.45852821342816,0.08609331634105723,jump
05/08/2020, 15:22:49,-8.847202,-2.2776637,2.4501052,0.052914247,-0.064677596,0.032226853,9.45852821342816,0.08956382652613512,jump
05/08/2020, 15:22:49,-8.847202,-2.2345533,2.3878345,0.052914247,-0.064677596,0.032226853,9.432283445950999,0.08956382652613512,jump
05/08/2020, 15:22:50,-8.617281,-2.4788454,2.914739,-0.19265349,-0.19418098,0.11408276,9.428568728640618,0.2963722279798912,jump
05/08/2020, 15:22:50,-8.53585,-2.550696,2.9650342,-0.19265349,-0.19418098,0.11408276,9.389260116742603,0.2963722279798912,jump
05/08/2020, 15:22:50,-8.53585,-2.550696,2.9650342,-0.1560016,-0.14042485,0.11408276,9.389260116742603,0.2388943546290777,jump
05/08/2020, 15:22:50,-8.55501,-2.6297317,3.0704153,-0.1560016,-0.14042485,0.11408276,9.462089189620695,0.2388943546290777,jump
05/08/2020, 15:22:50,-8.55501,-2.6297317,3.0704153,-0.11934968,-0.07933836,0.11530449,9.462089189620695,0.18394033585853442,jump
05/08/2020, 15:22:50,-8.660391,-2.562671,3.0847852,-0.11934968,-0.07933836,0.11530449,9.54387510355084,0.18394033585853442,jump
05/08/2020, 15:22:50,-8.660391,-2.562671,3.0847852,-0.09247163,-0.030469155,0.110417575,9.54387510355084,0.1472121341241725,jump
05/08/2020, 15:22:50,-8.799302,-2.5195606,2.9889846,-0.09247163,-0.030469155,0.110417575,9.628599680576855,0.1472121341241725,jump
05/08/2020, 15:22:50,-8.799302,-2.5195606,2.9889846,-0.06925876,-0.019473584,0.103087194,9.628599680576855,0.12570984655803247,jump
05/08/2020, 15:22:50,-8.780142,-2.5770411,2.943479,-0.06925876,-0.019473584,0.103087194,9.612289042177599,0.12570984655803247,jump
05/08/2020, 15:22:50,-8.780142,-2.5770411,2.943479,-0.04971108,-0.041464727,0.09453508,9.612289042177599,0.1145748522600327,jump
05/08/2020, 15:22:50,-8.734636,-2.567461,2.8452833,-0.04971108,-0.041464727,0.09453508,9.538415190933998,0.1145748522600327,jump
05/08/2020, 15:22:50,-8.734636,-2.567461,2.8452833,-0.030163398,-0.062234137,0.08842643,9.538415190933998,0.11225930943920152,jump
05/08/2020, 15:22:50,-8.576566,-2.574646,2.8524685,-0.030163398,-0.062234137,0.08842643,9.398024176941114,0.11225930943920152,jump
05/08/2020, 15:22:50,-8.576566,-2.574646,2.8524685,-0.010615716,-0.054903757,0.08476124,9.398024176941114,0.10154596826710204,jump
05/08/2020, 15:22:50,-8.413704,-2.6249416,2.806963,-0.010615716,-0.054903757,0.08476124,9.249852596805436,0.10154596826710204,jump
05/08/2020, 15:22:50,-8.413704,-2.6249416,2.806963,0.019927535,-0.023138775,0.08109605,9.249852596805436,0.08665494434642812,jump
05/08/2020, 15:22:50,-8.260423,-2.6297317,2.8644435,0.019927535,-0.023138775,0.08109605,9.129901897986349,0.08665494434642812,jump
05/08/2020, 15:22:50,-8.260423,-2.6297317,2.8644435,0.06146636,0.025730425,0.07743086,9.129901897986349,0.10215530330578454,jump
05/08/2020, 15:22:50,-8.202942,-2.684817,2.8812087,0.06146636,0.025730425,0.07743086,9.099333040799008,0.10215530330578454,jump
05/08/2020, 15:22:51,-18.432072,-7.4197707,1.7507594,7.489585,5.610258,3.8501332,19.946413774910656,10.118913172862221,jump
05/08/2020, 15:22:51,-18.080004,-6.2438164,2.179468,7.489585,5.610258,3.8501332,19.251541717835114,10.118913172862221,jump
05/08/2020, 15:22:51,-18.080004,-6.2438164,2.179468,7.4150596,5.435551,3.0828867,19.251541717835114,9.697036415227393,jump
05/08/2020, 15:22:51,-18.000967,-5.110972,2.550696,7.4150596,5.435551,3.0828867,18.88552084169689,9.697036415227393,jump
05/08/2020, 15:22:51,-18.000967,-5.110972,2.550696,7.087636,5.1069055,2.403605,18.88552084169689,9.060484770935018,jump
05/08/2020, 15:22:51,-17.897982,-3.9541774,2.4716604,7.087636,5.1069055,2.403605,18.495468922930336,9.060484770935018,jump
05/08/2020, 15:22:51,-17.897982,-3.9541774,2.4716604,6.4645534,4.6243224,1.809844,18.495468922930336,8.151707996061793,jump
05/08/2020, 15:22:51,-17.555494,-2.208208,2.201023,6.4645534,4.6243224,1.809844,17.83020095378011,8.151707996061793,jump
05/08/2020, 15:22:51,-17.555494,-2.208208,2.201023,5.544591,4.046444,1.3272606,17.83020095378011,6.991267273685895,jump
05/08/2020, 15:22:51,-17.198635,-0.040715333,2.7327175,5.544591,4.046444,1.3272606,17.41443229330712,6.991267273685895,jump
05/08/2020, 15:22:51,-17.198635,-0.040715333,2.7327175,4.4364815,3.4783394,0.9253115,17.41443229330712,5.712916460439729,jump
05/08/2020, 15:22:51,-16.38912,1.9711012,3.3099172,4.4364815,3.4783394,0.9253115,16.83579666854496,5.712916460439729,jump
05/08/2020, 15:22:51,-16.38912,1.9711012,3.3099172,3.2013125,3.000643,0.55634904,16.83579666854496,4.422870645578393,jump
05/08/2020, 15:22:51,-15.651453,3.3889527,3.8535867,3.2013125,3.000643,0.55634904,16.471281445378672,4.422870645578393,jump
05/08/2020, 15:22:51,-15.651453,3.3889527,3.8535867,1.9123874,2.6512282,0.19960387,16.471281445378672,3.2750691709881394,jump
05/08/2020, 15:22:51,-14.990428,3.8703518,4.160149,1.9123874,2.6512282,0.19960387,16.031200649119626,3.2750691709881394,jump
05/08/2020, 15:22:51,-14.990428,3.8703518,4.160149,0.651562,2.3690085,-0.11193729,16.031200649119626,2.4595252454592624,jump
05/08/2020, 15:22:51,-14.523399,3.788921,4.3254056,0.651562,2.3690085,-0.11193729,15.620313235937171,2.4595252454592624,jump
05/08/2020, 15:22:51,-14.523399,3.788921,4.3254056,-0.45532545,2.0757933,-0.32940522,15.620313235937171,2.1505224369388865,jump
05/08/2020, 15:22:51,-14.03242,3.2045362,4.4547367,-0.45532545,2.0757933,-0.32940522,15.067267400150822,2.1505224369388865,jump
05/08/2020, 15:22:52,-10.032737,-1.9160157,3.4967287,1.4078128,0.8870501,0.36087224,10.796019400978368,1.7026519356201077,jump
05/08/2020, 15:22:52,-9.8866415,-1.81782,3.5757644,1.4078128,0.8870501,0.36087224,10.669406766475195,1.7026519356201077,jump
05/08/2020, 15:22:52,-9.8866415,-1.81782,3.5757644,1.2379924,0.8076377,0.3022292,10.669406766475195,1.5087234089079116,jump
05/08/2020, 15:22:52,-9.68067,-1.6693287,3.6404297,1.2379924,0.8076377,0.3022292,10.476390332937607,1.5087234089079116,jump
05/08/2020, 15:22:52,-9.68067,-1.6693287,3.6404297,1.0742805,0.74166423,0.23869923,10.476390332937607,1.327072622764743,jump
05/08/2020, 15:22:52,-9.618399,-1.5591577,3.8464015,1.0742805,0.74166423,0.23869923,10.475656059054295,1.327072622764743,jump
05/08/2020, 15:22:52,-9.618399,-1.5591577,3.8464015,0.91912085,0.6854647,0.17761272,10.475656059054295,1.160254816986124,jump
05/08/2020, 15:22:52,-9.685459,-1.4753321,4.014053,0.91912085,0.6854647,0.17761272,10.587603319261078,1.160254816986124,jump
05/08/2020, 15:22:52,-9.685459,-1.4753321,4.014053,0.76273936,0.64026064,0.11652622,10.587603319261078,1.002638207759161,jump
05/08/2020, 15:22:52,-9.8938265,-1.346001,4.1888895,0.76273936,0.64026064,0.11652622,10.82803382666603,1.002638207759161,jump
05/08/2020, 15:22:52,-9.8938265,-1.346001,4.1888895,0.59414065,0.57917416,0.06154838,10.82803382666603,0.832006022935232,jump
05/08/2020, 15:22:52,-10.114168,-1.3268409,4.25595,0.59414065,0.57917416,0.06154838,11.053054537486986,0.832006022935232,jump
05/08/2020, 15:22:52,-10.114168,-1.3268409,4.25595,0.41210288,0.46677497,0.018787822,11.053054537486986,0.6229451318306378,jump
05/08/2020, 15:22:52,-10.209969,-1.2286451,4.133804,0.41210288,0.46677497,0.018787822,11.083382205330667,0.6229451318306378,jump
05/08/2020, 15:22:52,-10.209969,-1.2286451,4.133804,0.21662606,0.30428487,-0.015420618,11.083382205330667,0.3738367679915835,jump
05/08/2020, 15:22:52,-10.142908,-1.1687696,4.0763235,0.21662606,0.30428487,-0.015420618,10.993680929301021,0.3738367679915835,jump
05/08/2020, 15:22:52,-10.142908,-1.1687696,4.0763235,0.008931965,0.1259123,-0.039855216,10.993680929301021,0.1323711597687869,jump
05/08/2020, 15:22:52,-9.910591,-1.1615845,3.9877076,0.008931965,0.1259123,-0.039855216,10.745739016979371,0.1323711597687869,jump
05/08/2020, 15:22:52,-9.910591,-1.1615845,3.9877076,-0.20120561,-0.021917045,-0.061846357,10.745739016979371,0.21163418133869016,jump
05/08/2020, 15:22:52,-9.551338,-1.2597803,4.071533,-0.20120561,-0.021917045,-0.061846357,10.45908649587033,0.21163418133869016,jump
05/08/2020, 15:22:53,-8.830438,-2.8141482,3.2859669,-0.031385124,-0.106216416,-0.06062463,9.83329230647243,0.1262628157529006,jump
05/08/2020, 15:22:53,-8.945398,-2.7686427,3.2332766,-0.031385124,-0.106216416,-0.06062463,9.906543852611737,0.1262628157529006,jump
05/08/2020, 15:22:53,-8.945398,-2.7686427,3.2332766,-0.0130591765,-0.09277739,-0.06795501,9.906543852611737,0.11574138774069626,jump
05/08/2020, 15:22:53,-9.045989,-2.680027,3.0895753,-0.0130591765,-0.09277739,-0.06795501,9.927635060287912,0.11574138774069626,jump
05/08/2020, 15:22:53,-9.045989,-2.680027,3.0895753,-0.010615716,-0.10988161,-0.08261577,9.927635060287912,0.13788410744257498,jump
05/08/2020, 15:22:53,-9.144185,-2.6105714,3.0105398,-0.010615716,-0.10988161,-0.08261577,9.974695643780574,0.13788410744257498,jump
05/08/2020, 15:22:53,-9.144185,-2.6105714,3.0105398,-0.020389555,-0.15142043,-0.0960548,9.974695643780574,0.1804727263421158,jump
05/08/2020, 15:22:53,-9.172925,-2.5866213,2.8979738,-0.020389555,-0.15142043,-0.0960548,9.961496606764864,0.1804727263421158,jump
05/08/2020, 15:22:53,-9.172925,-2.5866213,2.8979738,-0.039937235,-0.18929406,-0.108272105,9.961496606764864,0.22169815265389473,jump
05/08/2020, 15:22:53,-9.1202345,-2.5051906,2.8931837,-0.039937235,-0.18929406,-0.108272105,9.89066070131811,0.22169815265389473,jump
05/08/2020, 15:22:53,-9.1202345,-2.5051906,2.8931837,-0.060706645,-0.21006346,-0.122932866,9.89066070131811,0.2508474487528138,jump
05/08/2020, 15:22:53,-9.0148535,-2.4884255,2.8764186,-0.060706645,-0.21006346,-0.122932866,9.78435631831971,0.2508474487528138,jump
05/08/2020, 15:22:53,-9.0148535,-2.4884255,2.8764186,-0.074145675,-0.21128519,-0.14003709,9.78435631831971,0.26410111423675964,jump
05/08/2020, 15:22:53,-8.950189,-2.5219557,2.8524685,-0.074145675,-0.21128519,-0.14003709,9.726392641698201,0.26410111423675964,jump
05/08/2020, 15:22:53,-8.950189,-2.5219557,2.8524685,-0.08269779,-0.19784616,-0.1571413,9.726392641698201,0.26584847976568005,jump
05/08/2020, 15:22:53,-8.902288,-2.5219557,2.8452833,-0.08269779,-0.19784616,-0.1571413,9.680218850631448,0.26584847976568005,jump
05/08/2020, 15:22:53,-8.902288,-2.5219557,2.8452833,-0.08269779,-0.18685059,-0.17302379,9.680218850631448,0.26774857560248805,jump
05/08/2020, 15:22:53,-8.938213,-2.5147705,2.7973828,-0.08269779,-0.18685059,-0.17302379,9.697477985262925,0.26774857560248805,jump
05/08/2020, 15:22:53,-8.938213,-2.5147705,2.7973828,-0.07781087,-0.17707676,-0.18401936,9.697477985262925,0.26697159561859024,jump
05/08/2020, 15:22:53,-9.06994,-2.5411158,2.8524685,-0.07781087,-0.17707676,-0.18401936,9.841628441947366,0.26697159561859024,jump
05/08/2020, 15:22:54,-9.125025,-2.2968237,2.6967921,-0.014280906,-0.020695316,-0.026416188,9.788471003225098,0.03646992404108332,jump
05/08/2020, 15:22:54,-9.125025,-2.2968237,2.6967921,-0.030163398,-0.05368203,-0.016642349,9.788471003225098,0.06378525392837942,jump
05/08/2020, 15:22:54,-9.010064,-2.327959,2.7183473,-0.030163398,-0.05368203,-0.016642349,9.694847138000249,0.06378525392837942,jump
05/08/2020, 15:22:54,-9.010064,-2.327959,2.7183473,-0.041158967,-0.06712106,-0.008090238,9.694847138000249,0.07915016749893401,jump
05/08/2020, 15:22:54,-8.899893,-2.3447242,2.792593,-0.041158967,-0.06712106,-0.008090238,9.617920727744963,0.07915016749893401,jump
05/08/2020, 15:22:54,-8.899893,-2.3447242,2.792593,-0.047267616,-0.05979068,-0.004425048,9.617920727744963,0.07634614440879194,jump
05/08/2020, 15:22:54,-8.873548,-2.4069948,2.8261232,-0.047267616,-0.05979068,-0.004425048,9.618754743173513,0.07634614440879194,jump
05/08/2020, 15:22:54,-8.873548,-2.4069948,2.8261232,-0.042380698,-0.04268646,-7.598577E-4,9.618754743173513,0.06015675110266268,jump
05/08/2020, 15:22:54,-8.801697,-2.3950195,2.8764186,-0.042380698,-0.04268646,-7.598577E-4,9.564505665396878,0.06015675110266268,jump
05/08/2020, 15:22:54,-8.801697,-2.3950195,2.8764186,-0.033828586,-0.026803965,0.0016836026,9.564505665396878,0.043193289961002516,jump
05/08/2020, 15:22:54,-8.777747,-2.4333398,2.8596535,-0.033828586,-0.026803965,0.0016836026,9.547125527483947,0.043193289961002516,jump
05/08/2020, 15:22:54,-8.777747,-2.4333398,2.8596535,-0.022833018,-0.015808396,0.0090139825,9.547125527483947,0.029197670453756236,jump
05/08/2020, 15:22:54,-8.863968,-2.3998096,2.8548634,-0.022833018,-0.015808396,0.0090139825,9.616613646506911,0.029197670453756236,jump
05/08/2020, 15:22:54,-8.863968,-2.3998096,2.8548634,-0.019167827,-0.008478015,0.017566092,9.616613646506911,0.0273468451881299,jump
05/08/2020, 15:22:54,-8.899893,-2.435735,2.8596535,-0.019167827,-0.008478015,0.017566092,9.660150873016448,0.0273468451881299,jump
05/08/2020, 15:22:54,-8.899893,-2.435735,2.8596535,-0.019167827,-0.004812825,0.026118202,9.660150873016448,0.032752547628450396,jump
05/08/2020, 15:22:54,-8.954978,-2.42376,2.8596535,-0.019167827,-0.004812825,0.026118202,9.707927740031057,0.032752547628450396,jump
05/08/2020, 15:22:54,-8.954978,-2.42376,2.8596535,-0.021611286,-0.008478015,0.031005124,9.707927740031057,0.03873295911495332,jump
05/08/2020, 15:22:54,-8.981323,-2.3974147,2.818938,-0.021611286,-0.008478015,0.031005124,9.713813663654964,0.03873295911495332,jump
05/08/2020, 15:22:54,-8.981323,-2.3974147,2.818938,-0.027719935,-0.013364935,0.035892043,9.713813663654964,0.04727848436325465,jump
05/08/2020, 15:22:55,-8.248447,-5.575606,0.12933107,-0.6446936,0.008626206,-0.30985755,9.95695697217097,0.7153432502974842,jump
05/08/2020, 15:22:55,-8.207732,-5.9947343,0.25387207,-0.6446936,0.008626206,-0.30985755,10.167013232915533,0.7153432502974842,jump
05/08/2020, 15:22:55,-8.207732,-5.9947343,0.25387207,-1.0112126,-0.043908186,-0.4870084,10.167013232915533,1.1232346149923051,jump
05/08/2020, 15:22:55,-8.143066,-6.4928985,0.26105714,-1.0112126,-0.043908186,-0.4870084,10.418033009766166,1.1232346149923051,jump
05/08/2020, 15:22:55,-8.143066,-6.4928985,0.26105714,-1.4876873,-0.07322971,-0.7032546,10.418033009766166,1.6471621791485462,jump
05/08/2020, 15:22:55,-8.150251,-7.048543,-0.040715333,-1.4876873,-0.07322971,-0.7032546,10.775444933958536,1.6471621791485462,jump
05/08/2020, 15:22:55,-8.150251,-7.048543,-0.040715333,-2.0423527,-0.08056009,-0.95615274,10.775444933958536,2.256528847435697,jump
05/08/2020, 15:22:55,-8.169412,-7.606582,-0.35925296,-2.0423527,-0.08056009,-0.95615274,11.168188831513925,2.256528847435697,jump
05/08/2020, 15:22:55,-8.169412,-7.606582,-0.35925296,-2.5933528,-0.062234137,-1.2383724,11.168188831513925,2.8745291993885767,jump
05/08/2020, 15:22:55,-8.289163,-8.2197075,-0.7232959,-2.5933528,-0.062234137,-1.2383724,11.696023486887649,2.8745291993885767,jump
05/08/2020, 15:22:55,-8.289163,-8.2197075,-0.7232959,-3.0429494,-0.019473584,-1.5132617,11.696023486887649,3.3985116452413875,jump
05/08/2020, 15:22:55,-8.449629,-9.299861,-0.9029224,-3.0429494,-0.019473584,-1.5132617,12.597575559560344,3.3985116452413875,jump
05/08/2020, 15:22:55,-8.449629,-9.299861,-0.9029224,-3.2701912,0.047721565,-1.7576077,12.597575559560344,3.7128981410343673,jump
05/08/2020, 15:22:55,-8.610096,-10.861414,-0.87178713,-3.2701912,0.047721565,-1.7576077,13.88755121196492,3.7128981410343673,jump
05/08/2020, 15:22:55,-8.610096,-10.861414,-0.87178713,-3.1932223,0.1259123,-2.017836,13.88755121196492,3.779442414516028,jump
05/08/2020, 15:22:55,-8.581355,-13.028907,-0.97237796,-3.1932223,0.1259123,-2.017836,15.631301517652586,3.779442414516028,jump
05/08/2020, 15:22:55,-8.581355,-13.028907,-0.97237796,-2.9146678,0.15767728,-2.3733594,15.631301517652586,3.7620454288991487,jump
05/08/2020, 15:22:55,-8.631651,-15.479012,-0.9651929,-2.9146678,0.15767728,-2.3733594,17.749275849099988,3.7620454288991487,jump
05/08/2020, 15:22:55,-8.631651,-15.479012,-0.9651929,-2.6238961,0.14790343,-2.8498342,17.749275849099988,3.876630143757453,jump
05/08/2020, 15:22:55,-8.832832,-17.490828,-1.219065,-2.6238961,0.14790343,-2.8498342,19.63247552364557,3.876630143757453,jump
05/08/2020, 15:22:56,-8.576566,-11.0123005,0.81909674,-0.06925876,0.18455534,-0.02397273,13.982101470195483,0.1985752741710531,jump
05/08/2020, 15:22:56,-8.013736,-10.078242,0.8382569,-0.06925876,0.18455534,-0.02397273,12.90324003999896,0.1985752741710531,jump
05/08/2020, 15:22:56,-8.013736,-10.078242,0.8382569,-8.418765E-4,0.10147768,-0.21211915,12.90324003999896,0.23514455430856623,jump
05/08/2020, 15:22:56,-7.6089773,-9.206455,0.8765772,-8.418765E-4,0.10147768,-0.21211915,11.975965152045504,0.23514455430856623,jump
05/08/2020, 15:22:56,-7.6089773,-9.206455,0.8765772,-0.010615716,0.055051945,-0.40270904,11.975965152045504,0.4065931364645107,jump
05/08/2020, 15:22:56,-7.5179667,-8.466394,1.0418335,-0.010615716,0.055051945,-0.40270904,11.370359521435166,0.4065931364645107,jump
05/08/2020, 15:22:56,-7.5179667,-8.466394,1.0418335,-0.059484914,0.042834643,-0.57008606,11.370359521435166,0.5747794182869749,jump
05/08/2020, 15:22:56,-7.5467067,-7.8580594,1.2046949,-0.059484914,0.042834643,-0.57008606,10.961440097743013,0.5747794182869749,jump
05/08/2020, 15:22:56,-7.5467067,-7.8580594,1.2046949,-0.108354114,0.025730425,-0.7093633,10.961440097743013,0.7180521807488146,jump
05/08/2020, 15:22:56,-7.678433,-7.5323367,1.1448194,-0.108354114,0.025730425,-0.7093633,10.816886806633732,0.7180521807488146,jump
05/08/2020, 15:22:56,-7.678433,-7.5323367,1.1448194,-0.14500603,-0.041464727,-0.8303145,10.816886806633732,0.84390062789402,jump
05/08/2020, 15:22:56,-7.726333,-7.3622904,1.0825489,-0.14500603,-0.041464727,-0.8303145,10.72713640784658,0.84390062789402,jump
05/08/2020, 15:22:56,-7.726333,-7.3622904,1.0825489,-0.17188409,-0.15508561,-0.9390485,10.72713640784658,0.9671648388025158,jump
05/08/2020, 15:22:56,-7.7454934,-7.335945,0.87897223,-0.17188409,-0.15508561,-0.9390485,10.704267902212028,0.9671648388025158,jump
05/08/2020, 15:22:56,-7.7454934,-7.335945,0.87897223,-0.23785752,-0.3041367,-1.058778,10.704267902212028,1.1269810479393876,jump
05/08/2020, 15:22:56,-7.719148,-7.1874537,0.79754156,-0.23785752,-0.3041367,-1.058778,10.57737265114829,1.1269810479393876,jump
05/08/2020, 15:22:56,-7.719148,-7.1874537,0.79754156,-0.32460034,-0.42875317,-1.172399,10.57737265114829,1.2898504475494392,jump
05/08/2020, 15:22:56,-7.8891945,-6.9240017,0.81909674,-0.32460034,-0.42875317,-1.172399,10.52863279864127,1.2898504475494392,jump
05/08/2020, 15:22:56,-7.8891945,-6.9240017,0.81909674,-0.4003476,-0.5045004,-1.2566984,10.52863279864127,1.4121223845288673,jump
05/08/2020, 15:22:56,-8.109536,-6.7300053,0.7664063,-0.4003476,-0.5045004,-1.2566984,10.566216275398482,1.4121223845288673,jump
05/08/2020, 15:22:57,-8.648416,-5.5660257,0.5939649,-0.074145675,0.0074044755,-0.041076947,10.301870147542193,0.08508656127556057,jump
05/08/2020, 15:22:57,-8.6627865,-5.52052,0.51013917,-0.074145675,0.0074044755,-0.041076947,10.28495284506811,0.08508656127556057,jump
05/08/2020, 15:22:57,-8.6627865,-5.52052,0.51013917,0.063909814,-0.041464727,-0.0032033178,10.28495284506811,0.07624991249654,jump
05/08/2020, 15:22:57,-8.614885,-5.52052,0.43589357,0.063909814,-0.041464727,-0.0032033178,10.241210663043042,0.07624991249654,jump
05/08/2020, 15:22:57,-8.614885,-5.52052,0.43589357,0.19830011,-0.08666874,0.038335506,10.241210663043042,0.2197817416921027,jump
05/08/2020, 15:22:57,-8.368198,-5.513335,0.3784131,0.19830011,-0.08666874,0.038335506,10.028300264392307,0.2197817416921027,jump
05/08/2020, 15:22:57,-8.368198,-5.513335,0.3784131,0.31436446,-0.10255123,0.06521356,10.028300264392307,0.3370379486509694,jump
05/08/2020, 15:22:57,-8.174202,-5.4510646,0.43349856,0.31436446,-0.10255123,0.06521356,9.83461254450183,0.3370379486509694,jump
05/08/2020, 15:22:57,-8.174202,-5.4510646,0.43349856,0.40965942,-0.0891122,0.082317784,9.83461254450183,0.4272447056293867,jump
05/08/2020, 15:22:57,-8.011341,-5.357659,0.51492923,0.40965942,-0.0891122,0.082317784,9.651489353981185,0.4272447056293867,jump
05/08/2020, 15:22:57,-8.011341,-5.357659,0.51492923,0.47563282,-0.051238567,0.08598297,9.651489353981185,0.48605044818096876,jump
05/08/2020, 15:22:57,-8.032896,-5.252278,0.66342044,0.47563282,-0.051238567,0.08598297,9.620497290850983,0.48605044818096876,jump
05/08/2020, 15:22:57,-8.032896,-5.252278,0.66342044,0.4866284,0.0012958252,0.07132221,9.620497290850983,0.4918289838503025,jump
05/08/2020, 15:22:57,-8.193362,-5.132527,0.67539555,0.4866284,0.0012958252,0.07132221,9.691758147792779,0.4918289838503025,jump
05/08/2020, 15:22:57,-8.193362,-5.132527,0.67539555,0.4377592,0.056273676,0.043222424,9.691758147792779,0.4434726752521266,jump
05/08/2020, 15:22:57,-8.495134,-5.0271463,0.4766089,0.4377592,0.056273676,0.043222424,9.88264458785884,0.4434726752521266,jump
05/08/2020, 15:22:57,-8.495134,-5.0271463,0.4766089,0.3522381,0.06604751,0.017566092,9.88264458785884,0.35880706887387553,jump
05/08/2020, 15:22:57,-8.768167,-4.9648757,0.20118165,0.3522381,0.06604751,0.017566092,10.078254276561196,0.35880706887387553,jump
05/08/2020, 15:22:57,-8.768167,-4.9648757,0.20118165,0.25572142,0.006182745,0.011457441,10.078254276561196,0.2560526195375322,jump
05/08/2020, 15:22:57,-8.866363,-4.87147,-0.07903565,0.25572142,0.006182745,0.011457441,10.116810347105009,0.2560526195375322,jump
05/08/2020, 15:22:58,-8.59333,-3.7314405,1.951941,0.34124252,-0.019473584,0.029783392,9.569694317504066,0.3430928879594301,jump
05/08/2020, 15:22:58,-8.59333,-3.7314405,1.951941,0.33757734,-0.006034555,0.031005124,9.569694317504066,0.3390519075931164,jump
05/08/2020, 15:22:58,-8.672366,-3.6883302,1.961521,0.33757734,-0.006034555,0.031005124,9.626072860902267,0.3390519075931164,jump
05/08/2020, 15:22:58,-8.672366,-3.6883302,1.961521,0.32658178,0.008626206,0.029783392,9.626072860902267,0.32805048147173715,jump
05/08/2020, 15:22:58,-8.725057,-3.657195,1.8729054,0.32658178,0.008626206,0.029783392,9.644141433484538,0.32805048147173715,jump
05/08/2020, 15:22:58,-8.725057,-3.657195,1.8729054,0.2948168,0.006182745,0.033448584,9.644141433484538,0.29677259810442014,jump
05/08/2020, 15:22:58,-8.823253,-3.6236646,1.7555494,0.2948168,0.006182745,0.033448584,9.6985920051792,0.29677259810442014,jump
05/08/2020, 15:22:58,-8.823253,-3.6236646,1.7555494,0.2544997,-0.015808396,0.039557233,9.6985920051792,0.2580402667406637,jump
05/08/2020, 15:22:58,-8.746612,-3.5254688,1.698069,0.2544997,-0.015808396,0.039557233,9.582044828233135,0.2580402667406637,jump
05/08/2020, 15:22:58,-8.746612,-3.5254688,1.698069,0.20685223,-0.043908186,0.040778965,9.582044828233135,0.21535713776859677,jump
05/08/2020, 15:22:58,-8.617281,-3.544629,1.6717237,0.20685223,-0.043908186,0.040778965,9.466603762047816,0.21535713776859677,jump
05/08/2020, 15:22:58,-8.617281,-3.544629,1.6717237,0.15553956,-0.06101241,0.039557233,9.466603762047816,0.17169695030434273,jump
05/08/2020, 15:22:58,-8.5430355,-3.5613942,1.7172291,0.15553956,-0.06101241,0.039557233,9.413599752856,0.17169695030434273,jump
05/08/2020, 15:22:58,-8.5430355,-3.5613942,1.7172291,0.11033556,-0.05979068,0.033448584,9.413599752856,0.12987558860063628,jump
05/08/2020, 15:22:58,-8.459209,-3.5805542,1.8465601,0.11033556,-0.05979068,0.033448584,9.36954520667387,0.12987558860063628,jump
05/08/2020, 15:22:58,-8.459209,-3.5805542,1.8465601,0.07490539,-0.045129918,0.032226853,9.36954520667387,0.09319923110264304,jump
05/08/2020, 15:22:58,-8.401729,-3.67875,1.9758912,0.07490539,-0.045129918,0.032226853,9.382238111403305,0.09319923110264304,jump
05/08/2020, 15:22:58,-8.401729,-3.67875,1.9758912,0.046805598,-0.020695316,0.027339933,9.382238111403305,0.05802182383099917,jump
05/08/2020, 15:22:58,-8.411309,-3.7146754,2.0860622,0.046805598,-0.020695316,0.027339933,9.428711055365445,0.05802182383099917,jump
05/08/2020, 15:22:58,-8.411309,-3.7146754,2.0860622,0.029701374,0.008626206,0.023674743,9.428711055365445,0.03894966676033055,jump
05/08/2020, 15:22:59,-8.638836,-3.7458107,2.2129982,-0.09980201,-0.058568947,0.022453012,9.672535593162005,0.11787663234289236,jump
05/08/2020, 15:22:59,-8.59333,-3.8056862,2.1674929,-0.09980201,-0.058568947,0.022453012,9.645029814649805,0.11787663234289236,jump
05/08/2020, 15:22:59,-8.59333,-3.8056862,2.1674929,-0.11079758,-0.06712106,0.023674743,9.645029814649805,0.13168839345636105,jump
05/08/2020, 15:22:59,-8.59333,-3.7529957,2.184258,-0.11079758,-0.06712106,0.023674743,9.628150755112639,0.13168839345636105,jump
05/08/2020, 15:22:59,-8.59333,-3.7529957,2.184258,-0.11324104,-0.06956452,0.023674743,9.628150755112639,0.1349935148674115,jump
05/08/2020, 15:22:59,-8.547825,-3.8511915,2.1243825,-0.11324104,-0.06956452,0.023674743,9.613011336130135,0.1349935148674115,jump
05/08/2020, 15:22:59,-8.547825,-3.8511915,2.1243825,-0.09980201,-0.06589933,0.021231283,9.613011336130135,0.12146575591713585,jump
05/08/2020, 15:22:59,-8.523875,-3.9374123,2.184258,-0.09980201,-0.06589933,0.021231283,9.640054320886259,0.12146575591713585,jump
05/08/2020, 15:22:59,-8.523875,-3.9374123,2.184258,-0.07292394,-0.062234137,0.023674743,9.640054320886259,0.09874959657107231,jump
05/08/2020, 15:22:59,-8.413704,-4.006868,2.203418,-0.07292394,-0.062234137,0.023674743,9.57603544454453,0.09874959657107231,jump
05/08/2020, 15:22:59,-8.413704,-4.006868,2.203418,-0.035050318,-0.056125488,0.033448584,9.57603544454453,0.07414447371166008,jump
05/08/2020, 15:22:59,-8.394544,-4.0116577,2.184258,-0.035050318,-0.056125488,0.033448584,9.556816604742842,0.07414447371166008,jump
05/08/2020, 15:22:59,-8.394544,-4.0116577,2.184258,0.0028233137,-0.04635165,0.040778965,9.556816604742842,0.06180105516629675,jump
05/08/2020, 15:22:59,-8.459209,-4.028423,2.2273684,0.0028233137,-0.04635165,0.040778965,9.6305547447299,0.06180105516629675,jump
05/08/2020, 15:22:59,-8.459209,-4.028423,2.2273684,0.027257916,-0.026803965,0.043222424,9.6305547447299,0.057702897621651136,jump
05/08/2020, 15:22:59,-8.54543,-4.0020776,2.208208,0.027257916,-0.026803965,0.043222424,9.691087911817828,0.057702897621651136,jump
05/08/2020, 15:22:59,-8.54543,-4.0020776,2.208208,0.032144837,-0.012143205,0.038335506,9.691087911817828,0.05148163737933084,jump
05/08/2020, 15:22:59,-8.653206,-3.8727467,2.095642,0.032144837,-0.012143205,0.038335506,9.709163438402369,0.05148163737933084,jump
05/08/2020, 15:22:59,-8.653206,-3.8727467,2.095642,0.019927535,-0.020695316,0.031005124,9.709163438402369,0.042269616056403315,jump
05/08/2020, 15:22:59,-8.696317,-3.8248463,1.9854712,0.019927535,-0.020695316,0.031005124,9.705538085484081,0.042269616056403315,jump
05/08/2020, 15:23:00,-8.495134,-3.8607717,2.2872438,0.022370994,0.024508696,0.020009553,9.607515280451562,0.038749448671224575,jump
05/08/2020, 15:23:00,-8.495134,-3.8607717,2.2872438,0.028479645,0.035504263,0.013900902,9.607515280451562,0.04759073380867411,jump
05/08/2020, 15:23:00,-8.557405,-3.8559816,2.2944288,0.028479645,0.035504263,0.013900902,9.662410985533036,0.04759073380867411,jump
05/08/2020, 15:23:00,-8.557405,-3.8559816,2.2944288,0.032144837,0.040391184,0.0090139825,9.662410985533036,0.05240219659241867,jump
05/08/2020, 15:23:00,-8.590936,-3.8104763,2.3135889,0.032144837,0.040391184,0.0090139825,9.67866723170758,0.05240219659241867,jump
05/08/2020, 15:23:00,-8.590936,-3.8104763,2.3135889,0.038253486,0.039169453,0.0041270624,9.67866723170758,0.054905445103763696,jump
05/08/2020, 15:23:00,-8.638836,-3.8392165,2.308799,0.038253486,0.039169453,0.0041270624,9.73137307322709,0.054905445103763696,jump
05/08/2020, 15:23:00,-8.638836,-3.8392165,2.308799,0.040696945,0.030617347,0.002905332,9.73137307322709,0.05101082459995554,jump
05/08/2020, 15:23:00,-8.629255,-3.8104763,2.2920337,0.040696945,0.030617347,0.002905332,9.707584403672666,0.05101082459995554,jump
05/08/2020, 15:23:00,-8.629255,-3.8104763,2.2920337,0.041918673,0.025730425,4.618722E-4,9.707584403672666,0.04918783626318297,jump
05/08/2020, 15:23:00,-8.614885,-3.8344264,2.3854396,0.041918673,0.025730425,4.618722E-4,9.726736212207658,0.04918783626318297,jump
05/08/2020, 15:23:00,-8.614885,-3.8344264,2.3854396,0.043140404,0.023286967,0.0016836026,9.726736212207658,0.04905315262362034,jump
05/08/2020, 15:23:00,-8.636441,-3.774551,2.3926246,0.043140404,0.023286967,0.0016836026,9.724196845849566,0.04905315262362034,jump
05/08/2020, 15:23:00,-8.636441,-3.774551,2.3926246,0.043140404,0.020843506,0.002905332,9.724196845849566,0.04799986605786929,jump
05/08/2020, 15:23:00,-8.679551,-3.8080812,2.3710694,0.043140404,0.020843506,0.002905332,9.770264071024107,0.04799986605786929,jump
05/08/2020, 15:23:00,-8.679551,-3.8080812,2.3710694,0.05413598,0.022065235,0.002905332,9.770264071024107,0.058532210799699225,jump
05/08/2020, 15:23:00,-8.653206,-3.8248463,2.4093897,0.05413598,0.022065235,0.002905332,9.76281617767736,0.058532210799699225,jump
05/08/2020, 15:23:00,-8.653206,-3.8248463,2.4093897,0.07368366,0.028173886,0.0053487928,9.76281617767736,0.0790674314888666,jump
05/08/2020, 15:23:00,-8.686736,-3.8799317,2.4572902,0.07368366,0.028173886,0.0053487928,9.82606376371681,0.0790674314888666,jump
05/08/2020, 15:23:00,-8.686736,-3.8799317,2.4572902,0.093231335,0.030617347,0.010235712,9.82606376371681,0.09866242250124548,jump
05/08/2020, 15:23:01,-13.009747,-6.143225,-0.7113208,-0.43455604,3.176572,6.8262677,14.404815112044643,7.541709364073078,jump
05/08/2020, 15:23:01,-11.773916,-7.654483,-1.6884888,-0.43455604,3.176572,6.8262677,14.144511510466744,7.541709364073078,jump
05/08/2020, 15:23:01,-11.773916,-7.654483,-1.6884888,-0.5677246,3.439244,5.972278,14.144511510466744,6.915115084823785,jump
05/08/2020, 15:23:01,-12.399016,-11.232642,-2.7087672,-0.5677246,3.439244,5.972278,16.94831192228593,6.915115084823785,jump
05/08/2020, 15:23:01,-12.399016,-11.232642,-2.7087672,-1.488909,3.8766234,5.0339894,16.94831192228593,6.525803286092279,jump
05/08/2020, 15:23:01,-15.88856,-15.567628,-3.0704153,-1.488909,3.8766234,5.0339894,22.454951274825905,6.525803286092279,jump
05/08/2020, 15:23:01,-15.88856,-15.567628,-3.0704153,-2.4247541,4.2113776,4.8898253,22.454951274825905,6.893875978911154,jump
05/08/2020, 15:23:01,-20.312162,-18.357826,-1.951941,-2.4247541,4.2113776,4.8898253,27.44820210965519,6.893875978911154,jump
05/08/2020, 15:23:01,-20.312162,-18.357826,-1.951941,-2.4247541,3.9719183,5.409061,27.44820210965519,7.135370235917368,jump
05/08/2020, 15:23:01,-22.54911,-18.151854,-0.19160157,-2.4247541,3.9719183,5.409061,28.948037572129135,7.135370235917368,jump
05/08/2020, 15:23:01,-22.54911,-18.151854,-0.19160157,-1.5231175,3.181459,5.752367,28.948037572129135,6.74768808016221,jump
05/08/2020, 15:23:01,-21.344416,-16.346008,1.7579445,-1.5231175,3.181459,5.752367,26.94190854739977,6.74768808016221,jump
05/08/2020, 15:23:01,-21.344416,-16.346008,1.7579445,-0.35636532,2.466747,5.538564,26.94190854739977,6.073510573370063,jump
05/08/2020, 15:23:01,-18.357826,-14.827566,4.0571632,-0.35636532,2.466747,5.538564,23.944249317550042,6.073510573370063,jump
05/08/2020, 15:23:01,-18.357826,-14.827566,4.0571632,0.71142673,2.1869707,5.014442,23.944249317550042,5.516665399440025,jump
05/08/2020, 15:23:01,-15.878981,-14.226417,7.1203933,0.71142673,2.1869707,5.014442,22.47738764616225,5.516665399440025,jump
05/08/2020, 15:23:01,-15.878981,-14.226417,7.1203933,1.6668196,2.249279,4.463442,22.47738764616225,5.268762354111175,jump
05/08/2020, 15:23:01,-14.228811,-14.293477,8.981323,1.6668196,2.249279,4.463442,22.077742719480764,5.268762354111175,jump
05/08/2020, 15:23:01,-14.228811,-14.293477,8.981323,2.393749,2.4606383,3.8892286,22.077742719480764,5.187569180509009,jump
05/08/2020, 15:23:01,-13.400135,-13.989309,9.354947,2.393749,2.4606383,3.8892286,21.512308782501965,5.187569180509009,jump
05/08/2020, 15:23:02,-9.754915,-2.6656568,3.5206788,0.11522248,0.33971503,0.4476151,10.707907191091785,0.5736216430549278,jump
05/08/2020, 15:23:02,-9.896221,-1.4705421,4.0978785,0.11522248,0.33971503,0.4476151,10.811581526100424,0.5736216430549278,jump
05/08/2020, 15:23:02,-9.896221,-1.4705421,4.0978785,-0.5579508,0.10514288,0.49404082,10.811581526100424,0.752622377203076,jump
05/08/2020, 15:23:02,-9.429193,-0.41912845,4.009263,-0.5579508,0.10514288,0.49404082,10.254732116551182,0.752622377203076,jump
05/08/2020, 15:23:02,-9.429193,-0.41912845,4.009263,-1.393614,0.0012958252,0.37797648,10.254732116551182,1.4439626128061664,jump
05/08/2020, 15:23:02,-8.53585,-0.13172609,3.6045046,-1.393614,0.0012958252,0.37797648,9.26663547192873,1.4439626128061664,jump
05/08/2020, 15:23:02,-8.53585,-0.13172609,3.6045046,-2.1975124,0.0074044755,0.07254394,9.26663547192873,2.1987219346970566,jump
05/08/2020, 15:23:02,-7.903565,-1.1855347,3.06802,-2.1975124,0.0074044755,0.07254394,8.5606412453186,2.1987219346970566,jump
05/08/2020, 15:23:02,-7.903565,-1.1855347,3.06802,-2.6984217,0.042834643,-0.25732315,8.5606412453186,2.7110016173303153,jump
05/08/2020, 15:23:02,-7.90117,-3.1183155,2.9482691,-2.6984217,0.042834643,-0.25732315,8.991366191905943,2.7110016173303153,jump
05/08/2020, 15:23:02,-7.90117,-3.1183155,2.9482691,-2.6507742,0.034282535,-0.44913477,8.991366191905943,2.688773215663781,jump
05/08/2020, 15:23:02,-8.167017,-5.362449,3.2428565,-2.6507742,0.034282535,-0.44913477,10.294277332040869,2.688773215663781,jump
05/08/2020, 15:23:02,-8.167017,-5.362449,3.2428565,-2.1242085,0.0135131255,-0.4259219,10.294277332040869,2.1665303134092944,jump
05/08/2020, 15:23:02,-8.56459,-7.3694754,3.781736,-2.1242085,0.0135131255,-0.4259219,11.914818638667214,2.1665303134092944,jump
05/08/2020, 15:23:02,-8.56459,-7.3694754,3.781736,-1.3752881,0.057495404,-0.21089743,11.914818638667214,1.3925519326607751,jump
05/08/2020, 15:23:02,-8.837623,-8.420889,4.0020776,-1.3752881,0.057495404,-0.21089743,12.846461333874917,1.3925519326607751,jump
05/08/2020, 15:23:02,-8.837623,-8.420889,4.0020776,-0.5384031,0.15645555,0.08476124,12.846461333874917,0.5670455865566045,jump
05/08/2020, 15:23:02,-8.954978,-8.329878,3.9565725,-0.5384031,0.15645555,0.08476124,12.854297415479609,0.5670455865566045,jump
05/08/2020, 15:23:02,-8.954978,-8.329878,3.9565725,0.31680793,0.23586799,0.32788554,12.854297415479609,0.5133321514477241,jump
05/08/2020, 15:23:02,-8.914263,-7.549102,3.6116896,0.31680793,0.23586799,0.32788554,12.226909696497653,0.5133321514477241,jump
05/08/2020, 15:23:03,-8.782537,-3.4248781,2.6536818,-0.047267616,-0.013364935,0.010235712,9.793098653591068,0.05017587863827054,jump
05/08/2020, 15:23:03,-8.756192,-3.391348,2.6608667,-0.047267616,-0.013364935,0.010235712,9.759731258791229,0.05017587863827054,jump
05/08/2020, 15:23:03,-8.756192,-3.391348,2.6608667,-0.055819727,-0.013364935,0.010235712,9.759731258791229,0.05830294392355605,jump
05/08/2020, 15:23:03,-8.729847,-3.391348,2.6441016,-0.055819727,-0.013364935,0.010235712,9.731533368369831,0.05830294392355605,jump
05/08/2020, 15:23:03,-8.729847,-3.391348,2.6441016,-0.058263183,-0.015808396,0.0077922526,9.731533368369831,0.060870543262297946,jump
05/08/2020, 15:23:03,-8.710687,-3.427273,2.675237,-0.058263183,-0.015808396,0.0077922526,9.735458676650651,0.060870543262297946,jump
05/08/2020, 15:23:03,-8.710687,-3.427273,2.675237,-0.055819727,-0.019473584,0.0053487928,9.735458676650651,0.0593605260101624,jump
05/08/2020, 15:23:03,-8.650811,-3.417693,2.675237,-0.055819727,-0.019473584,0.0053487928,9.678535621770566,0.0593605260101624,jump
05/08/2020, 15:23:03,-8.650811,-3.417693,2.675237,-0.053376265,-0.017030125,0.0016836026,9.678535621770566,0.056052523075396335,jump
05/08/2020, 15:23:03,-8.576566,-3.432063,2.6967921,-0.053376265,-0.017030125,0.0016836026,9.62336868490518,0.056052523075396335,jump
05/08/2020, 15:23:03,-8.576566,-3.432063,2.6967921,-0.047267616,-0.010921475,4.618722E-4,9.62336868490518,0.04851514645087806,jump
05/08/2020, 15:23:03,-8.629255,-3.4608033,2.694397,-0.047267616,-0.010921475,4.618722E-4,9.679926717960495,0.04851514645087806,jump
05/08/2020, 15:23:03,-8.629255,-3.4608033,2.694397,-0.039937235,-0.002369365,0.002905332,9.679926717960495,0.04011281113336837,jump
05/08/2020, 15:23:03,-8.600515,-3.542234,2.7446926,-0.039937235,-0.002369365,0.002905332,9.697918495144311,0.04011281113336837,jump
05/08/2020, 15:23:03,-8.600515,-3.542234,2.7446926,-0.030163398,0.006182745,0.0041270624,9.697918495144311,0.03106589062951395,jump
05/08/2020, 15:23:03,-8.614885,-3.515889,2.7758276,-0.030163398,0.006182745,0.0041270624,9.709940439460004,0.03106589062951395,jump
05/08/2020, 15:23:03,-8.614885,-3.515889,2.7758276,-0.020389555,0.009847935,0.006570522,9.709940439460004,0.023577267558858736,jump
05/08/2020, 15:23:03,-8.760982,-3.537444,2.7758276,-0.020389555,0.009847935,0.006570522,9.847513791641813,0.023577267558858736,jump
05/08/2020, 15:23:03,-8.760982,-3.537444,2.7758276,-0.015502637,0.006182745,0.012679173,9.847513791641813,0.02095995034768526,jump
05/08/2020, 15:23:03,-8.780142,-3.5613942,2.7614577,-0.015502637,0.006182745,0.012679173,9.869147270270904,0.02095995034768526,jump
05/08/2020, 15:23:04,-8.657996,-3.4512234,2.7518775,-0.035050318,0.006182745,0.0016836026,9.718264794482936,0.03563124501910956,jump
05/08/2020, 15:23:04,-8.715476,-3.4823585,2.7806177,-0.035050318,0.006182745,0.0016836026,9.788675999339508,0.03563124501910956,jump
05/08/2020, 15:23:04,-8.715476,-3.4823585,2.7806177,-0.031385124,0.015956586,-7.598577E-4,9.788675999339508,0.03521670085736858,jump
05/08/2020, 15:23:04,-8.715476,-3.532654,2.8524685,-0.031385124,0.015956586,-7.598577E-4,9.827295845810443,0.03521670085736858,jump
05/08/2020, 15:23:04,-8.715476,-3.532654,2.8524685,-0.022833018,0.0135131255,4.618722E-4,9.827295845810443,0.026536099569219294,jump
05/08/2020, 15:23:04,-8.765772,-3.515889,2.7686427,-0.022833018,0.0135131255,4.618722E-4,9.842032999759576,0.026536099569219294,jump
05/08/2020, 15:23:04,-8.765772,-3.515889,2.7686427,-0.010615716,0.0025175551,0.0053487928,9.842032999759576,0.012150764954183187,jump
05/08/2020, 15:23:04,-8.770562,-3.5039136,2.7758276,-0.010615716,0.0025175551,0.0053487928,9.844053572432903,0.012150764954183187,jump
05/08/2020, 15:23:04,-8.770562,-3.5039136,2.7758276,-8.418765E-4,-0.012143205,0.0077922526,9.844053572432903,0.014452867606517242,jump
05/08/2020, 15:23:04,-8.684341,-3.4919386,2.787803,-8.418765E-4,-0.012143205,0.0077922526,9.76643570654676,0.014452867606517242,jump
05/08/2020, 15:23:04,-8.684341,-3.4919386,2.787803,0.004045044,-0.014586665,0.010235712,9.76643570654676,0.01827301202405305,jump
05/08/2020, 15:23:04,-8.634046,-3.4727786,2.8620484,0.004045044,-0.014586665,0.010235712,9.736439561194743,0.01827301202405305,jump
05/08/2020, 15:23:04,-8.634046,-3.4727786,2.8620484,0.006488504,-0.009699745,0.006570522,9.736439561194743,0.013392441893383853,jump
05/08/2020, 15:23:04,-8.581355,-3.4799635,2.794988,0.006488504,-0.009699745,0.006570522,9.672732755933701,0.013392441893383853,jump
05/08/2020, 15:23:04,-8.581355,-3.4799635,2.794988,0.008931965,0.0012958252,0.0016836026,9.672732755933701,0.009181158582857046,jump
05/08/2020, 15:23:04,-8.629255,-3.4727786,2.811753,0.008931965,0.0012958252,0.0016836026,9.717519899045655,0.009181158582857046,jump
05/08/2020, 15:23:04,-8.629255,-3.4727786,2.811753,0.008931965,0.0049610157,-7.598577E-4,9.717519899045655,0.010245440563268282,jump
05/08/2020, 15:23:04,-8.646021,-3.4943337,2.7518775,0.008931965,0.0049610157,-7.598577E-4,9.723007536898864,0.010245440563268282,jump
05/08/2020, 15:23:04,-8.646021,-3.4943337,2.7518775,0.012597155,0.0025175551,-0.0032033178,9.723007536898864,0.013239623795459406,jump
05/08/2020, 15:23:04,-8.646021,-3.4943337,2.7518775,0.016262345,-0.003591095,-0.005646778,9.723007536898864,0.017585389645844773,jump
05/08/2020, 15:23:05,-8.617281,-3.4536183,2.4620802,-0.2415227,-0.03535608,-0.009311968,9.604522348035964,0.24427439376357718,jump
05/08/2020, 15:23:05,-8.617281,-3.4536183,2.4620802,-0.20120561,-0.023138775,0.010235712,9.604522348035964,0.2027902134642074,jump
05/08/2020, 15:23:05,-8.605306,-3.5182838,2.4836354,-0.20120561,-0.023138775,0.010235712,9.62278815298858,0.2027902134642074,jump
05/08/2020, 15:23:05,-8.605306,-3.5182838,2.4836354,-0.15355814,-0.006034555,0.032226853,9.62278815298858,0.15701938334701934,jump
05/08/2020, 15:23:05,-8.631651,-3.5805542,2.555486,-0.15355814,-0.006034555,0.032226853,9.68794482394867,0.15701938334701934,jump
05/08/2020, 15:23:05,-8.631651,-3.5805542,2.555486,-0.10591066,0.014734855,0.055439726,9.68794482394867,0.12044810820537058,jump
05/08/2020, 15:23:05,-8.58854,-3.6188745,2.672842,-0.10591066,0.014734855,0.055439726,9.695532897172338,0.12044810820537058,jump
05/08/2020, 15:23:05,-8.58854,-3.6188745,2.672842,-0.061928377,0.036725994,0.07376567,9.695532897172338,0.10307908103980233,jump
05/08/2020, 15:23:05,-8.54543,-3.6021094,2.6656568,-0.061928377,0.036725994,0.07376567,9.649108538278814,0.10307908103980233,jump
05/08/2020, 15:23:05,-8.54543,-3.6021094,2.6656568,-0.032606855,0.057495404,0.08598297,9.649108538278814,0.10845275360287374,jump
05/08/2020, 15:23:05,-8.53106,-3.551814,2.7087672,-0.032606855,0.057495404,0.08598297,9.629734748309335,0.10845275360287374,jump
05/08/2020, 15:23:05,-8.53106,-3.551814,2.7087672,-0.016724365,0.07704309,0.089648165,9.629734748309335,0.11938230596598437,jump
05/08/2020, 15:23:05,-8.5598,-3.5015187,2.694397,-0.016724365,0.07704309,0.089648165,9.632787084281858,0.11938230596598437,jump
05/08/2020, 15:23:05,-8.5598,-3.5015187,2.694397,-0.015502637,0.09170385,0.089648165,9.632787084281858,0.12917709076783923,jump
05/08/2020, 15:23:05,-8.576566,-3.4967287,2.682422,-0.015502637,0.09170385,0.089648165,9.642612644869658,0.12917709076783923,jump
05/08/2020, 15:23:05,-8.576566,-3.4967287,2.682422,-0.031385124,0.096590765,0.08109605,9.642612644869658,0.12996680988759418,jump
05/08/2020, 15:23:05,-8.669971,-3.4608033,2.6464968,-0.031385124,0.096590765,0.08109605,9.703067023711062,0.12996680988759418,jump
05/08/2020, 15:23:05,-8.669971,-3.4608033,2.6464968,-0.052154534,0.09170385,0.07010048,9.703067023711062,0.12666399672830386,jump
05/08/2020, 15:23:05,-8.691526,-3.4703834,2.6441016,-0.052154534,0.09170385,0.07010048,9.725094639391108,0.12666399672830386,jump
05/08/2020, 15:23:05,-8.691526,-3.4703834,2.6441016,-0.07048049,0.07704309,0.055439726,9.725094639391108,0.11822309221691926,jump
05/08/2020, 15:23:06,-22.292843,-16.243023,2.304009,3.8207297,5.7226577,6.3840013,27.678784182685725,9.38628034108947,jump
05/08/2020, 15:23:06,-21.104914,-14.058765,2.8979738,3.8207297,5.7226577,6.3840013,25.52380300170025,9.38628034108947,jump
05/08/2020, 15:23:06,-21.104914,-14.058765,2.8979738,5.037573,5.2645087,5.9185224,25.52380300170025,9.38728391686301,jump
05/08/2020, 15:23:06,-19.030827,-11.757152,3.3769777,5.037573,5.2645087,5.9185224,22.623150796962715,9.38728391686301,jump
05/08/2020, 15:23:06,-19.030827,-11.757152,3.3769777,5.933101,5.1569967,5.2245793,22.623150796962715,9.438884152336353,jump
05/08/2020, 15:23:06,-17.787811,-10.473421,3.8080812,5.933101,5.1569967,5.2245793,20.99048026187626,9.438884152336353,jump
05/08/2020, 15:23:06,-17.787811,-10.473421,3.8080812,6.4523363,5.308491,4.5831714,20.99048026187626,9.529857438542713,jump
05/08/2020, 15:23:06,-17.430952,-9.618399,4.1218286,6.4523363,5.308491,4.5831714,20.33079323814936,9.529857438542713,jump
05/08/2020, 15:23:06,-17.430952,-9.618399,4.1218286,6.7663207,5.4196687,3.9661975,20.33079323814936,9.533447800491954,jump
05/08/2020, 15:23:06,-17.76865,-8.796907,4.471502,6.7663207,5.4196687,3.9661975,20.324980531561753,9.533447800491954,jump
05/08/2020, 15:23:06,-17.76865,-8.796907,4.471502,6.9630194,5.269396,3.2979112,20.324980531561753,9.334151767702444,jump
05/08/2020, 15:23:06,-18.482367,-8.097562,4.643943,6.9630194,5.269396,3.2979112,20.70590704256899,9.334151767702444,jump
05/08/2020, 15:23:06,-18.482367,-8.097562,4.643943,6.932476,4.845455,2.619851,20.70590704256899,8.854449714624351,jump
05/08/2020, 15:23:06,-18.681152,-7.3479204,4.2990603,6.932476,4.845455,2.619851,20.529474109286028,8.854449714624351,jump
05/08/2020, 15:23:06,-18.681152,-7.3479204,4.2990603,6.61727,4.2297034,2.0297556,20.529474109286028,8.111631216815647,jump
05/08/2020, 15:23:06,-18.137484,-5.848638,4.282295,6.61727,4.2297034,2.0297556,19.532355996293784,8.111631216815647,jump
05/08/2020, 15:23:06,-18.137484,-5.848638,4.282295,6.0430565,3.529652,1.5422851,19.532355996293784,7.166283491398679,jump
05/08/2020, 15:23:06,-17.100441,-3.7649708,4.140989,6.0430565,3.529652,1.5422851,17.99299516783009,7.166283491398679,jump
05/08/2020, 15:23:06,-17.100441,-3.7649708,4.140989,5.2293844,2.8577006,1.1366707,17.99299516783009,6.066707045604099,jump
05/08/2020, 15:23:06,-16.101717,-1.3244458,4.526587,5.2293844,2.8577006,1.1366707,16.778242963481063,6.066707045604099,jump
05/08/2020, 15:23:07,-8.528665,-7.117998,2.919529,3.2941642,0.17722495,0.5991096,11.485976941777881,3.3528881032948763,jump
05/08/2020, 15:23:07,-8.629255,-6.2581863,2.2513185,3.2941642,0.17722495,0.5991096,10.894832628260644,3.3528881032948763,jump
05/08/2020, 15:23:07,-8.629255,-6.2581863,2.2513185,3.642357,0.14545998,0.66141784,10.894832628260644,3.704780356674338,jump
05/08/2020, 15:23:07,-8.667576,-5.407954,1.6932789,3.642357,0.14545998,0.66141784,10.35567637294143,3.704780356674338,jump
05/08/2020, 15:23:07,-8.667576,-5.407954,1.6932789,3.7889647,0.11247326,0.76037794,10.35567637294143,3.8661452009702906,jump
05/08/2020, 15:23:07,-8.456815,-4.5529323,1.5136524,3.7889647,0.11247326,0.76037794,9.72306802878222,3.8661452009702906,jump
05/08/2020, 15:23:07,-8.456815,-4.5529323,1.5136524,3.8036256,0.07948654,0.83368176,9.72306802878222,3.8947286133329193,jump
05/08/2020, 15:23:07,-8.303533,-3.8895118,1.5471827,3.8036256,0.07948654,0.83368176,9.298963926967428,3.8947286133329193,jump
05/08/2020, 15:23:07,-8.303533,-3.8895118,1.5471827,3.688783,0.068490975,0.850786,9.298963926967428,3.7862444835141478,jump
05/08/2020, 15:23:07,-8.198153,-3.2811768,1.6669337,3.688783,0.068490975,0.850786,8.986350435262118,3.7862444835141478,jump
05/08/2020, 15:23:07,-8.198153,-3.2811768,1.6669337,3.4371066,0.08803865,0.8202427,8.986350435262118,3.534720744303023,jump
05/08/2020, 15:23:07,-8.234077,-2.6369166,1.8872755,3.4371066,0.08803865,0.8202427,8.849585838718422,3.534720744303023,jump
05/08/2020, 15:23:07,-8.234077,-2.6369166,1.8872755,3.0840266,0.12713403,0.76037794,8.849585838718422,3.1789239678191,jump
05/08/2020, 15:23:07,-8.234077,-2.6369166,1.8872755,2.661308,0.16134246,0.6846307,8.849585838718422,2.752691611980733,jump
05/08/2020, 15:23:07,-8.234077,-2.6369166,1.8872755,2.1677291,0.15767728,0.5991096,8.849585838718422,2.254516366398558,jump
05/08/2020, 15:23:07,-8.234077,-2.6369166,1.8872755,1.6155069,0.10758634,0.5025929,8.849585838718422,1.6952984894156367,jump
05/08/2020, 15:23:07,-8.432864,-2.1483326,2.0381618,1.6155069,0.10758634,0.5025929,8.937708582900111,1.6952984894156367,jump
05/08/2020, 15:23:07,-8.638836,-1.7220191,2.0932472,1.6155069,0.10758634,0.5025929,9.054088538534709,1.6952984894156367,jump
05/08/2020, 15:23:07,-8.808882,-1.3867164,1.9687061,1.6155069,0.10758634,0.5025929,9.132096361994973,1.6952984894156367,jump
05/08/2020, 15:23:07,-8.875943,-1.2549903,1.9112257,1.6155069,0.10758634,0.5025929,9.165705196117672,1.6952984894156367,jump
05/08/2020, 15:23:08,-9.002879,-2.6081765,2.4692652,-0.024054745,0.0135131255,-0.0019815876,9.692867898413276,0.02766156208380671,jump
05/08/2020, 15:23:08,-9.026829,-2.6033864,2.4980054,-0.024054745,0.0135131255,-0.0019815876,9.72117735958064,0.02766156208380671,jump
05/08/2020, 15:23:08,-9.026829,-2.6033864,2.4980054,-0.047267616,-0.013364935,-0.005646778,9.72117735958064,0.049444262538157126,jump
05/08/2020, 15:23:08,-8.983719,-2.687212,2.5051906,-0.047267616,-0.013364935,-0.005646778,9.705889606335795,0.049444262538157126,jump
05/08/2020, 15:23:08,-8.983719,-2.687212,2.5051906,-0.061928377,-0.026803965,-0.005646778,9.705889606335795,0.06771604277152926,jump
05/08/2020, 15:23:08,-8.916658,-2.7183473,2.567461,-0.061928377,-0.026803965,-0.005646778,9.668922649888659,0.06771604277152926,jump
05/08/2020, 15:23:08,-8.916658,-2.7183473,2.567461,-0.06315011,-0.023138775,-0.004425048,9.668922649888659,0.06740118737661595,jump
05/08/2020, 15:23:08,-8.818462,-2.802173,2.5938063,-0.06315011,-0.023138775,-0.004425048,9.609645285347188,0.06740118737661595,jump
05/08/2020, 15:23:08,-8.818462,-2.802173,2.5938063,-0.050932802,-0.003591095,-7.598577E-4,9.609645285347188,0.051064896884073833,jump
05/08/2020, 15:23:08,-8.794512,-2.8213332,2.6273365,-0.050932802,-0.003591095,-7.598577E-4,9.602408846955607,0.051064896884073833,jump
05/08/2020, 15:23:08,-8.794512,-2.8213332,2.6273365,-0.03749378,0.018400045,0.002905332,9.602408846955607,0.04186628920841247,jump
05/08/2020, 15:23:08,-8.849598,-2.7973828,2.6560767,-0.03749378,0.018400045,0.002905332,9.65378047815488,0.04186628920841247,jump
05/08/2020, 15:23:08,-8.849598,-2.7973828,2.6560767,-0.026498208,0.036725994,0.0053487928,9.65378047815488,0.04560222858359125,jump
05/08/2020, 15:23:08,-8.947793,-2.7734327,2.5938063,-0.026498208,0.036725994,0.0053487928,9.7202242649413,0.04560222858359125,jump
05/08/2020, 15:23:08,-8.947793,-2.7734327,2.5938063,-0.031385124,0.040391184,0.0077922526,9.7202242649413,0.051741598044685776,jump
05/08/2020, 15:23:08,-9.048384,-2.7590625,2.5866213,-0.031385124,0.040391184,0.0077922526,9.806950775833764,0.051741598044685776,jump
05/08/2020, 15:23:08,-9.048384,-2.7590625,2.5866213,-0.044824153,0.026952157,0.0090139825,9.806950775833764,0.05307424370709494,jump
05/08/2020, 15:23:08,-9.06994,-2.7734327,2.5578809,-0.044824153,0.026952157,0.0090139825,9.823364408127995,0.05307424370709494,jump
05/08/2020, 15:23:08,-9.06994,-2.7734327,2.5578809,-0.058263183,0.0012958252,0.0090139825,9.823364408127995,0.05897058160398094,jump
05/08/2020, 15:23:08,-9.026829,-2.7710378,2.572251,-0.058263183,0.0012958252,0.0090139825,9.78666254540743,0.05897058160398094,jump
05/08/2020, 15:23:09,-8.717872,-2.9937747,3.9302273,0.33757734,0.08681692,-0.048407327,10.020511939202505,0.3519075301250441,jump
05/08/2020, 15:23:09,-8.804092,-3.0225148,3.9350173,0.33757734,0.08681692,-0.048407327,10.106037822833217,0.3519075301250441,jump
05/08/2020, 15:23:09,-8.804092,-3.0225148,3.9350173,0.29970372,0.045278106,-0.04596387,10.106037822833217,0.3065698977434323,jump
05/08/2020, 15:23:09,-8.804092,-3.0991554,3.8440065,0.29970372,0.045278106,-0.04596387,10.094215855470926,0.3065698977434323,jump
05/08/2020, 15:23:09,-8.804092,-3.0991554,3.8440065,0.26916045,-0.004812825,-0.031303108,10.094215855470926,0.27101733416199697,jump
05/08/2020, 15:23:09,-8.880733,-3.175796,3.796106,0.26916045,-0.004812825,-0.031303108,10.166784759265065,0.27101733416199697,jump
05/08/2020, 15:23:09,-8.880733,-3.175796,3.796106,0.23983893,-0.03535608,-0.0068685077,10.166784759265065,0.24252822525918397,jump
05/08/2020, 15:23:09,-8.832832,-3.2021413,3.7218604,0.23983893,-0.03535608,-0.0068685077,10.10568556776872,0.24252822525918397,jump
05/08/2020, 15:23:09,-8.832832,-3.2021413,3.7218604,0.2141826,-0.045129918,0.010235712,10.10568556776872,0.21912477167818897,jump
05/08/2020, 15:23:09,-8.813672,-3.2620168,3.6092947,0.2141826,-0.045129918,0.010235712,10.067203017861608,0.21912477167818897,jump
05/08/2020, 15:23:09,-8.813672,-3.2620168,3.6092947,0.19707838,-0.048795108,0.018787822,10.067203017861608,0.20389661956763347,jump
05/08/2020, 15:23:09,-8.914263,-3.3266823,3.4751735,0.19707838,-0.048795108,0.018787822,10.129547213496021,0.20389661956763347,jump
05/08/2020, 15:23:09,-8.914263,-3.3266823,3.4751735,0.19219147,-0.058568947,0.033448584,10.129547213496021,0.20368281522919515,jump
05/08/2020, 15:23:09,-9.06994,-3.297942,3.5015187,0.19219147,-0.058568947,0.033448584,10.266492044951946,0.20368281522919515,jump
05/08/2020, 15:23:09,-9.06994,-3.297942,3.5015187,0.2019653,-0.08178182,0.055439726,10.266492044951946,0.22483730220895398,jump
05/08/2020, 15:23:09,-9.16095,-3.3410523,3.4967287,0.2019653,-0.08178182,0.055439726,10.359186323110455,0.22483730220895398,jump
05/08/2020, 15:23:09,-9.16095,-3.3410523,3.4967287,0.22273472,-0.11232507,0.07620913,10.359186323110455,0.260836171413611,jump
05/08/2020, 15:23:09,-9.239985,-3.307522,3.5925295,0.22273472,-0.11232507,0.07620913,10.450995265585416,0.260836171413611,jump
05/08/2020, 15:23:09,-9.239985,-3.307522,3.5925295,0.23617375,-0.13553794,0.08842643,10.450995265585416,0.28630020308725135,jump
05/08/2020, 15:23:09,-9.3453665,-3.3482375,3.5542092,0.23617375,-0.13553794,0.08842643,10.544143982711724,0.28630020308725135,jump
05/08/2020, 15:23:10,-9.096285,-2.4022048,1.5352076,0.25205624,0.2236507,0.046887614,9.532567781276141,0.34022114845330886,jump
05/08/2020, 15:23:10,-9.206455,-2.3854396,1.4010864,0.25205624,0.2236507,0.046887614,9.613125579302388,0.34022114845330886,jump
05/08/2020, 15:23:10,-9.206455,-2.3854396,1.4010864,0.1775307,0.22242896,0.018787822,9.613125579302388,0.2852100580133553,jump
05/08/2020, 15:23:10,-9.342972,-2.3950195,1.3939015,0.1775307,0.22242896,0.018787822,9.745265616909405,0.2852100580133553,jump
05/08/2020, 15:23:10,-9.342972,-2.3950195,1.3939015,0.12255286,0.18944226,0.0053487928,9.745265616909405,0.22569045825322584,jump
05/08/2020, 15:23:10,-9.328602,-2.4980054,1.3771362,0.12255286,0.18944226,0.0053487928,9.754965267124515,0.22569045825322584,jump
05/08/2020, 15:23:10,-9.328602,-2.4980054,1.3771362,0.0834575,0.14423825,4.618722E-4,9.754965267124515,0.16664345144696702,jump
05/08/2020, 15:23:10,-9.256751,-2.5866213,1.343606,0.0834575,0.14423825,4.618722E-4,9.704809474453103,0.16664345144696702,jump
05/08/2020, 15:23:10,-9.256751,-2.5866213,1.343606,0.07001846,0.12224709,-0.0068685077,9.704809474453103,0.14104649284116452,jump
05/08/2020, 15:23:10,-9.129815,-2.6560767,1.4250367,0.07001846,0.12224709,-0.0068685077,9.614520090596356,0.14104649284116452,jump
05/08/2020, 15:23:10,-9.129815,-2.6560767,1.4250367,0.08101404,0.12957749,-0.015420618,9.614520090596356,0.15359490544332483,jump
05/08/2020, 15:23:10,-9.065149,-2.7494826,1.4322218,0.08101404,0.12957749,-0.015420618,9.58059736675976,0.15359490544332483,jump
05/08/2020, 15:23:10,-9.065149,-2.7494826,1.4322218,0.11033556,0.14668171,-0.020307539,9.58059736675976,0.18466687848505348,jump
05/08/2020, 15:23:10,-9.09868,-2.7542725,1.5184424,0.11033556,0.14668171,-0.020307539,9.626923366570717,0.18466687848505348,jump
05/08/2020, 15:23:10,-9.09868,-2.7542725,1.5184424,0.14454399,0.16622938,-0.022750998,9.626923366570717,0.22145604662361906,jump
05/08/2020, 15:23:10,-9.22801,-2.7255323,1.5399976,0.14454399,0.16622938,-0.022750998,9.744551844967821,0.22145604662361906,jump
05/08/2020, 15:23:10,-9.22801,-2.7255323,1.5399976,0.17386551,0.17844668,-0.02397273,9.744551844967821,0.2502940784891325,jump
05/08/2020, 15:23:10,-9.314231,-2.6512868,1.4034815,0.17386551,0.17844668,-0.02397273,9.785396251302123,0.2502940784891325,jump
05/08/2020, 15:23:10,-9.314231,-2.6512868,1.4034815,0.189748,0.16500765,-0.030081378,9.785396251302123,0.25325228372487335,jump
05/08/2020, 15:23:10,-9.374106,-2.567461,1.2046949,0.189748,0.16500765,-0.030081378,9.793723332477432,0.25325228372487335,jump
05/08/2020, 15:23:11,-12.655284,0.852627,0.847837,0.06879674,-0.04268646,0.18616484,12.712277985947209,0.20300855423929848,jump
05/08/2020, 15:23:11,-11.371553,1.6118482,0.5388794,0.06879674,-0.04268646,0.18616484,11.497855145289762,0.20300855423929848,jump
05/08/2020, 15:23:11,-11.371553,1.6118482,0.5388794,-0.78152734,-0.21372865,-0.38316134,11.497855145289762,0.8962575131003199,jump
05/08/2020, 15:23:11,-10.31535,1.7339942,0.7041358,-0.78152734,-0.21372865,-0.38316134,10.483748383474031,0.8962575131003199,jump
05/08/2020, 15:23:11,-10.31535,1.7339942,0.7041358,-1.4290442,-0.2955846,-0.9109487,10.483748383474031,1.7202805675231547,jump
05/08/2020, 15:23:11,-9.575289,1.101709,0.84065187,-1.4290442,-0.2955846,-0.9109487,9.675051079105199,1.7202805675231547,jump
05/08/2020, 15:23:11,-9.575289,1.101709,0.84065187,-1.9446143,-0.27359343,-1.3519933,9.675051079105199,2.3841694671013527,jump
05/08/2020, 15:23:11,-9.148975,0.25387207,0.9963282,-1.9446143,-0.27359343,-1.3519933,9.206566744553555,2.3841694671013527,jump
05/08/2020, 15:23:11,-9.148975,0.25387207,0.9963282,-2.3111331,-0.22472422,-1.6769735,9.206566744553555,2.864276066780818,jump
05/08/2020, 15:23:11,-9.043594,-0.50534916,1.1783496,-2.3111331,-0.22472422,-1.6769735,9.134028932540105,2.864276066780818,jump
05/08/2020, 15:23:11,-9.043594,-0.50534916,1.1783496,-2.5053883,-0.21861558,-1.8822242,9.134028932540105,3.1412626522320863,jump
05/08/2020, 15:23:11,-9.045989,-1.2765454,1.4130616,-2.5053883,-0.21861558,-1.8822242,9.244253834686782,3.1412626522320863,jump
05/08/2020, 15:23:11,-9.045989,-1.2765454,1.4130616,-2.5603662,-0.27359343,-1.9811842,9.244253834686782,3.2489104655261487,jump
05/08/2020, 15:23:11,-9.024434,-1.9711012,1.7244141,-2.5603662,-0.27359343,-1.9811842,9.396768298940652,3.2489104655261487,jump
05/08/2020, 15:23:11,-9.024434,-1.9711012,1.7244141,-2.5237143,-0.37011012,-2.022723,9.396768298940652,3.255383781242015,jump
05/08/2020, 15:23:11,-8.935819,-2.7111623,1.8561403,-2.5237143,-0.37011012,-2.022723,9.520741208773162,3.255383781242015,jump
05/08/2020, 15:23:11,-8.935819,-2.7111623,1.8561403,-2.439415,-0.4764006,-2.0263882,9.520741208773162,3.206860144846761,jump
05/08/2020, 15:23:11,-8.705896,-3.3123121,2.0022364,-2.439415,-0.4764006,-2.0263882,9.527486227982658,3.206860144846761,jump
05/08/2020, 15:23:11,-8.705896,-3.3123121,2.0022364,-2.3221288,-0.5778042,-1.9885147,9.527486227982658,3.1113229179674673,jump
05/08/2020, 15:23:11,-8.408914,-3.8655617,2.076482,-2.3221288,-0.5778042,-1.9885147,9.48494456048376,3.1113229179674673,jump
05/08/2020, 15:23:12,-9.172925,-2.0573218,1.6525636,0.30581236,0.096590765,0.12874353,9.54495114003667,0.34558048414157655,jump
05/08/2020, 15:23:12,-9.074729,-1.961521,1.7531544,0.30581236,0.096590765,0.12874353,9.448376627273651,0.34558048414157655,jump
05/08/2020, 15:23:12,-9.074729,-1.961521,1.7531544,0.27649084,0.14057305,0.10553065,9.448376627273651,0.3276349870883785,jump
05/08/2020, 15:23:12,-9.172925,-1.9902613,1.7771046,0.27649084,0.14057305,0.10553065,9.55310388803544,0.3276349870883785,jump
05/08/2020, 15:23:12,-9.172925,-1.9902613,1.7771046,0.24961278,0.18577707,0.08476124,9.55310388803544,0.32249670686022747,jump
05/08/2020, 15:23:12,-9.386082,-1.9088306,1.698069,0.24961278,0.18577707,0.08476124,9.727569185916622,0.32249670686022747,jump
05/08/2020, 15:23:12,-9.386082,-1.9088306,1.698069,0.23006509,0.18089014,0.06765702,9.727569185916622,0.300380863934227,jump
05/08/2020, 15:23:12,-9.637559,-1.9399658,1.6166383,0.23006509,0.18089014,0.06765702,9.962907665141053,0.300380863934227,jump
05/08/2020, 15:23:12,-9.637559,-1.9399658,1.6166383,0.22029126,0.12102537,0.051774535,9.962907665141053,0.2566242003686903,jump
05/08/2020, 15:23:12,-9.692644,-1.9663111,1.5208374,0.22029126,0.12102537,0.051774535,10.00633178693973,0.2566242003686903,jump
05/08/2020, 15:23:12,-9.692644,-1.9663111,1.5208374,0.21662606,0.046499833,0.043222424,10.00633178693973,0.22573715596688476,jump
05/08/2020, 15:23:12,-9.613608,-1.9184108,1.5519727,0.21662606,0.046499833,0.043222424,9.925239796867977,0.22573715596688476,jump
05/08/2020, 15:23:12,-9.613608,-1.9184108,1.5519727,0.2141826,-0.003591095,0.038335506,9.925239796867977,0.217615930666026,jump
05/08/2020, 15:23:12,-9.354947,-1.9663111,1.6525636,0.2141826,-0.003591095,0.038335506,9.701153578287046,0.217615930666026,jump
05/08/2020, 15:23:12,-9.354947,-1.9663111,1.6525636,0.21540433,-0.018251855,0.037113775,9.701153578287046,0.21933898098423876,jump
05/08/2020, 15:23:12,-9.206455,-1.9016455,1.7244141,0.21540433,-0.018251855,0.037113775,9.557650218691487,0.21933898098423876,jump
05/08/2020, 15:23:12,-9.206455,-1.9016455,1.7244141,0.2141826,0.009847935,0.035892043,9.557650218691487,0.2173922880512056,jump
05/08/2020, 15:23:12,-9.163345,-1.8585353,1.8250049,0.2141826,0.009847935,0.035892043,9.526368363683217,0.2173922880512056,jump
05/08/2020, 15:23:12,-9.163345,-1.8585353,1.8250049,0.20807396,0.06482579,0.032226853,9.526368363683217,0.22030825036471557,jump
05/08/2020, 15:23:12,-9.249566,-1.7890797,1.8226099,0.20807396,0.06482579,0.032226853,9.59568577743672,0.22030825036471557,jump
05/08/2020, 15:23:13,-9.304651,-2.1148024,1.6645386,0.22884336,0.011069666,0.10553065,9.686052494445,0.25224698095950904,jump
05/08/2020, 15:23:13,-9.342972,-2.069297,1.6429834,0.22884336,0.011069666,0.10553065,9.709403022177016,0.25224698095950904,jump
05/08/2020, 15:23:13,-9.342972,-2.069297,1.6429834,0.23250856,0.003739285,0.10553065,9.709403022177016,0.25536430524656234,jump
05/08/2020, 15:23:13,-9.347761,-2.0094216,1.5663428,0.23250856,0.003739285,0.10553065,9.688748297531312,0.25536430524656234,jump
05/08/2020, 15:23:13,-9.347761,-2.0094216,1.5663428,0.23006509,-0.015808396,0.104308926,9.688748297531312,0.25310117364451745,jump
05/08/2020, 15:23:13,-9.347761,-2.0094216,1.5663428,0.22029126,-0.03535608,0.10675238,9.688748297531312,0.2473345122145226,jump
05/08/2020, 15:23:13,-9.359736,-1.9040406,1.5328126,0.22029126,-0.03535608,0.10675238,9.673652424920201,0.2473345122145226,jump
05/08/2020, 15:23:13,-9.263936,-1.8561403,1.5519727,0.22029126,-0.03535608,0.10675238,9.574674253543135,0.2473345122145226,jump
05/08/2020, 15:23:13,-9.263936,-1.8561403,1.5519727,0.20318703,-0.03902127,0.10675238,9.574674253543135,0.23281688251058985,jump
05/08/2020, 15:23:13,-9.192085,-1.8274,1.6453785,0.20318703,-0.03902127,0.10675238,9.515308323827004,0.23281688251058985,jump
05/08/2020, 15:23:13,-9.192085,-1.8274,1.6453785,0.18608281,-0.023138775,0.103087194,9.515308323827004,0.21398407592071514,jump
05/08/2020, 15:23:13,-9.17053,-1.7866846,1.6765138,0.18608281,-0.023138775,0.103087194,9.492184511618932,0.21398407592071514,jump
05/08/2020, 15:23:13,-9.17053,-1.7866846,1.6765138,0.16653514,-0.002369365,0.099422,9.492184511618932,0.19396984454622992,jump
05/08/2020, 15:23:13,-9.244776,-1.7699195,1.6525636,0.16653514,-0.002369365,0.099422,9.556644836130504,0.19396984454622992,jump
05/08/2020, 15:23:13,-9.244776,-1.7699195,1.6525636,0.14820918,0.006182745,0.096978545,9.556644836130504,0.1772259205276038,jump
05/08/2020, 15:23:13,-9.275911,-1.6860938,1.7028589,0.14820918,0.006182745,0.096978545,9.58045781101276,0.1772259205276038,jump
05/08/2020, 15:23:13,-9.275911,-1.6860938,1.7028589,0.12988323,0.0074044755,0.09331335,9.58045781101276,0.16009953512948003,jump
05/08/2020, 15:23:13,-9.302257,-1.707649,1.7028589,0.12988323,0.0074044755,0.09331335,9.609774771418927,0.16009953512948003,jump
05/08/2020, 15:23:13,-9.302257,-1.707649,1.7028589,0.114000745,0.0049610157,0.08842643,9.609774771418927,0.14436071385906593,jump
05/08/2020, 15:23:13,-9.278306,-1.6549586,1.6741188,0.114000745,0.0049610157,0.08842643,9.572278932775129,0.14436071385906593,jump
05/08/2020, 15:23:14,-9.16095,-2.6273365,1.7627344,0.10544864,-0.018251855,-0.0019815876,9.69191050521956,0.10703491375150992,jump
05/08/2020, 15:23:14,-9.108259,-2.6393116,1.7747096,0.10544864,-0.018251855,-0.0019815876,9.647587534917248,0.10703491375150992,jump
05/08/2020, 15:23:14,-9.108259,-2.6393116,1.7747096,0.1201094,-0.014586665,0.006570522,9.647587534917248,0.12117017336505287,jump
05/08/2020, 15:23:14,-9.050779,-2.692002,1.7411792,0.1201094,-0.014586665,0.006570522,9.60183247579446,0.12117017336505287,jump
05/08/2020, 15:23:14,-9.050779,-2.692002,1.7411792,0.1286615,7.409509E-5,0.013900902,9.60183247579446,0.1294102845506374,jump
05/08/2020, 15:23:14,-9.005274,-2.6321266,1.7603394,0.1286615,7.409509E-5,0.013900902,9.54577611114708,0.1294102845506374,jump
05/08/2020, 15:23:14,-9.005274,-2.6321266,1.7603394,0.13232669,0.018400045,0.018787822,9.54577611114708,0.13491440772868174,jump
05/08/2020, 15:23:14,-9.0148535,-2.6033864,1.7244141,0.13232669,0.018400045,0.018787822,9.540377770434167,0.13491440772868174,jump
05/08/2020, 15:23:14,-9.0148535,-2.6033864,1.7244141,0.13110496,0.034282535,0.021231283,9.540377770434167,0.13716621447343114,jump
05/08/2020, 15:23:14,-9.045989,-2.567461,1.7268091,0.13110496,0.034282535,0.021231283,9.560525274627329,0.13716621447343114,jump
05/08/2020, 15:23:14,-9.045989,-2.567461,1.7268091,0.12499632,0.048943296,0.023674743,9.560525274627329,0.13630854546017693,jump
05/08/2020, 15:23:14,-9.14179,-2.5267458,1.7387843,0.12499632,0.048943296,0.023674743,9.642621362546278,0.13630854546017693,jump
05/08/2020, 15:23:14,-9.14179,-2.5267458,1.7387843,0.11522248,0.055051945,0.024896473,9.642621362546278,0.13010292114443456,jump
05/08/2020, 15:23:14,-9.196876,-2.555486,1.6501685,0.11522248,0.055051945,0.024896473,9.686902756093694,0.13010292114443456,jump
05/08/2020, 15:23:14,-9.196876,-2.555486,1.6501685,0.10911383,0.052608486,0.024896473,9.686902756093694,0.12366614127598739,jump
05/08/2020, 15:23:14,-9.211246,-2.579436,1.705254,0.10911383,0.052608486,0.024896473,9.716399837904136,0.12366614127598739,jump
05/08/2020, 15:23:14,-9.211246,-2.579436,1.705254,0.100561716,0.048943296,0.028561661,9.716399837904136,0.11542908371753785,jump
05/08/2020, 15:23:14,-9.239985,-2.5578809,1.6765138,0.100561716,0.048943296,0.028561661,9.732974082570168,0.11542908371753785,jump
05/08/2020, 15:23:14,-9.239985,-2.5578809,1.6765138,0.099339984,0.044056375,0.028561661,9.732974082570168,0.11236176001398719,jump
05/08/2020, 15:23:14,-9.16095,-2.562671,1.6813037,0.099339984,0.044056375,0.028561661,9.660075785285896,0.11236176001398719,jump
05/08/2020, 15:23:15,-15.076649,-4.1170387,3.7027004,1.2196664,-3.7298677,-2.54318,16.061299273286053,4.676244596385076,jump
05/08/2020, 15:23:15,-15.076649,-4.1170387,3.7027004,0.6381229,-3.8850274,-2.7264395,16.061299273286053,4.788957197359601,jump
05/08/2020, 15:23:15,-13.888719,-4.3014555,3.278782,0.6381229,-3.8850274,-2.7264395,14.90467827821083,4.788957197359601,jump
05/08/2020, 15:23:15,-13.888719,-4.3014555,3.278782,0.25938663,-4.1110473,-2.89626,14.90467827821083,5.035505256055474,jump
05/08/2020, 15:23:15,-12.679234,-3.899092,2.6105714,0.25938663,-4.1110473,-2.89626,13.51965104946825,5.035505256055474,jump
05/08/2020, 15:23:15,-12.679234,-3.899092,2.6105714,0.11766594,-4.456797,-2.9536812,13.51965104946825,5.348001372481635,jump
05/08/2020, 15:23:15,-11.132051,-3.319497,1.6549586,0.11766594,-4.456797,-2.9536812,11.7337342275912,5.348001372481635,jump
05/08/2020, 15:23:15,-11.132051,-3.319497,1.6549586,0.045583867,-4.7475686,-2.9805593,11.7337342275912,5.605820154399009,jump
05/08/2020, 15:23:15,-8.914263,-2.5938063,0.6490503,0.045583867,-4.7475686,-2.9805593,9.30662011671035,5.605820154399009,jump
05/08/2020, 15:23:15,-8.914263,-2.5938063,0.6490503,-0.09980201,-4.9112806,-3.0844064,9.30662011671035,5.800362107592756,jump
05/08/2020, 15:23:15,-6.8186207,-1.9687061,-0.12693603,-0.09980201,-4.9112806,-3.0844064,7.0982747614116155,5.800362107592756,jump
05/08/2020, 15:23:15,-6.8186207,-1.9687061,-0.12693603,-0.2830615,-4.913724,-3.1919186,7.0982747614116155,5.866272347206405,jump
05/08/2020, 15:23:15,-5.336104,-1.6118482,-0.87178713,-0.2830615,-4.913724,-3.1919186,5.641991894599273,5.866272347206405,jump
05/08/2020, 15:23:15,-5.336104,-1.6118482,-0.87178713,-0.4040128,-4.7903295,-3.2236836,5.641991894599273,5.788144656714725,jump
05/08/2020, 15:23:15,-4.119434,-1.5399976,-1.219065,-0.4040128,-4.7903295,-3.2236836,4.563709826918615,5.788144656714725,jump
05/08/2020, 15:23:15,-4.119434,-1.5399976,-1.219065,-0.36980435,-4.685261,-3.2566702,4.563709826918615,5.717895136959768,jump
05/08/2020, 15:23:15,-3.293152,-1.9734962,-1.4753321,-0.36980435,-4.685261,-3.2566702,4.1129238852203525,5.717895136959768,jump
05/08/2020, 15:23:15,-3.293152,-1.9734962,-1.4753321,-0.26229212,-4.5508704,-3.2823267,4.1129238852203525,5.61719567714997,jump
05/08/2020, 15:23:15,-2.8716285,-2.5938063,-1.6166383,-0.26229212,-4.5508704,-3.2823267,4.193757351716792,5.61719567714997,jump
05/08/2020, 15:23:15,-2.8716285,-2.5938063,-1.6166383,-0.06315011,-4.3517284,-3.2346792,4.193757351716792,5.422608045556659,jump
05/08/2020, 15:23:16,-7.206614,-5.010381,0.1460962,0.6686662,0.17600322,0.035892043,8.778413847848224,0.6923726142515985,jump
05/08/2020, 15:23:16,-7.206614,-5.010381,0.1460962,0.7541873,0.13324267,0.111639306,8.778413847848224,0.7739608550057425,jump
05/08/2020, 15:23:16,-7.2281694,-4.790039,-0.033530276,0.7541873,0.13324267,0.111639306,8.671333921072042,0.7739608550057425,jump
05/08/2020, 15:23:16,-7.2281694,-4.790039,-0.033530276,0.7761784,0.07826482,0.13729563,8.671333921072042,0.7921037884668893,jump
05/08/2020, 15:23:16,-7.230564,-4.5768824,-0.3784131,0.7761784,0.07826482,0.13729563,8.565751928335278,0.7921037884668893,jump
05/08/2020, 15:23:16,-7.230564,-4.5768824,-0.3784131,0.7199788,-0.003591095,0.14218256,8.565751928335278,0.7338925411165221,jump
05/08/2020, 15:23:16,-7.2640944,-4.3349857,-0.68737066,0.7199788,-0.003591095,0.14218256,8.487145956811016,0.7338925411165221,jump
05/08/2020, 15:23:16,-7.2640944,-4.3349857,-0.68737066,0.59414065,-0.098886035,0.1605085,8.487145956811016,0.623333407340361,jump
05/08/2020, 15:23:16,-7.2329593,-4.2008643,-0.8933423,0.59414065,-0.098886035,0.1605085,8.411957043133674,0.623333407340361,jump
05/08/2020, 15:23:16,-7.2329593,-4.2008643,-0.8933423,0.43287227,-0.18074194,0.19349521,8.411957043133674,0.5074312205204917,jump
05/08/2020, 15:23:16,-7.158714,-4.0882983,-0.8669971,0.43287227,-0.18074194,0.19349521,8.289333549371817,0.5074312205204917,jump
05/08/2020, 15:23:16,-7.158714,-4.0882983,-0.8669971,0.29237333,-0.23938498,0.22403847,8.289333549371817,0.43929553438611185,jump
05/08/2020, 15:23:16,-7.0269876,-4.129014,-0.69216067,0.29237333,-0.23938498,0.22403847,8.17963307185835,0.43929553438611185,jump
05/08/2020, 15:23:16,-7.0269876,-4.129014,-0.69216067,0.22029126,-0.27359343,0.23992096,8.17963307185835,0.4253747371329224,jump
05/08/2020, 15:23:16,-6.967112,-4.25595,-0.49576905,0.22029126,-0.27359343,0.23992096,8.179214366531701,0.4253747371329224,jump
05/08/2020, 15:23:16,-6.967112,-4.25595,-0.49576905,0.2056305,-0.27725863,0.2460296,8.179214366531701,0.4238948167993589,jump
05/08/2020, 15:23:16,-7.053333,-4.488267,-0.23231691,0.2056305,-0.27725863,0.2460296,8.363492989344525,0.4238948167993589,jump
05/08/2020, 15:23:16,-7.053333,-4.488267,-0.23231691,0.22762163,-0.24060671,0.24480788,8.363492989344525,0.41186659919560287,jump
05/08/2020, 15:23:16,-7.2593045,-4.687053,-0.07185059,0.22762163,-0.24060671,0.24480788,8.641245998407904,0.41186659919560287,jump
05/08/2020, 15:23:16,-7.2593045,-4.687053,-0.07185059,0.28992987,-0.18685059,0.25336,8.641245998407904,0.42797635777094145,jump
05/08/2020, 15:23:17,-6.3994923,-5.103787,0.29698244,0.47929803,0.33727157,-0.23166683,8.190869366918259,0.6301969782718715,jump
05/08/2020, 15:23:17,-6.2270513,-5.0702567,0.20357667,0.47929803,0.33727157,-0.23166683,8.032752575355335,0.6301969782718715,jump
05/08/2020, 15:23:17,-6.2270513,-5.0702567,0.20357667,0.5061761,0.34460196,-0.21456261,8.032752575355335,0.6488465782663543,jump
05/08/2020, 15:23:17,-6.236631,-5.0199614,-0.021555176,0.5061761,0.34460196,-0.21456261,8.006000364875824,0.6488465782663543,jump
05/08/2020, 15:23:17,-6.236631,-5.0199614,-0.021555176,0.5440497,0.33238465,-0.19134974,8.006000364875824,0.665645800896636,jump
05/08/2020, 15:23:17,-6.2510014,-4.988826,-0.09101075,0.5440497,0.33238465,-0.19134974,7.998230040312195,0.665645800896636,jump
05/08/2020, 15:23:17,-6.2510014,-4.988826,-0.09101075,0.5672626,0.28351545,-0.18646282,7.998230040312195,0.6610115288721632,jump
05/08/2020, 15:23:17,-6.318062,-5.0654664,-0.22273682,0.5672626,0.28351545,-0.18646282,8.101016408518198,0.6610115288721632,jump
05/08/2020, 15:23:17,-6.318062,-5.0654664,-0.22273682,0.55382353,0.22609416,-0.20112358,8.101016408518198,0.6311020244783755,jump
05/08/2020, 15:23:17,-6.3947024,-5.101392,-0.24908204,0.55382353,0.22609416,-0.20112358,8.184036858992952,0.6311020244783755,jump
05/08/2020, 15:23:17,-6.3947024,-5.101392,-0.24908204,0.5354976,0.18577707,-0.2060105,8.184036858992952,0.603084681669231,jump
05/08/2020, 15:23:17,-6.5551686,-5.151687,-0.12933107,0.5354976,0.18577707,-0.2060105,8.33827576408341,0.603084681669231,jump
05/08/2020, 15:23:17,-6.5551686,-5.151687,-0.12933107,0.52572376,0.14301652,-0.20112358,8.33827576408341,0.580766636178504,jump
