DATE,TIME,ax,ay,az,gx,gy,gz,ma,mg,label
05/08/2020, 15:31:55,2.8953154,-2.2588246,9.128618,-0.054950003,-0.0012211112,-0.09524667,9.839553384595428,0.10996782503646733,jump
05/08/2020, 15:31:55,2.8953154,-2.2588246,9.128618,-0.035412222,-0.017095556,-0.098910004,9.839553384595428,0.1064399943650991,jump
05/08/2020, 15:31:55,2.902494,-2.254039,9.140582,-0.035412222,-0.017095556,-0.098910004,9.851670113879653,0.1064399943650991,jump
05/08/2020, 15:31:55,2.902494,-2.254039,9.140582,-0.029306669,-0.0061055557,-0.11478445,9.851670113879653,0.11862389496111943,jump
05/08/2020, 15:31:55,2.9742785,-2.1942184,9.157332,-0.029306669,-0.0061055557,-0.11478445,9.875103226262192,0.11862389496111943,jump
05/08/2020, 15:31:55,2.9742785,-2.1942184,9.157332,-0.04396,0.012211111,-0.12821667,9.875103226262192,0.13609227442105168,jump
05/08/2020, 15:31:55,2.993421,-2.053042,9.147761,-0.04396,0.012211111,-0.12821667,9.841599898326727,0.13609227442105168,jump
05/08/2020, 15:31:55,2.993421,-2.053042,9.147761,-0.07693,0.024422223,-0.15386,9.841599898326727,0.17374570649116342,jump
05/08/2020, 15:31:55,2.9790642,-1.9046868,9.097511,-0.07693,0.024422223,-0.15386,9.760500356097161,0.17374570649116342,jump
05/08/2020, 15:31:55,2.9790642,-1.9046868,9.097511,-0.11478445,0.026864445,-0.17828223,9.760500356097161,0.21373282885354583,jump
05/08/2020, 15:31:55,2.9575288,-1.8568304,9.059227,-0.11478445,0.026864445,-0.17828223,9.708984983497277,0.21373282885354583,jump
05/08/2020, 15:31:55,2.9575288,-1.8568304,9.059227,-0.13920668,0.03174889,-0.18927222,9.708984983497277,0.23708746550810614,jump
05/08/2020, 15:31:55,3.0245278,-1.8520447,9.059227,-0.13920668,0.03174889,-0.18927222,9.728691153991177,0.23708746550810614,jump
05/08/2020, 15:31:55,3.0245278,-1.8520447,9.059227,-0.1526389,0.028085556,-0.21980001,9.728691153991177,0.26907150714311917,jump
05/08/2020, 15:31:55,3.0604203,-1.8329022,9.056833,-0.1526389,0.028085556,-0.21980001,9.734060382874212,0.26907150714311917,jump
05/08/2020, 15:31:55,3.0604203,-1.8329022,9.056833,-0.15752333,0.024422223,-0.2613178,9.734060382874212,0.30609971065723884,jump
05/08/2020, 15:31:55,3.0939198,-1.7850457,9.032906,-0.15752333,0.024422223,-0.2613178,9.713501476865655,0.30609971065723884,jump
05/08/2020, 15:31:55,3.0939198,-1.7850457,9.032906,-0.15141778,0.035412222,-0.29184556,9.713501476865655,0.33068897711647754,jump
05/08/2020, 15:31:55,3.2542388,-1.7635103,9.025727,-0.15141778,0.035412222,-0.29184556,9.755193077756124,0.33068897711647754,jump
05/08/2020, 15:31:55,3.2542388,-1.7635103,9.025727,-0.15874445,0.059834447,-0.30772,9.755193077756124,0.35138520829556485,jump
05/08/2020, 15:31:56,0.5623133,-3.859623,7.587641,-0.9365923,-0.43105224,-1.8792901,8.531422974117092,2.1435350304827727,jump
05/08/2020, 15:31:56,0.5623133,-3.859623,7.587641,-1.0733567,0.19049335,-1.8133501,8.531422974117092,2.1158026704155883,jump
05/08/2020, 15:31:56,5.0081778,-3.034099,4.9292145,-1.0733567,0.19049335,-1.8133501,7.654068014775317,2.1158026704155883,jump
05/08/2020, 15:31:56,5.0081778,-3.034099,4.9292145,-1.0171856,-0.017095556,-1.7413045,7.654068014775317,2.016705273372149,jump
05/08/2020, 15:31:56,9.97807,-2.349752,8.992228,-1.0171856,-0.017095556,-1.7413045,13.636105628345783,2.016705273372149,jump
05/08/2020, 15:31:56,9.97807,-2.349752,8.992228,-0.7119078,-0.6581789,-1.7877067,13.636105628345783,2.033693089363321,jump
05/08/2020, 15:31:56,4.883751,-3.8524444,11.097912,-0.7119078,-0.6581789,-1.7877067,12.72226387207476,2.033693089363321,jump
05/08/2020, 15:31:56,4.883751,-3.8524444,11.097912,-0.7167922,-0.31382558,-1.8524256,12.72226387207476,2.0109097692280513,jump
05/08/2020, 15:31:56,2.1296122,-4.3070807,6.474978,-0.7167922,-0.31382558,-1.8524256,8.062972926749612,2.0109097692280513,jump
05/08/2020, 15:31:56,2.1296122,-4.3070807,6.474978,-0.7534256,-0.65329444,-1.856089,8.062972926749612,2.107014504799679,jump
05/08/2020, 15:31:56,0.86859465,-4.2927237,8.19781,-0.7534256,-0.65329444,-1.856089,9.29440824782144,2.107014504799679,jump
05/08/2020, 15:31:56,0.86859465,-4.2927237,8.19781,-0.8303556,-0.40785113,-1.8487623,9.29440824782144,2.067306190662219,jump
05/08/2020, 15:31:56,3.6346977,-3.562913,6.9224358,-0.8303556,-0.40785113,-1.8487623,8.592176248017312,2.067306190662219,jump
05/08/2020, 15:31:56,3.6346977,-3.562913,6.9224358,-0.91583335,-0.4163989,-1.8145711,8.592176248017312,2.074802934462988,jump
05/08/2020, 15:31:56,3.7615173,-3.4648073,6.1806607,-0.91583335,-0.4163989,-1.8145711,8.02212370386132,2.074802934462988,jump
05/08/2020, 15:31:56,3.7615173,-3.4648073,6.1806607,-0.94880337,-0.45791668,-1.7486312,8.02212370386132,2.041476602543738,jump
05/08/2020, 15:31:56,4.0390844,-3.4241292,7.3292155,-0.94880337,-0.45791668,-1.7486312,9.041917075979297,2.041476602543738,jump
05/08/2020, 15:31:56,4.0390844,-3.4241292,7.3292155,-0.9597934,-0.39564002,-1.7144401,9.041917075979297,2.004255286356637,jump
05/08/2020, 15:31:56,4.8191447,-3.5700915,7.489535,-0.9597934,-0.39564002,-1.7144401,9.594938324400234,2.004255286356637,jump
05/08/2020, 15:31:56,4.8191447,-3.5700915,7.489535,-0.93415004,-0.32970002,-1.7046711,9.594938324400234,1.9716090163815418,jump
05/08/2020, 15:31:57,8.130812,-3.0029924,3.6873398,-0.31260446,-0.06716111,0.20026223,9.419370294039846,0.37727592546941296,jump
05/08/2020, 15:31:57,8.286345,-2.981457,3.7160535,-0.31260446,-0.06716111,0.20026223,9.558328565337483,0.37727592546941296,jump
05/08/2020, 15:31:57,8.286345,-2.981457,3.7160535,-0.28085557,-0.014653334,0.14531223,9.558328565337483,0.31655997043315215,jump
05/08/2020, 15:31:57,8.327023,-2.9455647,3.7591243,-0.28085557,-0.014653334,0.14531223,9.59930578806302,0.31655997043315215,jump
05/08/2020, 15:31:57,8.327023,-2.9455647,3.7591243,-0.24544334,0.029306669,0.09402556,9.59930578806302,0.26446572913650657,jump
05/08/2020, 15:31:57,8.243274,-2.8953154,3.7663028,-0.24544334,0.029306669,0.09402556,9.514171017436242,0.26446572913650657,jump
05/08/2020, 15:31:57,8.243274,-2.8953154,3.7663028,-0.20514667,0.05372889,0.05372889,9.514171017436242,0.21876641315199938,jump
05/08/2020, 15:31:57,8.030313,-2.9479575,3.711268,-0.20514667,0.05372889,0.05372889,9.324692099890505,0.21876641315199938,jump
05/08/2020, 15:31:57,8.030313,-2.9479575,3.711268,-0.15874445,0.059834447,0.018316668,9.324692099890505,0.17063253829724043,jump
05/08/2020, 15:31:57,7.8149586,-2.993421,3.7447674,-0.15874445,0.059834447,0.018316668,9.1682839355232,0.17063253829724043,jump
05/08/2020, 15:31:57,7.8149586,-2.993421,3.7447674,-0.08425667,0.026864445,0.013432222,9.1682839355232,0.08945004005418312,jump
05/08/2020, 15:31:57,7.6713896,-3.1154552,3.751946,-0.08425667,0.026864445,0.013432222,9.090290284705102,0.08945004005418312,jump
05/08/2020, 15:31:57,7.6713896,-3.1154552,3.751946,-0.0048844446,-0.025643334,0.034191113,9.090290284705102,0.043017096290670756,jump
05/08/2020, 15:31:57,7.668997,-3.2614172,3.7663028,-0.0048844446,-0.025643334,0.034191113,9.145238699868791,0.043017096290670756,jump
05/08/2020, 15:31:57,7.668997,-3.2614172,3.7663028,0.07937223,-0.058613338,0.047623336,9.145238699868791,0.1095602845607691,jump
05/08/2020, 15:31:57,7.793423,-3.359523,3.8069808,0.07937223,-0.058613338,0.047623336,9.30144844384528,0.1095602845607691,jump
05/08/2020, 15:31:57,7.793423,-3.359523,3.8069808,0.16607112,-0.046402223,0.057392225,9.30144844384528,0.18173235723507183,jump
05/08/2020, 15:31:57,7.9800634,-3.4528432,3.8500516,0.16607112,-0.046402223,0.057392225,9.509281582357065,0.18173235723507183,jump
05/08/2020, 15:31:57,7.9800634,-3.4528432,3.8500516,0.23567446,-0.014653334,0.078151114,9.509281582357065,0.24872628725473184,jump
05/08/2020, 15:31:57,8.133204,-3.507878,3.888337,0.23567446,-0.014653334,0.078151114,9.673333816939598,0.24872628725473184,jump
05/08/2020, 15:31:58,-0.5288138,0.2536392,1.6582261,-0.37610224,0.09768889,0.26742333,1.7588890694964052,0.47171098342296774,jump
05/08/2020, 15:31:58,-1.0145568,1.2203395,1.0863415,-0.37610224,0.09768889,0.26742333,1.9231983440415124,0.47171098342296774,jump
05/08/2020, 15:31:58,-1.0145568,1.2203395,1.0863415,-0.6020078,0.059834447,0.16973445,1.9231983440415124,0.6283337829292768,jump
05/08/2020, 15:31:58,-1.4069797,2.1942184,0.40917268,-0.6020078,0.059834447,0.16973445,2.6384860203817007,0.6283337829292768,jump
05/08/2020, 15:31:58,-1.4069797,2.1942184,0.40917268,-0.9317078,-0.06594,0.009768889,2.6384860203817007,0.9340893631450161,jump
05/08/2020, 15:31:58,-1.5002998,2.8881369,-0.22013968,-0.9317078,-0.06594,0.009768889,3.262007901156663,0.9340893631450161,jump
05/08/2020, 15:31:58,-1.5002998,2.8881369,-0.22013968,-1.3126945,-0.35778558,-0.20026223,3.262007901156663,1.3752390576672926,jump
05/08/2020, 15:31:58,-0.9499506,2.8929226,-0.7393822,-1.3126945,-0.35778558,-0.20026223,3.133383721357071,1.3752390576672926,jump
05/08/2020, 15:31:58,-0.9499506,2.8929226,-0.7393822,-1.5898868,-0.8584412,-0.42128336,3.133383721357071,1.855300759985023,jump
05/08/2020, 15:31:58,0.35174492,2.050649,-1.1796615,-1.5898868,-0.8584412,-0.42128336,2.391753916515154,1.855300759985023,jump
05/08/2020, 15:31:58,0.35174492,2.050649,-1.1796615,-1.5092934,-1.669259,-0.6838223,2.391753916515154,2.352021477578158,jump
05/08/2020, 15:31:58,2.333002,0.08853444,-2.6799614,-1.5092934,-1.669259,-0.6838223,3.554283392795797,2.352021477578158,jump
05/08/2020, 15:31:58,2.333002,0.08853444,-2.6799614,-0.7851745,-2.7804701,-1.1148745,3.554283392795797,3.0968465006708215,jump
05/08/2020, 15:31:58,5.6279187,-3.3212378,-4.0366917,-0.7851745,-2.7804701,-1.1148745,7.681078652507286,3.0968465006708215,jump
05/08/2020, 15:31:58,5.6279187,-3.3212378,-4.0366917,0.91461223,-3.9564002,-1.9488934,7.681078652507286,4.504198410993673,jump
05/08/2020, 15:31:58,10.597812,-8.405986,-5.0775695,0.91461223,-3.9564002,-1.9488934,14.448388231532372,4.504198410993673,jump
05/08/2020, 15:31:58,10.597812,-8.405986,-5.0775695,3.6511223,-5.2239137,-3.470398,14.448388231532372,7.25697114736444,jump
05/08/2020, 15:31:58,17.740387,-13.684553,-2.9192436,3.6511223,-5.2239137,-3.470398,22.594475153317596,7.25697114736444,jump
05/08/2020, 15:31:58,17.740387,-13.684553,-2.9192436,7.2448525,-6.107998,-5.397311,22.594475153317596,10.90534249572508,jump
05/08/2020, 15:31:58,29.400612,-19.377077,3.0939198,7.2448525,-6.107998,-5.397311,35.34741058769072,10.90534249572508,jump
05/08/2020, 15:31:59,6.4821568,-6.056234,3.5102708,-4.929626,1.2345434,0.61788225,9.540352527538701,5.119285923898248,jump
05/08/2020, 15:31:59,6.4821568,-6.056234,3.5102708,-2.2334123,0.8633256,0.14653334,9.540352527538701,2.3989442371968894,jump
05/08/2020, 15:31:59,6.6735826,-7.475178,3.859623,-2.2334123,0.8633256,0.14653334,10.738327433880315,2.3989442371968894,jump
05/08/2020, 15:31:59,6.6735826,-7.475178,3.859623,0.3382478,0.6984756,-0.29306668,10.738327433880315,0.829558810532741,jump
05/08/2020, 15:31:59,7.1688967,-7.025327,4.1635113,0.3382478,0.6984756,-0.29306668,10.866606095390564,0.829558810532741,jump
05/08/2020, 15:31:59,7.1688967,-7.025327,4.1635113,1.8792901,0.68504333,-0.8095967,10.866606095390564,2.157883803682109,jump
05/08/2020, 15:31:59,7.5182486,-4.9340005,4.0558343,1.8792901,0.68504333,-0.8095967,9.86499944509779,2.157883803682109,jump
05/08/2020, 15:31:59,7.5182486,-4.9340005,4.0558343,2.4483278,0.6838223,-1.3163579,9.86499944509779,2.8626421033479383,jump
05/08/2020, 15:31:59,7.6259255,-2.333002,3.993621,2.4483278,0.6838223,-1.3163579,8.91889279492339,2.8626421033479383,jump
05/08/2020, 15:31:59,7.6259255,-2.333002,3.993621,2.4910667,0.7119078,-1.6582689,8.91889279492339,3.076049712859681,jump
05/08/2020, 15:31:59,7.5349984,-0.36131623,3.9242291,2.4910667,0.7119078,-1.6582689,8.503312586657962,3.076049712859681,jump
05/08/2020, 15:31:59,7.5349984,-0.36131623,3.9242291,2.2492867,0.6569578,-1.5984346,8.503312586657962,2.836525526995484,jump
05/08/2020, 15:31:59,7.21436,0.4331009,3.6107693,2.2492867,0.6569578,-1.5984346,8.079122771865359,2.836525526995484,jump
05/08/2020, 15:31:59,7.21436,0.4331009,3.6107693,1.7608423,0.4481478,-1.1466234,8.079122771865359,2.148522120188782,jump
05/08/2020, 15:31:59,6.960721,0.36370903,3.2829528,1.7608423,0.4481478,-1.1466234,7.704654457776109,2.148522120188782,jump
05/08/2020, 15:31:59,6.960721,0.36370903,3.2829528,1.053819,0.16485001,-0.64108336,7.704654457776109,1.2444668581542297,jump
05/08/2020, 15:31:59,6.920043,-0.014356935,3.0364919,1.053819,0.16485001,-0.64108336,7.556949385144499,1.2444668581542297,jump
05/08/2020, 15:31:59,6.920043,-0.014356935,3.0364919,0.3504589,-0.029306669,-0.43105224,7.556949385144499,0.556314970339596,jump
05/08/2020, 15:31:59,7.1425757,-0.36131623,3.182454,0.3504589,-0.029306669,-0.43105224,7.827831870399392,0.556314970339596,jump
05/08/2020, 15:31:59,7.1425757,-0.36131623,3.182454,-0.18072446,-0.10013112,-0.57270116,7.827831870399392,0.6088301767492874,jump
05/08/2020, 15:32:00,8.343773,-3.9457645,3.196811,0.07204556,-0.21491556,-0.15752333,9.767661140029247,0.2760305425939078,jump
05/08/2020, 15:32:00,8.185846,-3.9314077,3.1657043,0.07204556,-0.21491556,-0.15752333,9.6169501373166,0.2760305425939078,jump
05/08/2020, 15:32:00,8.185846,-3.9314077,3.1657043,-0.08792,-0.24422224,-0.13920668,9.6169501373166,0.29453849974070717,jump
05/08/2020, 15:32:00,8.075776,-3.9768713,3.1872396,-0.08792,-0.24422224,-0.13920668,9.54945868320296,0.29453849974070717,jump
05/08/2020, 15:32:00,8.075776,-3.9768713,3.1872396,-0.20514667,-0.25521225,-0.13554333,9.54945868320296,0.35438741833742976,jump
05/08/2020, 15:32:00,8.013563,-4.0414777,3.225525,-0.20514667,-0.25521225,-0.13554333,9.53701982762416,0.35438741833742976,jump
05/08/2020, 15:32:00,8.013563,-4.0414777,3.225525,-0.26498112,-0.26986557,-0.13432223,9.53701982762416,0.4013538114918986,jump
05/08/2020, 15:32:00,7.9920278,-4.2161536,3.2829528,-0.26498112,-0.26986557,-0.13432223,9.61385656553968,0.4013538114918986,jump
05/08/2020, 15:32:00,7.9920278,-4.2161536,3.2829528,-0.29184556,-0.27475002,-0.117226675,9.61385656553968,0.4176164508664718,jump
05/08/2020, 15:32:00,8.001599,-4.3525443,3.333202,-0.29184556,-0.27475002,-0.117226675,9.699508663086014,0.4176164508664718,jump
05/08/2020, 15:32:00,8.001599,-4.3525443,3.333202,-0.29673,-0.2613178,-0.106236674,9.699508663086014,0.409416557874325,jump
05/08/2020, 15:32:00,7.9704924,-4.520042,3.3667014,-0.29673,-0.2613178,-0.106236674,9.76187511438929,0.409416557874325,jump
05/08/2020, 15:32:00,7.9704924,-4.520042,3.3667014,-0.27230778,-0.23689556,-0.11600556,9.76187511438929,0.37911518866722516,jump
05/08/2020, 15:32:00,7.920243,-4.668397,3.4049866,-0.27230778,-0.23689556,-0.11600556,9.803984381784653,0.37911518866722516,jump
05/08/2020, 15:32:00,7.920243,-4.668397,3.4049866,-0.21613668,-0.22346334,-0.13310112,9.803984381784653,0.33818166326851185,jump
05/08/2020, 15:32:00,7.874779,-4.790431,3.4648073,-0.21613668,-0.22346334,-0.13310112,9.847094325103942,0.33818166326851185,jump
05/08/2020, 15:32:00,7.874779,-4.790431,3.4648073,-0.13676445,-0.21369445,-0.16118668,9.847094325103942,0.30058439831669315,jump
05/08/2020, 15:32:00,7.8484583,-5.0368915,3.4719856,-0.13676445,-0.21369445,-0.16118668,9.951043009305538,0.30058439831669315,jump
05/08/2020, 15:32:00,7.8484583,-5.0368915,3.4719856,-0.03297,-0.22102112,-0.16729222,9.951043009305538,0.2791487814651647,jump
05/08/2020, 15:32:00,7.8699937,-5.3623157,3.5246277,-0.03297,-0.22102112,-0.16729222,10.154517720269668,0.2791487814651647,jump
05/08/2020, 15:32:01,7.62114,-5.032106,3.330809,0.49455002,-0.40663,-0.2503278,9.721016116402339,0.6874530468818274,jump
05/08/2020, 15:32:01,7.62114,-5.032106,3.330809,0.5592689,-0.4261678,-0.25887558,9.721016116402339,0.7492778126253848,jump
05/08/2020, 15:32:01,7.6809607,-5.0440702,3.3930225,0.5592689,-0.4261678,-0.25887558,9.795529753404237,0.7492778126253848,jump
05/08/2020, 15:32:01,7.6809607,-5.0440702,3.3930225,0.6349778,-0.44326335,-0.25643334,9.795529753404237,0.815743393914572,jump
05/08/2020, 15:32:01,7.793423,-5.0799623,3.4983068,0.6349778,-0.44326335,-0.25643334,9.938893873104366,0.815743393914572,jump
05/08/2020, 15:32:01,7.793423,-5.0799623,3.4983068,0.70336,-0.4249467,-0.25277,9.938893873104366,0.8597602512560072,jump
05/08/2020, 15:32:01,7.941778,-5.0392847,3.586841,0.70336,-0.4249467,-0.25277,10.066362807870071,0.8597602512560072,jump
05/08/2020, 15:32:01,7.941778,-5.0392847,3.586841,0.7754056,-0.3834289,-0.25765446,10.066362807870071,0.9025837162089294,jump
05/08/2020, 15:32:01,8.073383,-4.9842496,3.656233,0.7754056,-0.3834289,-0.25765446,10.168102216567544,0.9025837162089294,jump
05/08/2020, 15:32:01,8.073383,-4.9842496,3.656233,0.82791334,-0.33214223,-0.25643334,10.168102216567544,0.9281794144046258,jump
05/08/2020, 15:32:01,8.257631,-4.8598228,3.7040894,0.82791334,-0.33214223,-0.25643334,10.272615547495208,0.9281794144046258,jump
05/08/2020, 15:32:01,8.257631,-4.8598228,3.7040894,0.8498934,-0.2820767,-0.24910668,10.272615547495208,0.9294838186582125,jump
05/08/2020, 15:32:01,8.384451,-4.699504,3.7040894,0.8498934,-0.2820767,-0.24910668,10.300710281500463,0.9294838186582125,jump
05/08/2020, 15:32:01,8.384451,-4.699504,3.7040894,0.8303556,-0.22712667,-0.23201112,10.300710281500463,0.8915750581561529,jump
05/08/2020, 15:32:01,8.525627,-4.517649,3.7088752,0.8303556,-0.22712667,-0.23201112,10.336886727567022,0.8915750581561529,jump
05/08/2020, 15:32:01,8.525627,-4.517649,3.7088752,0.78761667,-0.15386,-0.21125223,10.336886727567022,0.829843613646391,jump
05/08/2020, 15:32:01,8.645268,-4.347759,3.6610186,0.78761667,-0.15386,-0.21125223,10.34633896548488,0.829843613646391,jump
05/08/2020, 15:32:01,8.645268,-4.347759,3.6610186,0.73633003,-0.07570889,-0.19904111,10.34633896548488,0.7665057841261346,jump
05/08/2020, 15:32:01,8.762517,-4.130012,3.5796626,0.73633003,-0.07570889,-0.19904111,10.327278790181401,0.7665057841261346,jump
05/08/2020, 15:32:01,8.762517,-4.130012,3.5796626,0.6557367,0.0012211112,-0.18072446,10.327278790181401,0.6801863128790439,jump
05/08/2020, 15:32:02,8.118847,-4.2568316,3.426522,0.10013112,-0.05617111,-0.08669889,9.786589991863597,0.14386845321532912,jump
05/08/2020, 15:32:02,8.087741,-4.2831526,3.4313076,0.10013112,-0.05617111,-0.08669889,9.773986924123617,0.14386845321532912,jump
05/08/2020, 15:32:02,8.087741,-4.2831526,3.4313076,0.19293556,-0.08792,-0.09280445,9.773986924123617,0.2314448553087965,jump
05/08/2020, 15:32:02,8.082955,-4.2927237,3.4217365,0.19293556,-0.08792,-0.09280445,9.770871213613633,0.2314448553087965,jump
05/08/2020, 15:32:02,8.082955,-4.2927237,3.4217365,0.24910668,-0.12455334,-0.09402556,9.770871213613633,0.2939531859563592,jump
05/08/2020, 15:32:02,8.140383,-4.278367,3.397808,0.24910668,-0.12455334,-0.09402556,9.803843932544002,0.2939531859563592,jump
05/08/2020, 15:32:02,8.140383,-4.278367,3.397808,0.2869611,-0.15996556,-0.08425667,9.803843932544002,0.33916787106949314,jump
05/08/2020, 15:32:02,8.19781,-4.2711883,3.4025939,0.2869611,-0.15996556,-0.08425667,9.850116024365793,0.33916787106949314,jump
05/08/2020, 15:32:02,8.19781,-4.2711883,3.4025939,0.3162678,-0.17828223,-0.068382226,9.850116024365793,0.3694401125113643,jump
05/08/2020, 15:32:02,8.30788,-4.2951164,3.414558,0.3162678,-0.17828223,-0.068382226,9.956309946528094,0.3694401125113643,jump
05/08/2020, 15:32:02,8.30788,-4.2951164,3.414558,0.34191114,-0.1746189,-0.045181114,9.956309946528094,0.38656994054589505,jump
05/08/2020, 15:32:02,8.410771,-4.2831526,3.4289148,0.34191114,-0.1746189,-0.045181114,10.042107730378818,0.38656994054589505,jump
05/08/2020, 15:32:02,8.410771,-4.2831526,3.4289148,0.36877558,-0.14775445,-0.028085556,10.042107730378818,0.39826574090618333,jump
05/08/2020, 15:32:02,8.492127,-4.2592244,3.4241292,0.36877558,-0.14775445,-0.028085556,10.098607914604324,0.39826574090618333,jump
05/08/2020, 15:32:02,8.492127,-4.2592244,3.4241292,0.3834289,-0.11844778,-0.012211111,10.098607914604324,0.40149310134429905,jump
05/08/2020, 15:32:02,8.535198,-4.197011,3.3834512,0.3834289,-0.11844778,-0.012211111,10.095159829187489,0.40149310134429905,jump
05/08/2020, 15:32:02,8.535198,-4.197011,3.3834512,0.38465002,-0.10745778,0.007326667,10.095159829187489,0.39944523236454677,jump
05/08/2020, 15:32:02,8.573483,-4.1443686,3.359523,0.38465002,-0.10745778,0.007326667,10.097861428658906,0.39944523236454677,jump
05/08/2020, 15:32:02,8.573483,-4.1443686,3.359523,0.35778558,-0.09280445,0.03297,10.097861428658906,0.3710932623047425,jump
05/08/2020, 15:32:02,8.633304,-4.0558343,3.3714871,0.35778558,-0.09280445,0.03297,10.116849763366476,0.3710932623047425,jump
05/08/2020, 15:32:03,8.530413,-4.0151563,3.3427732,0.4689067,-0.30772,-0.18927222,10.00317714096213,0.5919367118115121,jump
05/08/2020, 15:32:03,8.554341,-3.938586,3.333202,0.4689067,-0.30772,-0.18927222,9.98996745815179,0.5919367118115121,jump
05/08/2020, 15:32:03,8.554341,-3.938586,3.333202,0.37732336,-0.27108666,-0.16240779,9.98996745815179,0.4921759696878787,jump
05/08/2020, 15:32:03,8.547162,-3.8811584,3.3690944,0.37732336,-0.27108666,-0.16240779,9.973372862255504,0.4921759696878787,jump
05/08/2020, 15:32:03,8.547162,-3.8811584,3.3690944,0.2759711,-0.22346334,-0.14042778,9.973372862255504,0.381858459935929,jump
05/08/2020, 15:32:03,8.578269,-3.9074793,3.4313076,0.2759711,-0.22346334,-0.14042778,10.031398956423713,0.381858459935929,jump
05/08/2020, 15:32:03,8.578269,-3.9074793,3.4313076,0.17584,-0.17217667,-0.117226675,10.031398956423713,0.27259238414954484,jump
05/08/2020, 15:32:03,8.585447,-3.8907297,3.4504502,0.17584,-0.17217667,-0.117226675,10.037593801655834,0.27259238414954484,jump
05/08/2020, 15:32:03,8.585447,-3.8907297,3.4504502,0.08425667,-0.13188,-0.11234222,10.037593801655834,0.19264551985025685,jump
05/08/2020, 15:32:03,8.559127,-3.9026937,3.4863427,0.08425667,-0.13188,-0.11234222,10.032161093139456,0.19264551985025685,jump
05/08/2020, 15:32:03,8.559127,-3.9026937,3.4863427,0.01099,-0.106236674,-0.102573335,10.032161093139456,0.1480820720912561,jump
05/08/2020, 15:32:03,8.516056,-3.9338005,3.5557344,0.01099,-0.106236674,-0.102573335,10.03201096370025,0.1480820720912561,jump
05/08/2020, 15:32:03,8.516056,-3.9338005,3.5557344,-0.034191113,-0.11356334,-0.07326667,10.03201096370025,0.13940469337889377,jump
05/08/2020, 15:32:03,8.441878,-4.089334,3.5006995,-0.034191113,-0.11356334,-0.07326667,10.012135603030151,0.13940469337889377,jump
05/08/2020, 15:32:03,8.441878,-4.089334,3.5006995,-0.046402223,-0.1526389,-0.05617111,10.012135603030151,0.1691360195308887,jump
05/08/2020, 15:32:03,8.449057,-4.2927237,3.37388,-0.046402223,-0.1526389,-0.05617111,10.05967692755033,0.1691360195308887,jump
05/08/2020, 15:32:03,8.449057,-4.2927237,3.37388,0.009768889,-0.2283478,-0.02075889,10.05967692755033,0.22949744522556603,jump
05/08/2020, 15:32:03,8.477771,-4.5391846,3.141776,0.009768889,-0.2283478,-0.02075889,10.116696662409499,0.22949744522556603,jump
05/08/2020, 15:32:03,8.477771,-4.5391846,3.141776,0.14531223,-0.31016225,0.023201112,10.116696662409499,0.34329951374827156,jump
05/08/2020, 15:32:03,8.575876,-4.761717,2.955136,0.14531223,-0.31016225,0.023201112,10.24462930717664,0.34329951374827156,jump
05/08/2020, 15:32:04,6.4414787,-7.219146,-3.897908,3.7939923,-6.663604,-4.6976147,10.430838916336656,8.992528920504018,jump
05/08/2020, 15:32:04,6.4414787,-7.219146,-3.897908,4.59382,-7.194787,-4.842927,10.430838916336656,9.814381546076167,jump
05/08/2020, 15:32:04,8.073383,-7.556534,-3.5270207,4.59382,-7.194787,-4.842927,11.606920205460463,9.814381546076167,jump
05/08/2020, 15:32:04,8.073383,-7.556534,-3.5270207,5.403417,-7.691779,-4.9393945,11.606920205460463,10.618757014200197,jump
05/08/2020, 15:32:04,9.743574,-7.159325,-2.9958138,5.403417,-7.691779,-4.9393945,12.456647778892153,10.618757014200197,jump
05/08/2020, 15:32:04,9.743574,-7.159325,-2.9958138,6.184928,-8.218078,-4.9931235,12.456647778892153,11.433346694914842,jump
05/08/2020, 15:32:04,11.428121,-6.283552,-2.457429,6.184928,-8.218078,-4.9931235,13.27116896037718,11.433346694914842,jump
05/08/2020, 15:32:04,11.428121,-6.283552,-2.457429,6.830896,-8.697975,-4.9161935,13.27116896037718,12.103093367081218,jump
05/08/2020, 15:32:04,13.194024,-5.3336015,-1.7228323,6.830896,-8.697975,-4.9161935,14.335191923501972,12.103093367081218,jump
05/08/2020, 15:32:04,13.194024,-5.3336015,-1.7228323,7.384059,-9.045992,-4.579167,14.335191923501972,12.542849174796977,jump
05/08/2020, 15:32:04,15.005391,-4.642076,-1.0313065,7.384059,-9.045992,-4.579167,15.740845769290885,12.542849174796977,jump
05/08/2020, 15:32:04,15.005391,-4.642076,-1.0313065,7.910358,-9.234042,-4.01135,15.740845769290885,12.803602139626708,jump
05/08/2020, 15:32:04,16.783258,-4.23051,-0.15792629,7.910358,-9.234042,-4.01135,17.308954947104343,12.803602139626708,jump
05/08/2020, 15:32:04,16.783258,-4.23051,-0.15792629,8.47329,-9.245032,-3.3324122,17.308954947104343,12.975833103005217,jump
05/08/2020, 15:32:04,18.415163,-4.1754756,0.8446664,8.47329,-9.245032,-3.3324122,18.901489031912515,12.975833103005217,jump
05/08/2020, 15:32:04,18.415163,-4.1754756,0.8446664,9.047213,-9.053318,-2.6327157,18.901489031912515,13.066974211659923,jump
05/08/2020, 15:32:04,19.7695,-4.4817567,1.9381863,9.047213,-9.053318,-2.6327157,20.36359173374621,13.066974211659923,jump
05/08/2020, 15:32:04,19.7695,-4.4817567,1.9381863,9.651663,-8.665005,-1.9708734,20.36359173374621,13.11949862139756,jump
05/08/2020, 15:32:04,20.750559,-5.0249276,2.928815,9.651663,-8.665005,-1.9708734,21.55025630737208,13.11949862139756,jump
05/08/2020, 15:32:04,20.750559,-5.0249276,2.928815,10.214595,-8.104515,-1.32979,21.55025630737208,13.106847592449121,jump
05/08/2020, 15:32:05,8.32463,-3.2566316,2.9336007,0.4701278,-0.6899278,-0.16240779,9.408035042052328,0.8505273779826305,jump
05/08/2020, 15:32:05,8.456235,-3.3284163,3.101098,0.4701278,-0.6899278,-0.16240779,9.60224316439113,0.8505273779826305,jump
05/08/2020, 15:32:05,8.456235,-3.3284163,3.101098,0.42006224,-0.6581789,-0.16362889,9.60224316439113,0.797763248576721,jump
05/08/2020, 15:32:05,8.535198,-3.4289148,3.2398818,0.42006224,-0.6581789,-0.16362889,9.752122789286428,0.797763248576721,jump
05/08/2020, 15:32:05,8.535198,-3.4289148,3.2398818,0.39197668,-0.6581789,-0.17339778,9.752122789286428,0.7854374634394365,jump
05/08/2020, 15:32:05,8.547162,-3.5389848,3.3260236,0.39197668,-0.6581789,-0.17339778,9.830606558001467,0.7854374634394365,jump
05/08/2020, 15:32:05,8.547162,-3.5389848,3.3260236,0.38465002,-0.6789378,-0.1746189,9.830606558001467,0.7996273669038473,jump
05/08/2020, 15:32:05,8.547162,-3.6179478,3.5030923,0.38465002,-0.6789378,-0.1746189,9.92044259100816,0.7996273669038473,jump
05/08/2020, 15:32:05,8.547162,-3.6179478,3.5030923,0.38953447,-0.7131289,-0.17217667,9.92044259100816,0.8306231250256608,jump
05/08/2020, 15:32:05,8.618947,-3.6729827,3.6658044,0.38953447,-0.7131289,-0.17217667,10.060575110256574,0.8306231250256608,jump
05/08/2020, 15:32:05,8.618947,-3.6729827,3.6658044,0.40540892,-0.74976224,-0.16607112,10.060575110256574,0.8683774637247006,jump
05/08/2020, 15:32:05,8.738588,-3.6777685,3.792624,0.40540892,-0.74976224,-0.16607112,10.211410468051824,0.8683774637247006,jump
05/08/2020, 15:32:05,8.738588,-3.6777685,3.792624,0.41151446,-0.76441556,-0.15141778,10.211410468051824,0.8812506150245011,jump
05/08/2020, 15:32:05,8.91805,-3.644269,3.9314077,0.41151446,-0.76441556,-0.15141778,10.405204243484416,0.8812506150245011,jump
05/08/2020, 15:32:05,8.91805,-3.644269,3.9314077,0.40174556,-0.7265611,-0.13554333,10.405204243484416,0.8412268197248101,jump
05/08/2020, 15:32:05,9.075976,-3.5533416,3.9888353,0.40174556,-0.7265611,-0.13554333,10.531400246303525,0.8412268197248101,jump
05/08/2020, 15:32:05,9.075976,-3.5533416,3.9888353,0.3809867,-0.6691689,-0.11112112,10.531400246303525,0.7780011336367127,jump
05/08/2020, 15:32:05,9.090333,-3.4217365,3.979264,0.3809867,-0.6691689,-0.11112112,10.496522112365524,0.7780011336367127,jump
05/08/2020, 15:32:05,9.090333,-3.4217365,3.979264,0.35290113,-0.6203245,-0.08669889,10.496522112365524,0.7189286345811097,jump
05/08/2020, 15:32:05,9.025727,-3.3212378,3.9673,0.35290113,-0.6203245,-0.08669889,10.403549496666082,0.7189286345811097,jump
05/08/2020, 15:32:06,8.7577305,-1.820938,4.199404,-0.15141778,-0.07937223,0.15019667,9.881733165861487,0.22756610852449913,jump
05/08/2020, 15:32:06,8.7577305,-1.820938,4.199404,-0.16973445,-0.05617111,0.15508112,9.881733165861487,0.2366751601810299,jump
05/08/2020, 15:32:06,8.836694,-1.7635103,4.206582,-0.16973445,-0.05617111,0.15508112,9.944468719970551,0.2366751601810299,jump
05/08/2020, 15:32:06,8.836694,-1.7635103,4.206582,-0.18927222,-0.03052778,0.16240779,9.944468719970551,0.25126123716628157,jump
05/08/2020, 15:32:06,8.877372,-1.7180467,4.2161536,-0.18927222,-0.03052778,0.16240779,9.976741229888038,0.25126123716628157,jump
05/08/2020, 15:32:06,8.877372,-1.7180467,4.2161536,-0.21247335,-0.015874445,0.16729222,9.976741229888038,0.27089409223012323,jump
05/08/2020, 15:32:06,8.886943,-1.7084754,4.197011,-0.21247335,-0.015874445,0.16729222,9.975547241529902,0.27089409223012323,jump
05/08/2020, 15:32:06,8.886943,-1.7084754,4.197011,-0.23811668,0.007326667,0.16729222,9.975547241529902,0.29110122254282667,jump
05/08/2020, 15:32:06,8.9013,-1.7084754,4.206582,-0.23811668,0.007326667,0.16729222,9.992365589944523,0.29110122254282667,jump
05/08/2020, 15:32:06,8.9013,-1.7084754,4.206582,-0.25277,0.03174889,0.17706113,9.992365589944523,0.3102439532829437,jump
05/08/2020, 15:32:06,8.860622,-1.6893328,4.213761,-0.25277,0.03174889,0.17706113,9.95591559829491,0.3102439532829437,jump
05/08/2020, 15:32:06,8.860622,-1.6893328,4.213761,-0.26498112,0.05250778,0.18683001,9.95591559829491,0.3284471274550238,jump
05/08/2020, 15:32:06,8.834301,-1.6749759,4.206582,-0.26498112,0.05250778,0.18683001,9.927021252445392,0.3284471274550238,jump
05/08/2020, 15:32:06,8.834301,-1.6749759,4.206582,-0.27230778,0.06349778,0.19415668,9.927021252445392,0.3404119742465244,jump
05/08/2020, 15:32:06,8.865408,-1.6534405,4.223332,-0.27230778,0.06349778,0.19415668,9.9582054603617,0.3404119742465244,jump
05/08/2020, 15:32:06,8.865408,-1.6534405,4.223332,-0.2845189,0.058613338,0.20514667,9.9582054603617,0.35562857414397303,jump
05/08/2020, 15:32:06,8.894122,-1.6366907,4.2448673,-0.2845189,0.058613338,0.20514667,9.990148323309592,0.35562857414397303,jump
05/08/2020, 15:32:06,8.894122,-1.6366907,4.2448673,-0.29673,0.064718895,0.21613668,9.990148323309592,0.3727630604052493,jump
05/08/2020, 15:32:06,8.958728,-1.6606189,4.2424746,-0.29673,0.064718895,0.21613668,10.050624355913179,0.3727630604052493,jump
05/08/2020, 15:32:06,8.958728,-1.6606189,4.2424746,-0.30649891,0.081814446,0.23445335,10.050624355913179,0.39446617325298455,jump
05/08/2020, 15:32:07,8.350951,-4.8454657,3.0005996,0.54339445,-0.25277,0.1965989,10.11041648085699,0.6307307896538327,jump
05/08/2020, 15:32:07,8.463413,-4.752146,3.0005996,0.54339445,-0.25277,0.1965989,10.159520221682863,0.6307307896538327,jump
05/08/2020, 15:32:07,8.463413,-4.752146,3.0005996,0.49455002,-0.20270446,0.1965989,10.159520221682863,0.5694909552095806,jump
05/08/2020, 15:32:07,8.6141615,-4.6971107,2.9599216,0.49455002,-0.20270446,0.1965989,10.248305350373935,0.5694909552095806,jump
05/08/2020, 15:32:07,8.6141615,-4.6971107,2.9599216,0.43349445,-0.12699556,0.19782001,10.248305350373935,0.493130880859729,jump
05/08/2020, 15:32:07,8.709874,-4.6061835,2.9455647,0.43349445,-0.12699556,0.19782001,10.28373405642734,0.493130880859729,jump
05/08/2020, 15:32:07,8.709874,-4.6061835,2.9455647,0.37976557,-0.04151778,0.20026223,10.28373405642734,0.43133580478149264,jump
05/08/2020, 15:32:07,8.7266245,-4.570291,2.8977082,0.37976557,-0.04151778,0.20026223,10.268312805080285,0.43133580478149264,jump
05/08/2020, 15:32:07,8.7266245,-4.570291,2.8977082,0.3284789,0.03052778,0.20270446,10.268312805080285,0.3871943086525124,jump
05/08/2020, 15:32:07,8.712267,-4.57747,2.87378,0.3284789,0.03052778,0.20270446,10.252581942313313,0.3871943086525124,jump
05/08/2020, 15:32:07,8.712267,-4.57747,2.87378,0.28940335,0.07937223,0.1965989,10.252581942313313,0.3587553168361945,jump
05/08/2020, 15:32:07,8.628518,-4.6037908,2.8522446,0.28940335,0.07937223,0.1965989,10.187321207746246,0.3587553168361945,jump
05/08/2020, 15:32:07,8.628518,-4.6037908,2.8522446,0.25765446,0.091583334,0.17950334,10.187321207746246,0.32710055755982903,jump
05/08/2020, 15:32:07,8.583055,-4.610969,2.8091738,0.25765446,0.091583334,0.17950334,10.140084742152883,0.32710055755982903,jump
05/08/2020, 15:32:07,8.583055,-4.610969,2.8091738,0.23201112,0.09036223,0.15630223,10.140084742152883,0.29398108931505074,jump
05/08/2020, 15:32:07,8.623733,-4.5894337,2.8307092,0.23201112,0.09036223,0.15630223,10.170770839931933,0.29398108931505074,jump
05/08/2020, 15:32:07,8.623733,-4.5894337,2.8307092,0.21003112,0.09646778,0.13676445,10.170770839931933,0.26855841021567783,jump
05/08/2020, 15:32:07,8.779266,-4.5535417,2.8139594,0.21003112,0.09646778,0.13676445,10.282442643027471,0.26855841021567783,jump
05/08/2020, 15:32:07,8.779266,-4.5535417,2.8139594,0.17828223,0.11844778,0.12211112,10.282442643027471,0.2464255589798669,jump
05/08/2020, 15:32:07,8.913264,-4.508078,2.8187451,0.17828223,0.11844778,0.12211112,10.378553478801914,0.2464255589798669,jump
05/08/2020, 15:32:08,4.223332,-2.37368,3.2829528,-0.42006224,0.5104245,0.25887558,5.852236226871999,0.7099309958254942,jump
05/08/2020, 15:32:08,3.739982,-2.306681,3.3140593,-0.42006224,0.5104245,0.25887558,5.503746919508946,0.7099309958254942,jump
05/08/2020, 15:32:08,3.739982,-2.306681,3.3140593,-0.47379112,0.58491224,0.2735289,5.503746919508946,0.8008860205823747,jump
05/08/2020, 15:32:08,3.1752756,-2.172683,3.1609187,-0.47379112,0.58491224,0.2735289,4.979390870103877,0.8008860205823747,jump
05/08/2020, 15:32:08,3.1752756,-2.172683,3.1609187,-0.5250778,0.6777167,0.2845189,4.979390870103877,0.9033037185806905,jump
05/08/2020, 15:32:08,2.4215364,-1.9645073,2.833102,-0.5250778,0.6777167,0.2845189,4.213026789056254,0.9033037185806905,jump
05/08/2020, 15:32:08,2.4215364,-1.9645073,2.833102,-0.57270116,0.79616445,0.29673,4.213026789056254,1.0246526974325356,jump
05/08/2020, 15:32:08,1.4189439,-1.6247265,2.3401806,-0.57270116,0.79616445,0.29673,3.1827006545862786,1.0246526974325356,jump
05/08/2020, 15:32:08,1.4189439,-1.6247265,2.3401806,-0.59834445,0.8999589,0.31993112,3.1827006545862786,1.1270749902151864,jump
05/08/2020, 15:32:08,0.10049855,-1.146162,1.7419748,-0.59834445,0.8999589,0.31993112,2.0876454859711644,1.1270749902151864,jump
05/08/2020, 15:32:08,0.10049855,-1.146162,1.7419748,-0.6471889,0.8486723,0.26498112,2.0876454859711644,1.0996877249109585,jump
05/08/2020, 15:32:08,-1.5122639,-0.6412765,1.1940185,-0.6471889,0.8486723,0.26498112,2.0307283781180576,1.0996877249109585,jump
05/08/2020, 15:32:08,-1.5122639,-0.6412765,1.1940185,-0.6667267,0.4689067,0.15630223,2.0307283781180576,0.8299568568570732,jump
05/08/2020, 15:32:08,-2.9623144,-0.81834537,0.96430755,-0.6667267,0.4689067,0.15630223,3.2210067675053646,0.8299568568570732,jump
05/08/2020, 15:32:08,-2.9623144,-0.81834537,0.96430755,-0.37854445,-0.21369445,0.09280445,3.2210067675053646,0.44449284040724285,jump
05/08/2020, 15:32:08,-3.4408789,-2.885744,1.3423735,-0.37854445,-0.21369445,0.09280445,4.687124166635873,0.44449284040724285,jump
05/08/2020, 15:32:08,-3.4408789,-2.885744,1.3423735,0.8230289,-0.9842156,0.2185789,4.687124166635873,1.3014736744688646,jump
05/08/2020, 15:32:08,-1.713261,-8.30788,4.9340005,0.8230289,-0.9842156,0.2185789,9.813281862145494,1.3014736744688646,jump
05/08/2020, 15:32:08,-1.713261,-8.30788,4.9340005,3.9087768,-1.62652,0.43349445,9.813281862145494,4.255821968810394,jump
05/08/2020, 15:32:08,2.8570302,-18.108881,6.582655,3.9087768,-1.62652,0.43349445,19.478848489574656,4.255821968810394,jump
05/08/2020, 15:32:09,11.875579,-0.2632105,6.9966135,-7.150827,-0.26498112,0.2515489,13.785907805289366,7.160154861014061,jump
05/08/2020, 15:32:09,11.320444,-1.2801601,6.7118673,-7.150827,-0.26498112,0.2515489,13.222723912755233,7.160154861014061,jump
05/08/2020, 15:32:09,11.320444,-1.2801601,6.7118673,-6.911489,-0.028085556,0.09036223,13.222723912755233,6.912136750973373,jump
05/08/2020, 15:32:09,10.77488,-2.4143581,6.398408,-6.911489,-0.028085556,0.09036223,12.76192764333342,6.912136750973373,jump
05/08/2020, 15:32:09,10.77488,-2.4143581,6.398408,-6.4877634,0.21735778,-0.035412222,12.76192764333342,6.491500013804651,jump
05/08/2020, 15:32:09,10.229317,-3.4241292,6.1040907,-6.4877634,0.21735778,-0.035412222,12.39449493309825,6.491500013804651,jump
05/08/2020, 15:32:09,10.229317,-3.4241292,6.1040907,-5.9773393,0.46646446,-0.12577444,12.39449493309825,5.996831915641063,jump
05/08/2020, 15:32:09,9.662218,-4.101298,5.898308,-5.9773393,0.46646446,-0.12577444,12.040313014995387,5.996831915641063,jump
05/08/2020, 15:32:09,9.662218,-4.101298,5.898308,-5.4339447,0.6740534,-0.19415668,12.040313014995387,5.479032742003021,jump
05/08/2020, 15:32:09,9.080762,-4.4745784,5.759524,-5.4339447,0.6740534,-0.19415668,11.647068460916197,5.479032742003021,jump
05/08/2020, 15:32:09,9.080762,-4.4745784,5.759524,-4.8942137,0.8071545,-0.26986557,11.647068460916197,4.9676607459784705,jump
05/08/2020, 15:32:09,8.482556,-4.642076,5.6327047,-4.8942137,0.8071545,-0.26986557,11.190620826227251,4.9676607459784705,jump
05/08/2020, 15:32:09,8.482556,-4.642076,5.6327047,-4.3654723,0.88286334,-0.31993112,11.190620826227251,4.465327776498956,jump
05/08/2020, 15:32:09,7.9274216,-4.7832522,5.505885,-4.3654723,0.88286334,-0.31993112,10.772106838067756,4.465327776498956,jump
05/08/2020, 15:32:09,7.9274216,-4.7832522,5.505885,-3.844058,0.91217005,-0.3394689,10.772106838067756,3.965359444825167,jump
05/08/2020, 15:32:09,7.463214,-4.855037,5.4412785,-3.844058,0.91217005,-0.3394689,10.43448415647112,3.965359444825167,jump
05/08/2020, 15:32:09,7.463214,-4.855037,5.4412785,-3.327528,0.90240115,-0.3309211,10.43448415647112,3.463564523368211,jump
05/08/2020, 15:32:09,7.133004,-4.883751,5.4053864,-3.327528,0.90240115,-0.3309211,10.195536984868442,3.463564523368211,jump
05/08/2020, 15:32:09,7.133004,-4.883751,5.4053864,-2.8158824,0.89263225,-0.30161446,10.195536984868442,2.9693362139873507,jump
05/08/2020, 15:32:09,6.960721,-4.831109,5.45085,-2.8158824,0.89263225,-0.30161446,10.07487059547787,2.9693362139873507,jump
05/08/2020, 15:32:10,9.083155,-2.2779672,4.924429,1.3603178,-0.41884112,0.123332225,10.58030405634862,1.4286718702851562,jump
05/08/2020, 15:32:10,9.083155,-2.2779672,4.924429,1.2284378,-0.40663,0.14409111,10.58030405634862,1.3019867881100773,jump
05/08/2020, 15:32:10,9.102298,-2.1511476,4.759324,1.2284378,-0.40663,0.14409111,10.494304483007264,1.3019867881100773,jump
05/08/2020, 15:32:10,9.102298,-2.1511476,4.759324,1.0635878,-0.3614489,0.17217667,10.494304483007264,1.136445819330959,jump
05/08/2020, 15:32:10,9.142975,-2.0697916,4.6325045,1.0635878,-0.3614489,0.17217667,10.456487166174524,1.136445819330959,jump
05/08/2020, 15:32:10,9.142975,-2.0697916,4.6325045,0.88286334,-0.2820767,0.19415668,10.456487166174524,0.9469486544524476,jump
05/08/2020, 15:32:10,9.272188,-2.0051854,4.4578285,0.88286334,-0.2820767,0.19415668,10.481721101442714,0.9469486544524476,jump
05/08/2020, 15:32:10,9.272188,-2.0051854,4.4578285,0.71923447,-0.1965989,0.19782001,10.481721101442714,0.7714156478623885,jump
05/08/2020, 15:32:10,9.377472,-1.9214365,4.2975097,0.71923447,-0.1965989,0.19782001,10.492734984598998,0.7714156478623885,jump
05/08/2020, 15:32:10,9.377472,-1.9214365,4.2975097,0.5836911,-0.11234222,0.18927222,10.492734984598998,0.6238109281229423,jump
05/08/2020, 15:32:10,9.509077,-1.8400806,4.15394,0.5836911,-0.11234222,0.18927222,10.538674614947258,0.6238109281229423,jump
05/08/2020, 15:32:10,9.509077,-1.8400806,4.15394,0.45303226,-0.026864445,0.17706113,10.538674614947258,0.48714532209065803,jump
05/08/2020, 15:32:10,9.664611,-1.713261,4.065406,0.45303226,-0.026864445,0.17706113,10.623911290115805,0.48714532209065803,jump
05/08/2020, 15:32:10,9.664611,-1.713261,4.065406,0.32115224,0.05006556,0.17950334,10.623911290115805,0.3713041465588602,jump
05/08/2020, 15:32:10,9.848858,-1.6271194,3.845266,0.32115224,0.05006556,0.17950334,10.697363719872442,0.3713041465588602,jump
05/08/2020, 15:32:10,9.848858,-1.6271194,3.845266,0.19293556,0.10379445,0.18316667,10.697363719872442,0.28556513177834647,jump
05/08/2020, 15:32:10,10.059426,-1.6414764,3.603591,0.19293556,0.10379445,0.18316667,10.81075252850299,0.28556513177834647,jump
05/08/2020, 15:32:10,10.059426,-1.6414764,3.603591,0.068382226,0.15019667,0.18316667,10.81075252850299,0.24654654154662975,jump
05/08/2020, 15:32:10,10.339387,-1.7395821,3.493521,0.068382226,0.15019667,0.18316667,11.051414246523857,0.24654654154662975,jump
05/08/2020, 15:32:10,10.339387,-1.7395821,3.493521,-0.012211111,0.21247335,0.1856089,11.051414246523857,0.282391034126035,jump
05/08/2020, 15:32:11,8.645268,-2.7421749,2.644069,-0.7986067,-0.10867889,-0.3052778,9.447290089424094,0.8618458590670769,jump
05/08/2020, 15:32:11,8.642876,-2.804388,2.6344976,-0.7986067,-0.10867889,-0.3052778,9.460680208817365,0.8618458590670769,jump
05/08/2020, 15:32:11,8.642876,-2.804388,2.6344976,-0.81570226,-0.117226675,-0.31871,9.460680208817365,0.8835656926654316,jump
05/08/2020, 15:32:11,8.671589,-2.9503503,2.644069,-0.81570226,-0.117226675,-0.31871,9.533735965431848,0.8835656926654316,jump
05/08/2020, 15:32:11,8.671589,-2.9503503,2.644069,-0.8095967,-0.11356334,-0.34313223,9.533735965431848,0.8866133327421851,jump
05/08/2020, 15:32:11,8.721839,-3.1489546,2.725425,-0.8095967,-0.11356334,-0.34313223,9.665108970307944,0.8866133327421851,jump
05/08/2020, 15:32:11,8.721839,-3.1489546,2.725425,-0.7815111,-0.10745778,-0.37732336,9.665108970307944,0.8744596816815524,jump
05/08/2020, 15:32:11,8.781659,-3.345166,2.7996025,-0.7815111,-0.10745778,-0.37732336,9.80537845109157,0.8744596816815524,jump
05/08/2020, 15:32:11,8.781659,-3.345166,2.7996025,-0.7265611,-0.10013112,-0.41273558,9.80537845109157,0.8415865820069882,jump
05/08/2020, 15:32:11,8.800801,-3.5030923,2.8809586,-0.7265611,-0.10013112,-0.41273558,9.900791933629067,0.8415865820069882,jump
05/08/2020, 15:32:11,8.800801,-3.5030923,2.8809586,-0.64963114,-0.106236674,-0.45425335,9.900791933629067,0.7997830671134961,jump
05/08/2020, 15:32:11,8.815159,-3.5844483,2.952743,-0.64963114,-0.106236674,-0.45425335,9.963633216305418,0.7997830671134961,jump
05/08/2020, 15:32:11,8.815159,-3.5844483,2.952743,-0.56049,-0.12821667,-0.48111778,9.963633216305418,0.7497085373412057,jump
05/08/2020, 15:32:11,8.896515,-3.6394832,2.993421,-0.56049,-0.12821667,-0.48111778,10.067491497053886,0.7497085373412057,jump
05/08/2020, 15:32:11,8.896515,-3.6394832,2.993421,-0.47623336,-0.14897557,-0.4798967,10.067491497053886,0.6923097375953922,jump
05/08/2020, 15:32:11,8.989835,-3.6394832,3.0915267,-0.47623336,-0.14897557,-0.4798967,10.179415757132736,0.6923097375953922,jump
05/08/2020, 15:32:11,8.989835,-3.6394832,3.0915267,-0.40540892,-0.14531223,-0.4713489,10.179415757132736,0.6384683496107753,jump
05/08/2020, 15:32:11,9.104691,-3.644269,3.089134,-0.40540892,-0.14531223,-0.4713489,10.281966506700604,0.6384683496107753,jump
05/08/2020, 15:32:11,9.104691,-3.644269,3.089134,-0.35290113,-0.1306589,-0.45425335,10.281966506700604,0.5898788495024216,jump
05/08/2020, 15:32:11,9.217153,-3.6275191,3.0556345,-0.35290113,-0.1306589,-0.45425335,10.365891143638175,0.5898788495024216,jump
05/08/2020, 15:32:12,9.236296,-2.766103,2.9072795,0.028085556,0.015874445,0.07570889,10.07039017460999,0.08229600391677121,jump
05/08/2020, 15:32:12,9.236296,-2.766103,2.9072795,0.028085556,0.015874445,0.070824444,10.07039017460999,0.07782607774188693,jump
05/08/2020, 15:32:12,9.195618,-2.7230322,2.8977082,0.028085556,0.015874445,0.070824444,10.018532910576884,0.07782607774188693,jump
05/08/2020, 15:32:12,9.195618,-2.7230322,2.8977082,0.024422223,0.015874445,0.06960334,10.018532910576884,0.07545242049989988,jump
05/08/2020, 15:32:12,9.200403,-2.6823542,2.8498518,0.024422223,0.015874445,0.06960334,9.998204786695949,0.07545242049989988,jump
05/08/2020, 15:32:12,9.200403,-2.6823542,2.8498518,0.019537779,0.018316668,0.068382226,9.998204786695949,0.07343945754176266,jump
05/08/2020, 15:32:12,9.238688,-2.617748,2.7756743,0.019537779,0.018316668,0.068382226,9.99551586423096,0.07343945754176266,jump
05/08/2020, 15:32:12,9.238688,-2.617748,2.7756743,0.008547778,0.03174889,0.06716111,9.99551586423096,0.07477748115146766,jump
05/08/2020, 15:32:12,9.303294,-2.5698915,2.7589245,0.008547778,0.03174889,0.06716111,10.038291140552017,0.07477748115146766,jump
05/08/2020, 15:32:12,9.303294,-2.5698915,2.7589245,-0.0061055557,0.05617111,0.070824444,10.038291140552017,0.0906011783391181,jump
05/08/2020, 15:32:12,9.300901,-2.5172493,2.6919255,-0.0061055557,0.05617111,0.070824444,10.004487712933056,0.0906011783391181,jump
05/08/2020, 15:32:12,9.300901,-2.5172493,2.6919255,-0.02075889,0.08669889,0.07693,10.004487712933056,0.11775336127228929,jump
05/08/2020, 15:32:12,9.265009,-2.5004997,2.6536403,-0.02075889,0.08669889,0.07693,9.956640797294716,0.11775336127228929,jump
05/08/2020, 15:32:12,9.265009,-2.5004997,2.6536403,-0.036633335,0.098910004,0.07448778,9.956640797294716,0.12912637192778,jump
05/08/2020, 15:32:12,9.195618,-2.5028925,2.6153553,-0.036633335,0.098910004,0.07448778,9.88250668490616,0.12912637192778,jump
05/08/2020, 15:32:12,9.195618,-2.5028925,2.6153553,-0.045181114,0.08792,0.06716111,9.88250668490616,0.11950679917661017,jump
05/08/2020, 15:32:12,9.126225,-2.4933212,2.5746772,-0.045181114,0.08792,0.06716111,9.804774586807262,0.11950679917661017,jump
05/08/2020, 15:32:12,9.126225,-2.4933212,2.5746772,-0.05006556,0.070824444,0.059834447,9.804774586807262,0.10536993435827685,jump
05/08/2020, 15:32:12,9.08794,-2.4622145,2.5962126,-0.05006556,0.070824444,0.059834447,9.766958455088163,0.10536993435827685,jump
05/08/2020, 15:32:12,9.08794,-2.4622145,2.5962126,-0.057392225,0.05006556,0.048844445,9.766958455088163,0.09047766269459184,jump
05/08/2020, 15:32:13,3.1465619,-8.927621,4.3932223,2.7841334,5.5719304,6.24232,10.435692057512698,8.81841069566814,jump
05/08/2020, 15:32:13,3.1465619,-8.927621,4.3932223,3.350729,5.0700536,6.2264457,10.435692057512698,8.700658238072409,jump
05/08/2020, 15:32:13,4.6372905,-6.778867,4.3669014,3.350729,5.0700536,6.2264457,9.302006528112463,8.700658238072409,jump
05/08/2020, 15:32:13,4.6372905,-6.778867,4.3669014,3.7292736,4.7403536,6.056711,9.302006528112463,8.547642007864958,jump
05/08/2020, 15:32:13,6.977471,-4.610969,4.28076,3.7292736,4.7403536,6.056711,9.395266899068199,8.547642007864958,jump
05/08/2020, 15:32:13,6.977471,-4.610969,4.28076,4.1334615,4.851475,5.7477703,9.395266899068199,8.582492334078994,jump
05/08/2020, 15:32:13,9.717253,-2.900101,4.1371903,4.1334615,4.851475,5.7477703,10.95225684822047,8.582492334078994,jump
05/08/2020, 15:32:13,9.717253,-2.900101,4.1371903,4.6158004,5.44005,5.438829,10.95225684822047,8.97109908612556,jump
05/08/2020, 15:32:13,12.107682,-1.8999012,3.5150564,4.6158004,5.44005,5.438829,12.749949592786063,8.97109908612556,jump
05/08/2020, 15:32:13,12.107682,-1.8999012,3.5150564,5.0358624,6.2887225,5.171406,12.749949592786063,9.573472688283656,jump
05/08/2020, 15:32:13,13.533805,-0.9954142,2.3042881,5.0358624,6.2887225,5.171406,13.76460926407635,9.573472688283656,jump
05/08/2020, 15:32:13,13.533805,-0.9954142,2.3042881,5.3313713,7.0812235,4.8062935,13.76460926407635,10.08304037433502,jump
05/08/2020, 15:32:13,13.785051,0.4331009,0.7728817,5.3313713,7.0812235,4.8062935,13.81349206775846,10.08304037433502,jump
05/08/2020, 15:32:13,13.785051,0.4331009,0.7728817,5.5182014,7.647819,4.2995324,13.81349206775846,10.364635122806863,jump
05/08/2020, 15:32:13,12.935599,1.8520447,-0.8757731,5.5182014,7.647819,4.2995324,13.096823202656669,10.364635122806863,jump
05/08/2020, 15:32:13,12.935599,1.8520447,-0.8757731,5.4852314,7.9665294,3.8281834,13.096823202656669,10.402323872067159,jump
05/08/2020, 15:32:13,11.526227,3.0005996,-2.4741786,5.4852314,7.9665294,3.8281834,12.16466466456087,10.402323872067159,jump
05/08/2020, 15:32:13,11.526227,3.0005996,-2.4741786,5.1885014,8.084977,3.4459758,12.16466466456087,10.205986034550294,jump
05/08/2020, 15:32:13,9.9015,3.5653057,-3.818945,5.1885014,8.084977,3.4459758,11.195331279379356,10.205986034550294,jump
05/08/2020, 15:32:13,9.9015,3.5653057,-3.818945,4.6060314,8.058112,3.1773312,11.195331279379356,9.81040928646179,jump
05/08/2020, 15:32:14,10.296316,3.682554,3.9768713,-0.9329289,1.0794623,-0.27841336,11.635756750753677,1.4536537417639575,jump
05/08/2020, 15:32:14,10.581061,3.6227336,3.6203406,-0.9329289,1.0794623,-0.27841336,11.755421056453809,1.4536537417639575,jump
05/08/2020, 15:32:14,10.581061,3.6227336,3.6203406,-1.9427879,1.2027946,-0.13310112,11.755421056453809,2.2888546067741595,jump
05/08/2020, 15:32:14,10.899307,3.062813,3.3954153,-1.9427879,1.2027946,-0.13310112,11.819668666762244,2.2888546067741595,jump
05/08/2020, 15:32:14,10.899307,3.062813,3.3954153,-2.7536056,1.4177101,0.058613338,11.819668666762244,3.0976896515720767,jump
05/08/2020, 15:32:14,11.188839,2.2468605,3.2159536,-2.7536056,1.4177101,0.058613338,11.856679841044388,3.0976896515720767,jump
05/08/2020, 15:32:14,11.188839,2.2468605,3.2159536,-3.370267,1.67048,0.21735778,11.856679841044388,3.7678172665411496,jump
05/08/2020, 15:32:14,11.3683,1.5170496,3.089134,-3.370267,1.67048,0.21735778,11.877813052938299,3.7678172665411496,jump
05/08/2020, 15:32:14,11.3683,1.5170496,3.089134,-3.8416157,1.9171445,0.34069002,11.877813052938299,4.306915819005728,jump
05/08/2020, 15:32:14,11.399407,0.85902333,2.9503503,-3.8416157,1.9171445,0.34069002,11.806310882634495,4.306915819005728,jump
05/08/2020, 15:32:14,11.399407,0.85902333,2.9503503,-4.217718,2.108859,0.46035892,11.806310882634495,4.737970351756562,jump
05/08/2020, 15:32:14,11.294123,0.2416751,2.7684958,-4.217718,2.108859,0.46035892,11.631000958888555,4.737970351756562,jump
05/08/2020, 15:32:14,11.294123,0.2416751,2.7684958,-4.5010157,2.2370756,0.6191034,11.631000958888555,5.064280608220972,jump
05/08/2020, 15:32:14,11.126625,-0.39720857,2.5818555,-4.5010157,2.2370756,0.6191034,11.429152982802593,5.064280608220972,jump
05/08/2020, 15:32:14,11.126625,-0.39720857,2.5818555,-4.700057,2.3323224,0.78395337,11.429152982802593,5.305171679935215,jump
05/08/2020, 15:32:14,10.951949,-1.0552348,2.4047868,-4.700057,2.3323224,0.78395337,11.262402481436599,5.305171679935215,jump
05/08/2020, 15:32:14,10.951949,-1.0552348,2.4047868,-4.8075147,2.404368,0.96956223,11.262402481436599,5.461980713413955,jump
05/08/2020, 15:32:14,10.753345,-1.7611175,2.2205393,-4.8075147,2.404368,0.96956223,11.12055521683838,5.461980713413955,jump
05/08/2020, 15:32:14,10.753345,-1.7611175,2.2205393,-4.822168,2.4532123,1.1576134,11.12055521683838,5.532777076087177,jump
05/08/2020, 15:32:14,10.5690975,-2.469393,2.062613,-4.822168,2.4532123,1.1576134,11.047990616271976,5.532777076087177,jump
05/08/2020, 15:32:15,9.171689,-2.4478576,4.9292145,-0.17095557,0.2942878,-0.25521225,10.696216247467264,0.42539911532653535,jump
05/08/2020, 15:32:15,9.142975,-2.4789643,4.855037,-0.17095557,0.2942878,-0.25521225,10.644747044849298,0.42539911532653535,jump
05/08/2020, 15:32:15,9.142975,-2.4789643,4.855037,-0.23811668,0.34069002,-0.26620224,10.644747044849298,0.49359180986509266,jump
05/08/2020, 15:32:15,9.19801,-2.4765713,4.752146,-0.23811668,0.34069002,-0.26620224,10.645172194143743,0.49359180986509266,jump
05/08/2020, 15:32:15,9.19801,-2.4765713,4.752146,-0.29917222,0.3931978,-0.26742333,10.645172194143743,0.5618040323405817,jump
05/08/2020, 15:32:15,9.253045,-2.4382863,4.615755,-0.29917222,0.3931978,-0.26742333,10.623995404894815,0.5618040323405817,jump
05/08/2020, 15:32:15,9.253045,-2.4382863,4.615755,-0.35290113,0.4713489,-0.2613178,10.623995404894815,0.6442018253104029,jump
05/08/2020, 15:32:15,9.260223,-2.3832514,4.493721,-0.35290113,0.4713489,-0.2613178,10.565280549066978,0.6442018253104029,jump
05/08/2020, 15:32:15,9.260223,-2.3832514,4.493721,-0.40540892,0.54095227,-0.24544334,10.565280549066978,0.719185775688701,jump
05/08/2020, 15:32:15,9.202796,-2.3688943,4.3405805,-0.40540892,0.54095227,-0.24544334,10.4471887625225,0.719185775688701,jump
05/08/2020, 15:32:15,9.202796,-2.3688943,4.3405805,-0.45181113,0.5922389,-0.22468445,10.4471887625225,0.7780509755600464,jump
05/08/2020, 15:32:15,9.12144,-2.37368,4.194618,-0.45181113,0.5922389,-0.22468445,10.316484178583398,0.7780509755600464,jump
05/08/2020, 15:32:15,9.12144,-2.37368,4.194618,-0.50676113,0.6117767,-0.21247335,10.316484178583398,0.8223274970918523,jump
05/08/2020, 15:32:15,9.001799,-2.4047868,4.1180477,-0.50676113,0.6117767,-0.21247335,10.186937480029258,0.8223274970918523,jump
05/08/2020, 15:32:15,9.001799,-2.4047868,4.1180477,-0.56049,0.6142189,-0.21247335,10.186937480029258,0.8582300524401266,jump
05/08/2020, 15:32:15,8.963513,-2.4095724,4.0271206,-0.56049,0.6142189,-0.21247335,10.117722630706545,0.8582300524401266,jump
05/08/2020, 15:32:15,8.963513,-2.4095724,4.0271206,-0.61299783,0.61544,-0.22590557,10.117722630706545,0.8975333264202209,jump
05/08/2020, 15:32:15,8.963513,-2.428715,3.979264,-0.61299783,0.61544,-0.22590557,10.103354426406948,0.8975333264202209,jump
05/08/2020, 15:32:15,8.963513,-2.428715,3.979264,-0.6618422,0.6252089,-0.23323223,10.103354426406948,0.9398503035049164,jump
05/08/2020, 15:32:15,9.004191,-2.4478576,3.9577286,-0.6618422,0.6252089,-0.23323223,10.13563444124588,0.9398503035049164,jump
05/08/2020, 15:32:16,8.331808,-2.792424,4.165904,-0.17950334,-0.11112112,-0.15019667,9.724783501821538,0.2590914719523476,jump
05/08/2020, 15:32:16,8.295917,-2.8283165,4.197011,-0.17950334,-0.11112112,-0.15019667,9.71784475855103,0.2590914719523476,jump
05/08/2020, 15:32:16,8.295917,-2.8283165,4.197011,-0.11112112,-0.15141778,-0.09646778,9.71784475855103,0.21114279117210777,jump
05/08/2020, 15:32:16,8.238488,-2.9048867,4.1754756,-0.11112112,-0.15141778,-0.09646778,9.682233787342284,0.21114279117210777,jump
05/08/2020, 15:32:16,8.238488,-2.9048867,4.1754756,-0.039075557,-0.1856089,-0.058613338,9.682233787342284,0.19852728755379015,jump
05/08/2020, 15:32:16,8.219346,-2.9168508,4.1922255,-0.039075557,-0.1856089,-0.058613338,9.676798144399944,0.19852728755379015,jump
05/08/2020, 15:32:16,8.219346,-2.9168508,4.1922255,0.029306669,-0.22346334,-0.0061055557,9.676798144399944,0.22545958325595922,jump
05/08/2020, 15:32:16,8.23131,-2.9072795,4.1874394,0.029306669,-0.22346334,-0.0061055557,9.682013511481655,0.22545958325595922,jump
05/08/2020, 15:32:16,8.23131,-2.9072795,4.1874394,0.09524667,-0.25643334,0.054950003,9.682013511481655,0.27901521146901265,jump
05/08/2020, 15:32:16,8.250452,-2.8713872,4.23051,0.09524667,-0.25643334,0.054950003,9.706288705731646,0.27901521146901265,jump
05/08/2020, 15:32:16,8.250452,-2.8713872,4.23051,0.15874445,-0.27963445,0.10013112,9.706288705731646,0.3367810352257314,jump
05/08/2020, 15:32:16,8.281559,-2.8091738,4.211368,0.15874445,-0.27963445,0.10013112,9.706250461212854,0.3367810352257314,jump
05/08/2020, 15:32:16,8.281559,-2.8091738,4.211368,0.20881,-0.31993112,0.13920668,9.706250461212854,0.40661534307305686,jump
05/08/2020, 15:32:16,8.319844,-2.7014968,4.15394,0.20881,-0.31993112,0.13920668,9.6836518236684,0.40661534307305686,jump
05/08/2020, 15:32:16,8.319844,-2.7014968,4.15394,0.24055889,-0.40296668,0.16118668,9.6836518236684,0.49621756349577567,jump
05/08/2020, 15:32:16,8.484949,-2.5818555,4.1276193,0.24055889,-0.40296668,0.16118668,9.782514004471414,0.49621756349577567,jump
05/08/2020, 15:32:16,8.484949,-2.5818555,4.1276193,0.26009667,-0.52752,0.14164889,9.782514004471414,0.6049727567020351,jump
05/08/2020, 15:32:16,8.896515,-2.5028925,4.2257247,0.26009667,-0.52752,0.14164889,10.162145309293036,0.6049727567020351,jump
05/08/2020, 15:32:16,8.896515,-2.5028925,4.2257247,0.30039334,-0.64963114,0.09036223,10.162145309293036,0.7214028793189826,jump
05/08/2020, 15:32:16,9.552148,-2.4909284,4.534399,0.30039334,-0.64963114,0.09036223,10.863196020434454,0.7214028793189826,jump
05/08/2020, 15:32:17,9.109476,-3.5318062,2.969493,0.5128667,-0.03052778,-0.11600556,10.211468945799869,0.5267081383600689,jump
05/08/2020, 15:32:17,9.109476,-3.5318062,2.969493,0.5189722,0.01099,-0.109900005,10.211468945799869,0.5305949060589337,jump
05/08/2020, 15:32:17,9.0951185,-3.5509489,3.0029924,0.5189722,0.01099,-0.109900005,10.215105581385533,0.5305949060589337,jump
05/08/2020, 15:32:17,9.0951185,-3.5509489,3.0029924,0.5153089,0.064718895,-0.09524667,10.215105581385533,0.5280186961353586,jump
05/08/2020, 15:32:17,9.059227,-3.5270207,3.0388846,0.5153089,0.064718895,-0.09524667,10.185494022039858,0.5280186961353586,jump
05/08/2020, 15:32:17,9.059227,-3.5270207,3.0388846,0.50798225,0.11356334,-0.08669889,10.185494022039858,0.527692428664729,jump
05/08/2020, 15:32:17,8.999406,-3.4719856,2.9886355,0.50798225,0.11356334,-0.08669889,10.09831332935298,0.527692428664729,jump
05/08/2020, 15:32:17,8.999406,-3.4719856,2.9886355,0.4933289,0.14653334,-0.07326667,10.09831332935298,0.5198205723855094,jump
05/08/2020, 15:32:17,8.958728,-3.3882368,2.955136,0.4933289,0.14653334,-0.07326667,10.02356134001236,0.5198205723855094,jump
05/08/2020, 15:32:17,8.958728,-3.3882368,2.955136,0.44448447,0.16362889,-0.06716111,10.02356134001236,0.4783842338560142,jump
05/08/2020, 15:32:17,8.963513,-3.2877383,2.8809586,0.44448447,0.16362889,-0.06716111,9.972648469768544,0.4783842338560142,jump
05/08/2020, 15:32:17,8.963513,-3.2877383,2.8809586,0.37976557,0.17584,-0.06960334,9.972648469768544,0.42424782912290687,jump
05/08/2020, 15:32:17,9.104691,-3.196811,2.8163524,0.37976557,0.17584,-0.06960334,10.05220528140621,0.42424782912290687,jump
05/08/2020, 15:32:17,9.104691,-3.196811,2.8163524,0.29184556,0.19293556,-0.07570889,10.05220528140621,0.35795222525396353,jump
05/08/2020, 15:32:17,9.343972,-3.0987053,2.754139,0.29184556,0.19293556,-0.07570889,10.222380956048424,0.35795222525396353,jump
05/08/2020, 15:32:17,9.343972,-3.0987053,2.754139,0.1965989,0.23201112,-0.091583334,10.222380956048424,0.317596910156605,jump
05/08/2020, 15:32:17,9.619147,-3.0460632,2.78046,0.1965989,0.23201112,-0.091583334,10.466014182451168,0.317596910156605,jump
05/08/2020, 15:32:17,9.619147,-3.0460632,2.78046,0.091583334,0.30039334,-0.109900005,10.466014182451168,0.33271861788350676,jump
05/08/2020, 15:32:17,9.870394,-3.0747771,2.7876384,0.091583334,0.30039334,-0.109900005,10.707467264013633,0.33271861788350676,jump
05/08/2020, 15:32:17,9.870394,-3.0747771,2.7876384,-0.02075889,0.41029334,-0.12699556,10.707467264013633,0.42999933727548173,jump
05/08/2020, 15:32:18,8.891729,-3.2422748,3.3260236,-0.0024422223,-0.037854444,0.0061055557,10.031830809620907,0.038421363959375766,jump
05/08/2020, 15:32:18,8.891729,-3.2422748,3.3260236,0.025643334,-0.064718895,0.03052778,10.031830809620907,0.07601355955076064,jump
05/08/2020, 15:32:18,8.79123,-3.1800613,3.333202,0.025643334,-0.064718895,0.03052778,9.92515760054146,0.07601355955076064,jump
05/08/2020, 15:32:18,8.79123,-3.1800613,3.333202,0.04396,-0.10501556,0.04151778,9.92515760054146,0.12117951872002133,jump
05/08/2020, 15:32:18,8.779266,-3.1537402,3.2877383,0.04396,-0.10501556,0.04151778,9.890946269256556,0.12117951872002133,jump
05/08/2020, 15:32:18,8.779266,-3.1537402,3.2877383,0.06105556,-0.14897557,0.051286668,9.890946269256556,0.16897284667022394,jump
05/08/2020, 15:32:18,8.841479,-3.1274192,3.3284163,0.06105556,-0.14897557,0.051286668,9.951425158302618,0.16897284667022394,jump
05/08/2020, 15:32:18,8.841479,-3.1274192,3.3284163,0.06960334,-0.1746189,0.06227667,9.951425158302618,0.19802719115086898,jump
05/08/2020, 15:32:18,8.965906,-3.0987053,3.3260236,0.06960334,-0.1746189,0.06227667,10.05245643110512,0.19802719115086898,jump
05/08/2020, 15:32:18,8.965906,-3.0987053,3.3260236,0.07448778,-0.17584,0.070824444,10.05245643110512,0.20367680080063172,jump
05/08/2020, 15:32:18,9.085547,-3.1058838,3.3379877,0.07448778,-0.17584,0.070824444,10.165424164793624,0.20367680080063172,jump
05/08/2020, 15:32:18,9.085547,-3.1058838,3.3379877,0.07326667,-0.15019667,0.068382226,10.165424164793624,0.18056348993462365,jump
05/08/2020, 15:32:18,9.150154,-3.0819557,3.3236306,0.07326667,-0.15019667,0.068382226,10.211282546309763,0.18056348993462365,jump
05/08/2020, 15:32:18,9.150154,-3.0819557,3.3236306,0.06960334,-0.11600556,0.06716111,10.211282546309763,0.15103817514757595,jump
05/08/2020, 15:32:18,9.138189,-3.0795627,3.2733815,0.06960334,-0.11600556,0.06716111,10.183576799526886,0.15103817514757595,jump
05/08/2020, 15:32:18,9.138189,-3.0795627,3.2733815,0.05372889,-0.09402556,0.07326667,10.183576799526886,0.13075016028893027,jump
05/08/2020, 15:32:18,9.073584,-3.0532417,3.2063823,0.05372889,-0.09402556,0.07326667,10.096191943013036,0.13075016028893027,jump
05/08/2020, 15:32:18,9.073584,-3.0532417,3.2063823,0.03297,-0.078151114,0.09280445,10.096191943013036,0.12572701744948814,jump
05/08/2020, 15:32:18,8.9826565,-3.0556345,3.1848469,0.03297,-0.078151114,0.09280445,10.008409925819638,0.12572701744948814,jump
05/08/2020, 15:32:18,8.9826565,-3.0556345,3.1848469,0.007326667,-0.057392225,0.10867889,10.008409925819638,0.12312046591230272,jump
05/08/2020, 15:32:19,21.28655,-10.829915,2.4741786,6.994525,-10.991221,-4.382568,24.01095276219049,13.745443938962731,jump
05/08/2020, 15:32:19,21.28655,-10.829915,2.4741786,7.9262323,-10.2207,-4.625569,24.01095276219049,13.736220743061413,jump
05/08/2020, 15:32:19,23.148167,-8.372486,3.1130621,7.9262323,-10.2207,-4.625569,24.811837884416448,13.736220743061413,jump
05/08/2020, 15:32:19,23.148167,-8.372486,3.1130621,8.456195,-9.201073,-4.0125713,24.811837884416448,13.125079017858587,jump
05/08/2020, 15:32:19,23.095524,-7.240681,2.940779,8.456195,-9.201073,-4.0125713,24.381937288865153,13.125079017858587,jump
05/08/2020, 15:32:19,23.095524,-7.240681,2.940779,8.551441,-8.5502205,-2.7487211,24.381937288865153,12.401164650977847,jump
05/08/2020, 15:32:19,21.707687,-6.4271216,1.7108682,8.551441,-8.5502205,-2.7487211,22.703714541815895,12.401164650977847,jump
05/08/2020, 15:32:19,21.707687,-6.4271216,1.7108682,8.535567,-8.536788,-1.6008767,22.703714541815895,12.177662507946202,jump
05/08/2020, 15:32:19,20.324636,-5.163711,0.17228323,8.535567,-8.536788,-1.6008767,20.971038141727302,12.177662507946202,jump
05/08/2020, 15:32:19,20.324636,-5.163711,0.17228323,8.414677,-8.927544,-0.85966223,20.971038141727302,12.298245322083737,jump
05/08/2020, 15:32:19,20.28635,-4.1611185,-0.30149564,8.414677,-8.927544,-0.85966223,20.710910490123556,12.298245322083737,jump
05/08/2020, 15:32:19,20.28635,-4.1611185,-0.30149564,7.975077,-9.290214,-0.3724389,20.710910490123556,12.249434059471701,jump
05/08/2020, 15:32:19,21.446869,-3.7974095,-0.74895346,7.975077,-9.290214,-0.3724389,21.793334667348795,12.249434059471701,jump
05/08/2020, 15:32:19,21.446869,-3.7974095,-0.74895346,7.393828,-9.088731,-0.06227667,21.793334667348795,11.716552282871895,jump
05/08/2020, 15:32:19,23.459232,-3.5389848,-0.033499517,7.393828,-9.088731,-0.06227667,23.724694244334803,11.716552282871895,jump
05/08/2020, 15:32:19,23.459232,-3.5389848,-0.033499517,6.7612925,-8.37438,0.047623336,23.724694244334803,10.763251643171746,jump
05/08/2020, 15:32:19,25.40699,-3.034099,1.5960127,6.7612925,-8.37438,0.047623336,25.63724161062454,10.763251643171746,jump
05/08/2020, 15:32:19,25.40699,-3.034099,1.5960127,6.199581,-7.4548836,-0.051286668,25.63724161062454,9.696015977423217,jump
05/08/2020, 15:32:19,26.64408,-2.1750758,3.888337,6.199581,-7.4548836,-0.051286668,27.014016274678813,9.696015977423217,jump
05/08/2020, 15:32:19,26.64408,-2.1750758,3.888337,5.8063836,-6.414497,-0.18072446,27.014016274678813,8.654046591968102,jump
05/08/2020, 15:32:20,7.7479596,-2.120041,5.759524,0.8730945,-0.8181445,0.29062447,9.884207948032165,1.2313070331804568,jump
05/08/2020, 15:32:20,7.7479596,-2.120041,5.759524,0.82913446,-0.81326,0.30772,9.884207948032165,1.20147718240621,jump
05/08/2020, 15:32:20,7.7551384,-2.1942184,5.910272,0.82913446,-0.81326,0.30772,9.99440255761605,1.20147718240621,jump
05/08/2020, 15:32:20,7.7551384,-2.1942184,5.910272,0.80471224,-0.80227005,0.32481557,9.99440255761605,1.1818223973474997,jump
05/08/2020, 15:32:20,7.800602,-2.3377876,6.0897336,0.80471224,-0.80227005,0.32481557,10.168554334183371,1.1818223973474997,jump
05/08/2020, 15:32:20,7.800602,-2.3377876,6.0897336,0.8071545,-0.7998278,0.3309211,10.168554334183371,1.1835251010138421,jump
05/08/2020, 15:32:20,7.884351,-2.5627131,6.2380886,0.8071545,-0.7998278,0.3309211,10.375173989769314,1.1835251010138421,jump
05/08/2020, 15:32:20,7.884351,-2.5627131,6.2380886,0.83890337,-0.79616445,0.32725778,10.375173989769314,1.2019710280732356,jump
05/08/2020, 15:32:20,8.030313,-2.751746,6.4366927,0.83890337,-0.79616445,0.32725778,10.653123404799356,1.2019710280732356,jump
05/08/2020, 15:32:20,8.030313,-2.751746,6.4366927,0.90362227,-0.77906895,0.31016225,10.653123404799356,1.2327539288457596,jump
05/08/2020, 15:32:20,8.195417,-2.885744,6.5778694,0.90362227,-0.77906895,0.31016225,10.897740658233854,1.2327539288457596,jump
05/08/2020, 15:32:20,8.195417,-2.885744,6.5778694,0.9854367,-0.7314456,0.29917222,10.897740658233854,1.2631714634810185,jump
05/08/2020, 15:32:20,8.315059,-2.9216363,6.707082,0.9854367,-0.7314456,0.29917222,11.075247466432966,1.2631714634810185,jump
05/08/2020, 15:32:20,8.315059,-2.9216363,6.707082,1.05504,-0.65451556,0.29184556,11.075247466432966,1.2754112515480636,jump
05/08/2020, 15:32:20,8.379665,-2.885744,6.788438,1.05504,-0.65451556,0.29184556,11.16374485226586,1.2754112515480636,jump
05/08/2020, 15:32:20,8.379665,-2.885744,6.788438,1.1222012,-0.57636446,0.29673,11.16374485226586,1.2959862000691018,jump
05/08/2020, 15:32:20,8.362915,-2.8498518,6.8865438,1.1222012,-0.57636446,0.29673,11.201985910090247,1.2959862000691018,jump
05/08/2020, 15:32:20,8.362915,-2.8498518,6.8865438,1.1820356,-0.5189722,0.3174889,11.201985910090247,1.3294131969026082,jump
05/08/2020, 15:32:20,8.281559,-2.8426733,6.927222,1.1820356,-0.5189722,0.3174889,11.16473968947554,1.3294131969026082,jump
05/08/2020, 15:32:20,8.281559,-2.8426733,6.927222,1.2528601,-0.47623336,0.34557447,11.16473968947554,1.3841525503188934,jump
05/08/2020, 15:32:21,7.0803623,-2.9623144,7.7623167,0.53484666,-0.10745778,0.009768889,10.916061451019313,0.5456221760253473,jump
05/08/2020, 15:32:21,7.0803623,-2.9623144,7.7623167,0.4921078,-0.07448778,-0.0036633336,10.916061451019313,0.49772677756646627,jump
05/08/2020, 15:32:21,6.9583282,-2.7972097,7.745567,0.4921078,-0.07448778,-0.0036633336,10.781304191571733,0.49772677756646627,jump
05/08/2020, 15:32:21,6.9583282,-2.7972097,7.745567,0.4371578,-0.06227667,-0.009768889,10.781304191571733,0.44167948253482875,jump
05/08/2020, 15:32:21,6.8602223,-2.6392834,7.7623167,0.4371578,-0.06227667,-0.009768889,10.690277270641111,0.44167948253482875,jump
05/08/2020, 15:32:21,6.8602223,-2.6392834,7.7623167,0.3614489,-0.06227667,0.018316668,10.690277270641111,0.3672318083830137,jump
05/08/2020, 15:32:21,6.8315086,-2.5052853,7.7551384,0.3614489,-0.06227667,0.018316668,10.634290576222126,0.3672318083830137,jump
05/08/2020, 15:32:21,6.8315086,-2.5052853,7.7551384,0.2869611,-0.064718895,0.024422223,10.634290576222126,0.2951807210010036,jump
05/08/2020, 15:32:21,6.853044,-2.4789643,7.647461,0.2869611,-0.064718895,0.024422223,10.563765211931377,0.2951807210010036,jump
05/08/2020, 15:32:21,6.853044,-2.4789643,7.647461,0.24788557,-0.07937223,0.026864445,10.563765211931377,0.2616656351632065,jump
05/08/2020, 15:32:21,6.893722,-2.6153553,7.5924263,0.24788557,-0.07937223,0.026864445,10.583403234598379,0.2616656351632065,jump
05/08/2020, 15:32:21,6.893722,-2.6153553,7.5924263,0.25277,-0.09646778,0.028085556,10.583403234598379,0.2720064464738625,jump
05/08/2020, 15:32:21,6.920043,-2.885744,7.6259255,0.25277,-0.09646778,0.028085556,10.694356191131497,0.2720064464738625,jump
05/08/2020, 15:32:21,6.920043,-2.885744,7.6259255,0.25277,-0.11234222,0.017095556,10.694356191131497,0.2771384302171122,jump
05/08/2020, 15:32:21,6.9320073,-2.9671001,7.661818,0.25277,-0.11234222,0.017095556,10.749877400788675,0.2771384302171122,jump
05/08/2020, 15:32:21,6.9320073,-2.9671001,7.661818,0.24910668,-0.11356334,-0.007326667,10.749877400788675,0.27386939799082893,jump
05/08/2020, 15:32:21,6.9056864,-3.0053852,7.661818,0.24910668,-0.11356334,-0.007326667,10.74357016112467,0.27386939799082893,jump
05/08/2020, 15:32:21,6.9056864,-3.0053852,7.661818,0.24178001,-0.11234222,-0.015874445,10.74357016112467,0.26707741914346955,jump
05/08/2020, 15:32:21,6.8339014,-2.9862428,7.652247,0.24178001,-0.11234222,-0.015874445,10.685351548794927,0.26707741914346955,jump
05/08/2020, 15:32:21,6.8339014,-2.9862428,7.652247,0.22712667,-0.09524667,-0.0061055557,10.685351548794927,0.24636503807083943,jump
05/08/2020, 15:32:22,6.5204415,-4.5655055,4.034299,-0.19782001,-1.2589656,1.3725289,8.923876168752898,1.8729556259703284,jump
05/08/2020, 15:32:22,6.5204415,-4.5655055,4.034299,-0.1856089,-1.3725289,1.3981723,8.923876168752898,1.9680375856908319,jump
05/08/2020, 15:32:22,6.458228,-4.4985065,3.8572302,-0.1856089,-1.3725289,1.3981723,8.764901379542534,1.9680375856908319,jump
05/08/2020, 15:32:22,6.458228,-4.4985065,3.8572302,-0.048844445,-1.4860923,1.4421322,8.764901379542534,2.0713767335371904,jump
05/08/2020, 15:32:22,6.491728,-4.84068,3.845266,-0.048844445,-1.4860923,1.4421322,8.964417753614255,2.0713767335371904,jump
05/08/2020, 15:32:22,6.491728,-4.84068,3.845266,0.16240779,-1.614309,1.5227256,8.964417753614255,2.225098398711639,jump
05/08/2020, 15:32:22,6.5491557,-5.395815,4.007978,0.16240779,-1.614309,1.5227256,9.384569584026362,2.225098398711639,jump
05/08/2020, 15:32:22,6.5491557,-5.395815,4.007978,0.38831335,-1.7486312,1.570349,9.384569584026362,2.382119724697547,jump
05/08/2020, 15:32:22,6.597012,-5.6853466,4.2592244,0.38831335,-1.7486312,1.570349,9.694572012834868,2.382119724697547,jump
05/08/2020, 15:32:22,6.597012,-5.6853466,4.2592244,0.5653745,-1.8792901,1.5801178,9.694572012834868,2.519553917483871,jump
05/08/2020, 15:32:22,6.690332,-5.639883,4.5272202,0.5653745,-1.8792901,1.5801178,9.852134048890425,2.519553917483871,jump
05/08/2020, 15:32:22,6.690332,-5.639883,4.5272202,0.65085226,-1.9977379,1.5679067,9.852134048890425,2.6216210367686013,jump
05/08/2020, 15:32:22,6.8075805,-5.4388857,4.725825,0.65085226,-1.9977379,1.5679067,9.912519848994599,2.6216210367686013,jump
05/08/2020, 15:32:22,6.8075805,-5.4388857,4.725825,0.6569578,-2.1003113,1.5434844,9.912519848994599,2.6879816355764485,jump
05/08/2020, 15:32:22,6.9726853,-5.2163534,4.910072,0.6569578,-2.1003113,1.5434844,9.996873978669718,2.6879816355764485,jump
05/08/2020, 15:32:22,6.9726853,-5.2163534,4.910072,0.5922389,-2.2212012,1.526389,9.996873978669718,2.759410262076733,jump
05/08/2020, 15:32:22,7.094719,-4.938786,4.9866424,0.5922389,-2.2212012,1.526389,9.9796415878261,2.759410262076733,jump
05/08/2020, 15:32:22,7.094719,-4.938786,4.9866424,0.46280113,-2.3481967,1.4983034,9.9796415878261,2.8236724236504838,jump
05/08/2020, 15:32:22,7.1473613,-4.6229334,5.058427,0.46280113,-2.3481967,1.4983034,9.901715438300739,2.8236724236504838,jump
05/08/2020, 15:32:22,7.1473613,-4.6229334,5.058427,0.27963445,-2.460539,1.4665545,9.901715438300739,2.8780601567797497,jump
05/08/2020, 15:32:23,8.693125,-4.321438,2.8809586,-0.8498934,-0.068382226,-0.72778225,10.126458683166817,1.1210093254425615,jump
05/08/2020, 15:32:23,8.776874,-4.304688,2.9359934,-0.8498934,-0.068382226,-0.72778225,10.207051778360636,1.1210093254425615,jump
05/08/2020, 15:32:23,8.776874,-4.304688,2.9359934,-0.8779789,-0.034191113,-0.72534,10.207051778360636,1.1393569002237276,jump
05/08/2020, 15:32:23,8.786445,-4.2568316,2.9982069,-0.8779789,-0.034191113,-0.72534,10.21329867546359,1.1393569002237276,jump
05/08/2020, 15:32:23,8.786445,-4.2568316,2.9982069,-0.8987378,0.008547778,-0.7204556,10.21329867546359,1.1518936275378733,jump
05/08/2020, 15:32:23,8.752945,-4.2448673,3.0819557,-0.8987378,0.008547778,-0.7204556,10.20447914389027,1.1518936275378733,jump
05/08/2020, 15:32:23,8.752945,-4.2448673,3.0819557,-0.9170545,0.025643334,-0.71435004,10.20447914389027,1.1627306119227452,jump
05/08/2020, 15:32:23,8.626125,-4.1874394,3.1250265,-0.9170545,0.025643334,-0.71435004,10.08516126734845,1.1627306119227452,jump
05/08/2020, 15:32:23,8.626125,-4.1874394,3.1250265,-0.93415004,0.023201112,-0.7119078,10.08516126734845,1.174728611428863,jump
05/08/2020, 15:32:23,8.480164,-4.1491547,3.1920254,-0.93415004,0.023201112,-0.7119078,9.965825854645031,1.174728611428863,jump
05/08/2020, 15:32:23,8.480164,-4.1491547,3.1920254,-0.96223557,0.008547778,-0.7216767,9.965825854645031,1.2028248527571432,jump
05/08/2020, 15:32:23,8.444271,-4.0845485,3.196811,-0.96223557,0.008547778,-0.7216767,9.910037878422653,1.2028248527571432,jump
05/08/2020, 15:32:23,8.444271,-4.0845485,3.196811,-0.9732256,-0.0061055557,-0.7216767,9.910037878422653,1.2116198263468292,jump
05/08/2020, 15:32:23,8.489735,-4.0941195,3.2470603,-0.9732256,-0.0061055557,-0.7216767,9.968992420815363,1.2116198263468292,jump
05/08/2020, 15:32:23,8.489735,-4.0941195,3.2470603,-0.9646778,-0.0048844446,-0.72411895,9.968992420815363,1.206223605731623,jump
05/08/2020, 15:32:23,8.628518,-4.1347976,3.3260236,-0.9646778,-0.0048844446,-0.72411895,10.129674649105215,1.206223605731623,jump
05/08/2020, 15:32:23,8.628518,-4.1347976,3.3260236,-0.9304867,0.013432222,-0.7204556,10.129674649105215,1.1768781318595862,jump
05/08/2020, 15:32:23,8.7984085,-4.1922255,3.400201,-0.9304867,0.013432222,-0.7204556,10.322214585759356,1.1768781318595862,jump
05/08/2020, 15:32:23,8.7984085,-4.1922255,3.400201,-0.8914111,0.05250778,-0.7204556,10.322214585759356,1.1473565769510121,jump
05/08/2020, 15:32:23,8.975478,-4.1922255,3.4313076,-0.8914111,0.05250778,-0.7204556,10.483693730227959,1.1473565769510121,jump
05/08/2020, 15:32:24,9.74836,-2.1894326,2.6488547,0.12943779,-0.19415668,-0.048844445,10.336370883919761,0.23840456413769354,jump
05/08/2020, 15:32:24,9.74836,-2.1894326,2.6488547,0.13188,-0.19171445,-0.046402223,10.336370883919761,0.23727606582326116,jump
05/08/2020, 15:32:24,9.829716,-2.0817556,2.5507488,0.13188,-0.19171445,-0.046402223,10.366452498984149,0.23727606582326116,jump
05/08/2020, 15:32:24,9.829716,-2.0817556,2.5507488,0.106236674,-0.17217667,-0.039075557,10.366452498984149,0.20605323855285348,jump
05/08/2020, 15:32:24,9.9038925,-1.9549361,2.4789643,0.106236674,-0.17217667,-0.039075557,10.394908680271193,0.20605323855285348,jump
05/08/2020, 15:32:24,9.9038925,-1.9549361,2.4789643,0.05372889,-0.12821667,-0.019537779,10.394908680271193,0.14038530043125175,jump
05/08/2020, 15:32:24,9.934999,-1.875973,2.3377876,0.05372889,-0.12821667,-0.019537779,10.377318537452252,0.14038530043125175,jump
05/08/2020, 15:32:24,9.934999,-1.875973,2.3377876,-0.012211111,-0.08059334,0.0,10.377318537452252,0.08151317506564981,jump
05/08/2020, 15:32:24,9.858429,-1.7874385,2.1702902,-0.012211111,-0.08059334,0.0,10.251522695960569,0.08151317506564981,jump
05/08/2020, 15:32:24,9.858429,-1.7874385,2.1702902,-0.08425667,-0.046402223,0.02075889,10.251522695960569,0.09840368136148665,jump
05/08/2020, 15:32:24,9.736395,-1.7491534,2.0745773,-0.08425667,-0.046402223,0.02075889,10.107462289723697,0.09840368136148665,jump
05/08/2020, 15:32:24,9.736395,-1.7491534,2.0745773,-0.15019667,-0.025643334,0.042738892,10.107462289723697,0.15825054058242813,jump
05/08/2020, 15:32:24,9.585648,-1.6797615,2.009971,-0.15019667,-0.025643334,0.042738892,9.937113333978239,0.15825054058242813,jump
05/08/2020, 15:32:24,9.585648,-1.6797615,2.009971,-0.21491556,-0.019537779,0.059834447,9.937113333978239,0.22394325883996546,jump
05/08/2020, 15:32:24,9.473185,-1.6366907,1.9477576,-0.21491556,-0.019537779,0.059834447,9.808860404355983,0.22394325883996546,jump
05/08/2020, 15:32:24,9.473185,-1.6366907,1.9477576,-0.28940335,-0.045181114,0.06594,9.808860404355983,0.3002394297953743,jump
05/08/2020, 15:32:24,9.341579,-1.5625132,1.8400806,-0.28940335,-0.045181114,0.06594,9.648442914136819,0.3002394297953743,jump
05/08/2020, 15:32:24,9.341579,-1.5625132,1.8400806,-0.36755446,-0.085477784,0.06960334,9.648442914136819,0.3837282300069578,jump
05/08/2020, 15:32:24,9.238688,-1.5625132,1.7635103,-0.36755446,-0.085477784,0.06960334,9.534399874601412,0.3837282300069578,jump
05/08/2020, 15:32:24,9.238688,-1.5625132,1.7635103,-0.44326335,-0.106236674,0.06594,9.534399874601412,0.4605613028119883,jump
05/08/2020, 15:32:25,24.224936,-4.206582,-2.4741786,3.7011878,-11.087689,-3.052778,24.711624667913195,12.081187908067575,jump
05/08/2020, 15:32:25,24.224936,-4.206582,-2.4741786,4.1688733,-10.919176,-3.0601046,24.711624667913195,12.081893544902414,jump
05/08/2020, 15:32:25,27.433712,-5.0656056,-1.0336994,4.1688733,-10.919176,-3.0601046,27.916616008156446,12.081893544902414,jump
05/08/2020, 15:32:25,27.433712,-5.0656056,-1.0336994,5.26421,-10.632215,-2.8854856,27.916616008156446,12.209910846184725,jump
05/08/2020, 15:32:25,30.312277,-8.482556,1.753939,5.26421,-10.632215,-2.8854856,31.52561167496915,12.209910846184725,jump
05/08/2020, 15:32:25,30.312277,-8.482556,1.753939,6.944459,-10.020438,-2.3811667,31.52561167496915,12.421942147257381,jump
05/08/2020, 15:32:25,32.87499,-12.507284,4.9579287,6.944459,-10.020438,-2.3811667,35.521515822020305,12.421942147257381,jump
05/08/2020, 15:32:25,32.87499,-12.507284,4.9579287,8.567316,-8.66012,-1.6350678,35.521515822020305,12.291054867800144,jump
05/08/2020, 15:32:25,34.564323,-13.813766,7.719246,8.567316,-8.66012,-1.6350678,38.014462106934154,12.291054867800144,jump
05/08/2020, 15:32:25,34.564323,-13.813766,7.719246,9.447737,-6.9139314,-0.8315767,38.014462106934154,11.736852061467765,jump
05/08/2020, 15:32:25,34.13601,-11.657832,8.7577305,9.447737,-6.9139314,-0.8315767,37.11967158776525,11.736852061467765,jump
05/08/2020, 15:32:25,34.13601,-11.657832,8.7577305,9.295098,-5.5865836,-0.09524667,37.11967158776525,10.845175927743314,jump
05/08/2020, 15:32:25,32.078182,-7.8053875,8.451449,9.295098,-5.5865836,-0.09524667,34.07874477456074,10.845175927743314,jump
05/08/2020, 15:32:25,32.078182,-7.8053875,8.451449,8.2339525,-4.746459,0.46524334,34.07874477456074,9.515424247596124,jump
05/08/2020, 15:32:25,29.735607,-3.3020952,7.9346,8.2339525,-4.746459,0.46524334,30.952674200391886,9.515424247596124,jump
05/08/2020, 15:32:25,29.735607,-3.3020952,7.9346,6.630634,-4.0223403,0.8999589,30.952674200391886,7.807333252059121,jump
05/08/2020, 15:32:25,27.66821,0.67477596,7.5326056,6.630634,-4.0223403,0.8999589,28.68318782687383,7.807333252059121,jump
05/08/2020, 15:32:25,27.66821,0.67477596,7.5326056,4.6817403,-3.2872312,1.17593,28.68318782687383,5.840153466608172,jump
05/08/2020, 15:32:25,25.799414,3.8835511,7.3268228,4.6817403,-3.2872312,1.17593,27.099336658219713,5.840153466608172,jump
05/08/2020, 15:32:25,25.799414,3.8835511,7.3268228,2.7609324,-2.578987,1.3725289,27.099336658219713,4.01967124561476,jump
05/08/2020, 15:32:26,6.9559355,-4.3238306,1.8807586,0.54461557,-0.6984756,-0.34557447,8.40343992348863,0.9507344484762159,jump
05/08/2020, 15:32:26,7.133004,-4.4602213,1.9597218,0.54461557,-0.6984756,-0.34557447,8.63792985977968,0.9507344484762159,jump
05/08/2020, 15:32:26,7.133004,-4.4602213,1.9597218,0.5324045,-0.7314456,-0.37366003,8.63792985977968,0.9788202237930533,jump
05/08/2020, 15:32:26,7.2933235,-4.6564326,1.9908284,0.5324045,-0.7314456,-0.37366003,8.879095136569893,0.9788202237930533,jump
05/08/2020, 15:32:26,7.2933235,-4.6564326,1.9908284,0.5568267,-0.74976224,-0.39075556,8.879095136569893,1.0123681685366324,jump
05/08/2020, 15:32:26,7.4344997,-4.895715,2.0673988,0.5568267,-0.74976224,-0.39075556,9.138596818664196,1.0123681685366324,jump
05/08/2020, 15:32:26,7.4344997,-4.895715,2.0673988,0.6337567,-0.7680789,-0.42372558,9.138596818664196,1.082190439158853,jump
05/08/2020, 15:32:26,7.537391,-5.1349974,2.1463618,0.6337567,-0.7680789,-0.42372558,9.369489471211908,1.082190439158853,jump
05/08/2020, 15:32:26,7.537391,-5.1349974,2.1463618,0.7631945,-0.7998278,-0.45547447,9.369489471211908,1.1956786225547633,jump
05/08/2020, 15:32:26,7.6402826,-5.3216376,2.2301106,0.7631945,-0.7998278,-0.45547447,9.57429575689798,1.1956786225547633,jump
05/08/2020, 15:32:26,7.6402826,-5.3216376,2.2301106,0.9304867,-0.85722005,-0.47745445,9.57429575689798,1.352255314547961,jump
05/08/2020, 15:32:26,7.7551384,-5.3814583,2.309074,0.9304867,-0.85722005,-0.47745445,9.717720267488579,1.352255314547961,jump
05/08/2020, 15:32:26,7.7551384,-5.3814583,2.309074,1.0928944,-0.9182756,-0.48844448,9.717720267488579,1.5087167796392658,jump
05/08/2020, 15:32:26,7.920243,-5.355137,2.4095724,1.0928944,-0.9182756,-0.48844448,9.85970464458508,1.5087167796392658,jump
05/08/2020, 15:32:26,7.920243,-5.355137,2.4095724,1.2394278,-0.97566783,-0.48111778,9.85970464458508,1.6491159236236244,jump
05/08/2020, 15:32:26,8.090134,-5.2139606,2.5028925,1.2394278,-0.97566783,-0.48111778,9.944853906512437,1.6491159236236244,jump
05/08/2020, 15:32:26,8.090134,-5.2139606,2.5028925,1.3529912,-1.0123012,-0.4701278,9.944853906512437,1.7539552797349762,jump
05/08/2020, 15:32:26,8.240881,-5.0679984,2.5722845,1.3529912,-1.0123012,-0.4701278,10.010663030925434,1.7539552797349762,jump
05/08/2020, 15:32:26,8.240881,-5.0679984,2.5722845,1.4457957,-1.0196278,-0.4493689,10.010663030925434,1.8253488295890175,jump
05/08/2020, 15:32:26,8.377272,-4.9316072,2.5674987,1.4457957,-1.0196278,-0.4493689,10.054425884148273,1.8253488295890175,jump
05/08/2020, 15:32:27,8.513663,-4.3788652,1.4404793,0.19293556,-0.06105556,0.10867889,9.681523847410787,0.22970200657297046,jump
05/08/2020, 15:32:27,8.640483,-4.3070807,1.4189439,0.19293556,-0.06105556,0.10867889,9.75819097369208,0.22970200657297046,jump
05/08/2020, 15:32:27,8.640483,-4.3070807,1.4189439,0.11478445,-0.026864445,0.042738892,9.75819097369208,0.1253945019034737,jump
05/08/2020, 15:32:27,8.736196,-4.249653,1.4500505,0.11478445,-0.026864445,0.042738892,9.822591753921488,0.1253945019034737,jump
05/08/2020, 15:32:27,8.736196,-4.249653,1.4500505,0.02075889,0.0024422223,-0.019537779,9.822591753921488,0.02861154905691565,jump
05/08/2020, 15:32:27,8.7673025,-4.2568316,1.4261223,0.02075889,0.0024422223,-0.019537779,9.84987481420142,0.02861154905691565,jump
05/08/2020, 15:32:27,8.7673025,-4.2568316,1.4261223,-0.08303556,0.01099,-0.07326667,9.84987481420142,0.11128202471676497,jump
05/08/2020, 15:32:27,8.769695,-4.2759743,1.3734802,-0.08303556,0.01099,-0.07326667,9.85281478512168,0.11128202471676497,jump
05/08/2020, 15:32:27,8.769695,-4.2759743,1.3734802,-0.18316667,0.0012211112,-0.12943779,9.85281478512168,0.22428923428618835,jump
05/08/2020, 15:32:27,8.829515,-4.362116,1.3615161,-0.18316667,0.0012211112,-0.12943779,9.941937644330409,0.22428923428618835,jump
05/08/2020, 15:32:27,8.829515,-4.362116,1.3615161,-0.25643334,-0.013432222,-0.17706113,9.941937644330409,0.31191204467114814,jump
05/08/2020, 15:32:27,8.915657,-4.4674,1.3423735,-0.25643334,-0.013432222,-0.17706113,10.062234867330233,0.31191204467114814,jump
05/08/2020, 15:32:27,8.915657,-4.4674,1.3423735,-0.2820767,-0.014653334,-0.2283478,10.062234867330233,0.3632143884992742,jump
05/08/2020, 15:32:27,8.99462,-4.642076,1.3782659,-0.2820767,-0.014653334,-0.2283478,10.21526706778142,0.3632143884992742,jump
05/08/2020, 15:32:27,8.99462,-4.642076,1.3782659,-0.25399113,0.0048844446,-0.2759711,10.21526706778142,0.3750938636055438,jump
05/08/2020, 15:32:27,9.073584,-4.814359,1.4452649,-0.25399113,0.0048844446,-0.2759711,10.372886026778039,0.3750938636055438,jump
05/08/2020, 15:32:27,9.073584,-4.814359,1.4452649,-0.19537778,0.026864445,-0.31260446,10.372886026778039,0.36961564186923623,jump
05/08/2020, 15:32:27,8.989835,-4.95075,1.4835501,-0.19537778,0.026864445,-0.31260446,10.369569643974206,0.36961564186923623,jump
05/08/2020, 15:32:27,8.989835,-4.95075,1.4835501,-0.12089001,0.026864445,-0.32481557,10.369569643974206,0.34762227692364844,jump
05/08/2020, 15:32:27,8.853444,-5.1158547,1.524228,-0.12089001,0.026864445,-0.32481557,10.338216145407506,0.34762227692364844,jump
05/08/2020, 15:32:28,8.872586,-2.306681,2.4478576,0.10379445,0.24910668,0.12699556,9.488707527634903,0.2982537448621733,jump
05/08/2020, 15:32:28,8.872586,-2.306681,2.4478576,-0.21735778,0.3260367,0.02075889,9.488707527634903,0.3923968173893604,jump
05/08/2020, 15:32:28,9.260223,-2.4191437,2.3952155,-0.21735778,0.3260367,0.02075889,9.866156834481222,0.3923968173893604,jump
05/08/2020, 15:32:28,9.260223,-2.4191437,2.3952155,-0.52141446,0.40052447,-0.07204556,9.866156834481222,0.6614253162356616,jump
05/08/2020, 15:32:28,9.523434,-2.672783,2.2779672,-0.52141446,0.40052447,-0.07204556,10.150305030325436,0.6614253162356616,jump
05/08/2020, 15:32:28,9.523434,-2.672783,2.2779672,-0.78273225,0.45791668,-0.14164889,10.150305030325436,0.9178354227473543,jump
05/08/2020, 15:32:28,9.652647,-3.0029924,2.199004,-0.78273225,0.45791668,-0.14164889,10.345393954408507,0.9178354227473543,jump
05/08/2020, 15:32:28,9.652647,-3.0029924,2.199004,-0.9878789,0.50676113,-0.18927222,10.345393954408507,1.1262928480762777,jump
05/08/2020, 15:32:28,9.700503,-3.330809,2.0721843,-0.9878789,0.50676113,-0.18927222,10.463651488521585,1.1262928480762777,jump
05/08/2020, 15:32:28,9.700503,-3.330809,2.0721843,-1.1258645,0.5507211,-0.21369445,10.463651488521585,1.2714283088306455,jump
05/08/2020, 15:32:28,9.647861,-3.6753755,1.9884356,-1.1258645,0.5507211,-0.21369445,10.513965653911308,1.2714283088306455,jump
05/08/2020, 15:32:28,9.647861,-3.6753755,1.9884356,-1.1808145,0.58124894,-0.23689556,10.513965653911308,1.337270627205266,jump
05/08/2020, 15:32:28,9.52822,-3.9744785,1.8735801,-1.1808145,0.58124894,-0.23689556,10.492557425776797,1.337270627205266,jump
05/08/2020, 15:32:28,9.52822,-3.9744785,1.8735801,-1.1624979,0.58491224,-0.24178001,10.492557425776797,1.3236242745706568,jump
05/08/2020, 15:32:28,9.284152,-4.254439,1.8448663,-1.1624979,0.58491224,-0.24178001,10.377825430612278,1.3236242745706568,jump
05/08/2020, 15:32:28,9.284152,-4.254439,1.8448663,-1.0843467,0.55438447,-0.22468445,10.377825430612278,1.2383993310231323,jump
05/08/2020, 15:32:28,9.064013,-4.4745784,1.8329022,-1.0843467,0.55438447,-0.22468445,10.273154590066884,1.2383993310231323,jump
05/08/2020, 15:32:28,9.064013,-4.4745784,1.8329022,-0.9378134,0.48844448,-0.20270446,10.273154590066884,1.076643432529291,jump
05/08/2020, 15:32:28,8.841479,-4.65404,1.8185452,-0.9378134,0.48844448,-0.20270446,10.155734832095884,1.076643432529291,jump
05/08/2020, 15:32:28,8.841479,-4.65404,1.8185452,-0.73633003,0.40663,-0.15508112,10.155734832095884,0.8553245207754481,jump
05/08/2020, 15:32:29,8.805588,-3.6107693,2.8522446,0.09402556,-0.0048844446,0.019537779,9.935357569369193,0.09615814303667783,jump
05/08/2020, 15:32:29,8.805588,-3.6107693,2.8522446,0.08792,0.012211111,0.014653334,9.935357569369193,0.08996531728367184,jump
05/08/2020, 15:32:29,8.860622,-3.5796626,2.87378,0.08792,0.012211111,0.014653334,9.979139493640874,0.08996531728367184,jump
05/08/2020, 15:32:29,8.860622,-3.5796626,2.87378,0.085477784,0.019537779,0.017095556,9.979139493640874,0.08933327738131651,jump
05/08/2020, 15:32:29,8.922835,-3.5365918,2.902494,0.085477784,0.019537779,0.017095556,10.02740959423292,0.08933327738131651,jump
05/08/2020, 15:32:29,8.922835,-3.5365918,2.902494,0.06594,0.026864445,0.019537779,10.02740959423292,0.07383431995559274,jump
05/08/2020, 15:32:29,8.975478,-3.5413775,2.926422,0.06594,0.026864445,0.019537779,10.08288201621302,0.07383431995559274,jump
05/08/2020, 15:32:29,8.975478,-3.5413775,2.926422,0.046402223,0.037854444,0.02075889,10.08288201621302,0.06338025547187334,jump
05/08/2020, 15:32:29,8.997013,-3.5198421,2.9336007,0.046402223,0.037854444,0.02075889,10.096610628355114,0.06338025547187334,jump
05/08/2020, 15:32:29,8.997013,-3.5198421,2.9336007,0.03297,0.051286668,0.029306669,10.096610628355114,0.06764779383930572,jump
05/08/2020, 15:32:29,9.018549,-3.5413775,2.9192436,0.03297,0.051286668,0.029306669,10.119168117956516,0.06764779383930572,jump
05/08/2020, 15:32:29,9.018549,-3.5413775,2.9192436,0.02075889,0.07204556,0.024422223,10.119168117956516,0.07885390779429899,jump
05/08/2020, 15:32:29,9.008977,-3.5365918,2.928815,0.02075889,0.07204556,0.024422223,10.111730980551425,0.07885390779429899,jump
05/08/2020, 15:32:29,9.008977,-3.5365918,2.928815,0.02075889,0.09646778,0.025643334,10.111730980551425,0.10195363787060595,jump
05/08/2020, 15:32:29,8.968299,-3.5294135,2.8905299,0.02075889,0.09646778,0.025643334,10.061923657752516,0.10195363787060595,jump
05/08/2020, 15:32:29,8.968299,-3.5294135,2.8905299,0.015874445,0.09646778,0.039075557,10.061923657752516,0.10528499129956873,jump
05/08/2020, 15:32:29,8.865408,-3.4839497,2.8594232,0.015874445,0.09646778,0.039075557,9.94533378333465,0.10528499129956873,jump
05/08/2020, 15:32:29,8.865408,-3.4839497,2.8594232,0.0036633336,0.09524667,0.042738892,9.94533378333465,0.1044603348711055,jump
05/08/2020, 15:32:29,8.788837,-3.4432719,2.8402805,0.0036633336,0.09524667,0.042738892,9.857331187206295,0.1044603348711055,jump
05/08/2020, 15:32:29,8.788837,-3.4432719,2.8402805,-0.0036633336,0.07448778,0.051286668,9.857331187206295,0.0905106187335095,jump
05/08/2020, 15:32:30,17.221144,-12.047862,11.382657,-0.6520734,5.8063836,4.8209467,23.90154080181767,7.575012695822766,jump
05/08/2020, 15:32:30,17.221144,-12.047862,11.382657,-0.40052447,6.1495156,5.028536,23.90154080181767,7.953812610388228,jump
05/08/2020, 15:32:30,16.642082,-11.330015,10.822737,-0.40052447,6.1495156,5.028536,22.857379005710897,7.953812610388228,jump
05/08/2020, 15:32:30,16.642082,-11.330015,10.822737,-0.35168,6.4645624,5.248336,22.857379005710897,8.334223127139575,jump
05/08/2020, 15:32:30,15.921842,-10.47817,10.04507,-0.35168,6.4645624,5.248336,21.545313193573254,8.334223127139575,jump
05/08/2020, 15:32:30,15.921842,-10.47817,10.04507,-0.36633334,6.612317,5.402196,21.545313193573254,8.546382756476968,jump
05/08/2020, 15:32:30,15.086747,-9.848858,8.877372,-0.36633334,6.612317,5.402196,20.085260056877416,8.546382756476968,jump
05/08/2020, 15:32:30,15.086747,-9.848858,8.877372,-0.25521225,6.6184225,5.48401,20.085260056877416,8.599012610595171,jump
05/08/2020, 15:32:30,14.110476,-9.504292,7.4536424,-0.25521225,6.6184225,5.48401,18.574010393438762,8.599012610595171,jump
05/08/2020, 15:32:30,14.110476,-9.504292,7.4536424,-0.01099,6.558588,5.5108747,18.574010393438762,8.566500930438808,jump
05/08/2020, 15:32:30,13.122239,-8.977871,5.814559,-0.01099,6.558588,5.5108747,16.929395208810913,8.566500930438808,jump
05/08/2020, 15:32:30,13.122239,-8.977871,5.814559,0.32359445,6.4315925,5.449819,16.929395208810913,8.436268315384039,jump
05/08/2020, 15:32:30,12.201003,-7.941778,4.115655,0.32359445,6.4315925,5.449819,15.128613035060742,8.436268315384039,jump
05/08/2020, 15:32:30,12.201003,-7.941778,4.115655,0.7216767,6.28628,5.3008437,15.128613035060742,8.254518735649004,jump
05/08/2020, 15:32:30,11.253445,-6.8817577,2.6919255,0.7216767,6.28628,5.3008437,13.462728904387,8.254518735649004,jump
05/08/2020, 15:32:30,11.253445,-6.8817577,2.6919255,1.0806834,6.1336412,5.1885014,13.462728904387,8.10616911642506,jump
05/08/2020, 15:32:30,10.2723875,-5.994021,1.605584,1.0806834,6.1336412,5.1885014,12.001172114523618,8.10616911642506,jump
05/08/2020, 15:32:30,10.2723875,-5.994021,1.605584,1.3151367,5.933379,5.1347723,12.001172114523618,7.956158586763187,jump
05/08/2020, 15:32:30,9.346365,-5.2235317,0.8709874,1.3151367,5.933379,5.1347723,10.742366637967038,7.956158586763187,jump
05/08/2020, 15:32:30,9.346365,-5.2235317,0.8709874,1.416489,5.646418,5.0700536,10.742366637967038,7.719709947847773,jump
05/08/2020, 15:32:31,10.954342,-2.5435705,0.94755775,-0.56659555,1.5947711,0.9268234,11.285620181261736,1.92959247150222,jump
05/08/2020, 15:32:31,10.803595,-2.292324,0.95473623,-0.56659555,1.5947711,0.9268234,11.08530229389164,1.92959247150222,jump
05/08/2020, 15:32:31,10.803595,-2.292324,0.95473623,-0.5800278,1.5788968,1.0147433,11.08530229389164,1.9644468112074938,jump
05/08/2020, 15:32:31,10.676775,-2.0171494,0.9092726,-0.5800278,1.5788968,1.0147433,10.903632079403398,1.9644468112074938,jump
05/08/2020, 15:32:31,10.676775,-2.0171494,0.9092726,-0.6423045,1.5251678,1.0855678,10.903632079403398,1.9791789840243306,jump
05/08/2020, 15:32:31,10.636097,-1.7994026,0.849452,-0.6423045,1.5251678,1.0855678,10.8206273779163,1.9791789840243306,jump
05/08/2020, 15:32:31,10.636097,-1.7994026,0.849452,-0.72534,1.4787656,1.1417389,10.8206273779163,2.0041041751765145,jump
05/08/2020, 15:32:31,10.655239,-1.6917256,0.81834537,-0.72534,1.4787656,1.1417389,10.819692466790437,2.0041041751765145,jump
05/08/2020, 15:32:31,10.655239,-1.6917256,0.81834537,-0.78395337,1.4641123,1.1734878,10.819692466790437,2.033539090743233,jump
05/08/2020, 15:32:31,10.717453,-1.7682959,0.8327023,-0.78395337,1.4641123,1.1734878,10.894221509105149,2.033539090743233,jump
05/08/2020, 15:32:31,10.717453,-1.7682959,0.8327023,-0.7937223,1.4751023,1.1820356,10.894221509105149,2.0501536367276825,jump
05/08/2020, 15:32:31,10.688739,-1.9645073,0.89013004,-0.7937223,1.4751023,1.1820356,10.904162426010547,2.0501536367276825,jump
05/08/2020, 15:32:31,10.688739,-1.9645073,0.89013004,-0.7265611,1.4885345,1.1918045,10.904162426010547,2.0405940111280216,jump
05/08/2020, 15:32:31,10.612168,-2.2325034,0.94277215,-0.7265611,1.4885345,1.1918045,10.88535746334777,2.0405940111280216,jump
05/08/2020, 15:32:31,10.612168,-2.2325034,0.94277215,-0.61788225,1.5141778,1.1893623,10.88535746334777,2.0221512148348713,jump
05/08/2020, 15:32:31,10.403993,-2.4311078,1.052842,-0.61788225,1.5141778,1.1893623,10.736005978984688,2.0221512148348713,jump
05/08/2020, 15:32:31,10.403993,-2.4311078,1.052842,-0.48844448,1.5190623,1.1844778,10.736005978984688,1.9872382577475454,jump
05/08/2020, 15:32:31,10.112068,-2.5387847,1.1485549,-0.48844448,1.5190623,1.1844778,10.488971788332623,1.9872382577475454,jump
05/08/2020, 15:32:31,10.112068,-2.5387847,1.1485549,-0.3858711,1.4812078,1.1673822,10.488971788332623,1.925007661823303,jump
05/08/2020, 15:32:31,9.801002,-2.4717858,1.2466606,-0.3858711,1.4812078,1.1673822,10.184474407001009,1.925007661823303,jump
05/08/2020, 15:32:32,9.075976,-2.8761728,2.7589245,0.123332225,0.089141116,0.05006556,9.912486129965608,0.16019842786318764,jump
05/08/2020, 15:32:32,9.075976,-2.8761728,2.7589245,0.078151114,0.081814446,0.047623336,9.912486129965608,0.1227565978971343,jump
05/08/2020, 15:32:32,8.958728,-2.8953154,2.7014968,0.078151114,0.081814446,0.047623336,9.794883406160569,0.1227565978971343,jump
05/08/2020, 15:32:32,8.958728,-2.8953154,2.7014968,0.036633335,0.05372889,0.05006556,9.794883406160569,0.08206920836126948,jump
05/08/2020, 15:32:32,9.006584,-2.8761728,2.6751757,0.036633335,0.05372889,0.05006556,9.82585838898101,0.08206920836126948,jump
05/08/2020, 15:32:32,9.006584,-2.8761728,2.6751757,0.012211111,0.04151778,0.054950003,9.82585838898101,0.06994526443521343,jump
05/08/2020, 15:32:32,9.059227,-2.8785655,2.672783,0.012211111,0.04151778,0.054950003,9.874183596434685,0.06994526443521343,jump
05/08/2020, 15:32:32,9.059227,-2.8785655,2.672783,0.0061055557,0.05250778,0.06105556,9.874183596434685,0.08075968170119606,jump
05/08/2020, 15:32:32,9.126225,-2.9072795,2.6679974,0.0061055557,0.05250778,0.06105556,9.942759944403887,0.08075968170119606,jump
05/08/2020, 15:32:32,9.126225,-2.9072795,2.6679974,0.0036633336,0.068382226,0.054950003,9.942759944403887,0.08780120511660962,jump
05/08/2020, 15:32:32,9.188439,-2.902494,2.684747,0.0036633336,0.068382226,0.054950003,10.002987330942158,0.08780120511660962,jump
05/08/2020, 15:32:32,9.188439,-2.902494,2.684747,0.0048844446,0.08303556,0.047623336,10.002987330942158,0.09584750351665408,jump
05/08/2020, 15:32:32,9.1669035,-2.9359934,2.6632116,0.0048844446,0.08303556,0.047623336,9.987235507453978,0.09584750351665408,jump
05/08/2020, 15:32:32,9.1669035,-2.9359934,2.6632116,0.01099,0.10013112,0.04151778,9.987235507453978,0.10895295614457097,jump
05/08/2020, 15:32:32,9.109476,-2.952743,2.644069,0.01099,0.10013112,0.04151778,9.934402186867906,0.10895295614457097,jump
05/08/2020, 15:32:32,9.109476,-2.952743,2.644069,0.015874445,0.10379445,0.036633335,9.934402186867906,0.1112083032282168,jump
05/08/2020, 15:32:32,9.02812,-2.9910283,2.5962126,0.015874445,0.10379445,0.036633335,9.858677488084293,0.1112083032282168,jump
05/08/2020, 15:32:32,9.02812,-2.9910283,2.5962126,0.014653334,0.08425667,0.029306669,9.858677488084293,0.09040347180569235,jump
05/08/2020, 15:32:32,8.9348,-3.022135,2.5579274,0.014653334,0.08425667,0.029306669,9.772765534399063,0.09040347180569235,jump
05/08/2020, 15:32:32,8.9348,-3.022135,2.5579274,0.024422223,0.058613338,0.023201112,9.772765534399063,0.06760369731104075,jump
05/08/2020, 15:32:33,9.075976,-3.1609187,2.8546374,-0.025643334,0.045181114,0.07326667,10.025652537620815,0.08981602640648076,jump
05/08/2020, 15:32:33,9.040084,-3.1441689,2.8259234,-0.025643334,0.045181114,0.07326667,9.979717317493154,0.08981602640648076,jump
05/08/2020, 15:32:33,9.040084,-3.1441689,2.8259234,-0.035412222,0.042738892,0.085477784,9.979717317493154,0.10191707405193426,jump
05/08/2020, 15:32:33,8.9826565,-3.1226335,2.8115666,-0.035412222,0.042738892,0.085477784,9.916847474002356,0.10191707405193426,jump
05/08/2020, 15:32:33,8.9826565,-3.1226335,2.8115666,-0.03174889,0.035412222,0.089141116,9.916847474002356,0.10103541968101273,jump
05/08/2020, 15:32:33,8.989835,-3.0963125,2.7996025,-0.03174889,0.035412222,0.089141116,9.911713016181285,0.10103541968101273,jump
05/08/2020, 15:32:33,8.989835,-3.0963125,2.7996025,-0.028085556,0.025643334,0.09768889,9.911713016181285,0.10483080864288478,jump
05/08/2020, 15:32:33,8.985049,-3.0939198,2.7948167,-0.028085556,0.025643334,0.09768889,9.905273847625331,0.10483080864288478,jump
05/08/2020, 15:32:33,8.985049,-3.0939198,2.7948167,-0.024422223,0.02075889,0.09402556,9.905273847625331,0.09933872529550992,jump
05/08/2020, 15:32:33,9.01137,-3.1106694,2.7900312,-0.024422223,0.02075889,0.09402556,9.933041930263164,0.09933872529550992,jump
05/08/2020, 15:32:33,9.01137,-3.1106694,2.7900312,-0.01099,0.023201112,0.09280445,9.933041930263164,0.09628985948927517,jump
05/08/2020, 15:32:33,9.018549,-3.0675986,2.7613173,-0.01099,0.023201112,0.09280445,9.91812782084965,0.09628985948927517,jump
05/08/2020, 15:32:33,9.018549,-3.0675986,2.7613173,-0.0048844446,0.02198,0.089141116,9.91812782084965,0.09194083265503003,jump
05/08/2020, 15:32:33,9.0233345,-3.0436704,2.7732813,-0.0048844446,0.02198,0.089141116,9.918446679008104,0.09194083265503003,jump
05/08/2020, 15:32:33,9.0233345,-3.0436704,2.7732813,0.0048844446,0.02075889,0.07937223,9.918446679008104,0.08218722374521029,jump
05/08/2020, 15:32:33,9.013762,-3.048456,2.8259234,0.0048844446,0.02075889,0.07937223,9.926068755786273,0.08218722374521029,jump
05/08/2020, 15:32:33,9.013762,-3.048456,2.8259234,0.023201112,0.025643334,0.07204556,9.926068755786273,0.07991517042901916,jump
05/08/2020, 15:32:33,9.018549,-3.0245278,2.8354948,0.023201112,0.025643334,0.07204556,9.925826126772726,0.07991517042901916,jump
05/08/2020, 15:32:33,9.018549,-3.0245278,2.8354948,0.037854444,0.02075889,0.06594,9.925826126772726,0.07881607743259152,jump
05/08/2020, 15:32:33,8.992228,-2.9982069,2.8378878,0.037854444,0.02075889,0.06594,9.894594872363305,0.07881607743259152,jump
05/08/2020, 15:32:34,8.702696,-3.225525,2.9647074,-0.051286668,-0.039075557,0.039075557,9.743224092166665,0.07539310713855411,jump
05/08/2020, 15:32:34,8.836694,-3.2350962,3.0053852,-0.051286668,-0.039075557,0.039075557,9.878529453552751,0.07539310713855411,jump
05/08/2020, 15:32:34,8.836694,-3.2350962,3.0053852,-0.04396,-0.047623336,0.03174889,9.878529453552751,0.07216963315491333,jump
05/08/2020, 15:32:34,9.025727,-3.266203,3.062813,-0.04396,-0.047623336,0.03174889,10.075349030535289,0.07216963315491333,jump
05/08/2020, 15:32:34,9.025727,-3.266203,3.062813,-0.025643334,-0.051286668,0.02075889,10.075349030535289,0.06098224608921579,jump
05/08/2020, 15:32:34,9.217153,-3.2925239,3.0987053,-0.025643334,-0.051286668,0.02075889,10.26638153533227,0.06098224608921579,jump
05/08/2020, 15:32:34,9.217153,-3.2925239,3.0987053,-0.012211111,-0.039075557,0.008547778,10.26638153533227,0.04182194304253024,jump
05/08/2020, 15:32:34,9.382257,-3.3092737,3.1848469,-0.012211111,-0.039075557,0.008547778,10.446113979077731,0.04182194304253024,jump
05/08/2020, 15:32:34,9.382257,-3.3092737,3.1848469,0.0,-0.013432222,-0.0048844446,10.446113979077731,0.014292739365440121,jump
05/08/2020, 15:32:34,9.530613,-3.3427732,3.1944182,0.0,-0.013432222,-0.0048844446,10.592970469292977,0.014292739365440121,jump
05/08/2020, 15:32:34,9.530613,-3.3427732,3.1944182,-0.0012211112,0.019537779,-0.009768889,10.592970469292977,0.021878004978532505,jump
05/08/2020, 15:32:34,9.573684,-3.2973096,3.2135608,-0.0012211112,0.019537779,-0.009768889,10.623306656260969,0.021878004978532505,jump
05/08/2020, 15:32:34,9.573684,-3.2973096,3.2135608,-0.01099,0.058613338,-0.0061055557,10.623306656260969,0.05994648663052328,jump
05/08/2020, 15:32:34,9.547362,-3.249453,3.2039895,-0.01099,0.058613338,-0.0061055557,10.581900651904816,0.05994648663052328,jump
05/08/2020, 15:32:34,9.547362,-3.249453,3.2039895,-0.03297,0.09768889,0.007326667,10.581900651904816,0.10336256759401123,jump
05/08/2020, 15:32:34,9.442079,-3.1800613,3.129812,-0.03297,0.09768889,0.007326667,10.44324477374901,0.10336256759401123,jump
05/08/2020, 15:32:34,9.442079,-3.1800613,3.129812,-0.064718895,0.12699556,0.03052778,10.44324477374901,0.14576815090428605,jump
05/08/2020, 15:32:34,9.276974,-3.0819557,3.0173492,-0.064718895,0.12699556,0.03052778,10.230595715680892,0.14576815090428605,jump
05/08/2020, 15:32:34,9.276974,-3.0819557,3.0173492,-0.10379445,0.14287001,0.05372889,10.230595715680892,0.18458580794151677,jump
05/08/2020, 15:32:34,9.107083,-2.981457,2.9168508,-0.10379445,0.14287001,0.05372889,10.016789457807661,0.18458580794151677,jump
05/08/2020, 15:32:35,8.523234,-3.1393833,2.8546374,0.0024422223,0.0024422223,0.017095556,9.52104018911042,0.01744095614313045,jump
05/08/2020, 15:32:35,8.566305,-3.1680973,2.9168508,0.0024422223,0.0024422223,0.017095556,9.587827853960128,0.01744095614313045,jump
05/08/2020, 15:32:35,8.566305,-3.1680973,2.9168508,0.01099,-0.0061055557,0.008547778,9.587827853960128,0.015202711283280951,jump
05/08/2020, 15:32:35,8.6141615,-3.2805598,2.993421,0.01099,-0.0061055557,0.008547778,9.691564394195405,0.015202711283280951,jump
05/08/2020, 15:32:35,8.6141615,-3.2805598,2.993421,0.028085556,-0.01099,0.0012211112,9.691564394195405,0.030183930639956977,jump
05/08/2020, 15:32:35,8.760123,-3.278167,3.0963125,0.028085556,-0.01099,0.0012211112,9.852577814260531,0.030183930639956977,jump
05/08/2020, 15:32:35,8.760123,-3.278167,3.0963125,0.05617111,-0.0048844446,-0.019537779,9.852577814260531,0.05967224134893659,jump
05/08/2020, 15:32:35,8.891729,-3.2949169,3.1944182,0.05617111,-0.0048844446,-0.019537779,10.006179874121218,0.05967224134893659,jump
05/08/2020, 15:32:35,8.891729,-3.2949169,3.1944182,0.068382226,-0.0012211112,-0.037854444,10.006179874121218,0.0781701917874467,jump
05/08/2020, 15:32:35,9.020942,-3.333202,3.2638102,0.068382226,-0.0012211112,-0.037854444,10.155790531885994,0.0781701917874467,jump
05/08/2020, 15:32:35,9.020942,-3.333202,3.2638102,0.05617111,0.01099,-0.046402223,10.155790531885994,0.07368269974095647,jump
05/08/2020, 15:32:35,9.135797,-3.3427732,3.2614172,0.05617111,0.01099,-0.046402223,10.260299851225803,0.07368269974095647,jump
05/08/2020, 15:32:35,9.135797,-3.3427732,3.2614172,0.015874445,0.024422223,-0.04029667,10.260299851225803,0.049721872440820374,jump
05/08/2020, 15:32:35,9.269794,-3.3020952,3.2159536,0.015874445,0.024422223,-0.04029667,10.352549417101606,0.049721872440820374,jump
05/08/2020, 15:32:35,9.269794,-3.3020952,3.2159536,-0.02075889,0.047623336,-0.048844445,10.352549417101606,0.07130703693006735,jump
05/08/2020, 15:32:35,9.41815,-3.2997024,3.1680973,-0.02075889,0.047623336,-0.048844445,10.47026382889536,0.07130703693006735,jump
05/08/2020, 15:32:35,9.41815,-3.2997024,3.1680973,-0.064718895,0.085477784,-0.058613338,10.47026382889536,0.12219046719222011,jump
05/08/2020, 15:32:35,9.518648,-3.251846,3.1082766,-0.064718895,0.085477784,-0.058613338,10.52808381949505,0.12219046719222011,jump
05/08/2020, 15:32:35,9.518648,-3.251846,3.1082766,-0.12089001,0.12577444,-0.048844445,10.52808381949505,0.18116121013733966,jump
05/08/2020, 15:32:35,9.583255,-3.2398818,3.010171,-0.12089001,0.12577444,-0.048844445,10.55446520102943,0.18116121013733966,jump
05/08/2020, 15:32:36,-2.4885356,3.196811,-2.3138595,-0.8877478,1.3322322,1.67048,4.665442698909601,2.313750722478501,jump
05/08/2020, 15:32:36,-2.4885356,3.196811,-2.3138595,-0.79128003,0.97933114,1.240649,4.665442698909601,1.7676038767177047,jump
05/08/2020, 15:32:36,-2.8235307,3.2183464,-2.201397,-0.79128003,0.97933114,1.240649,4.814169423650049,1.7676038767177047,jump
05/08/2020, 15:32:36,-2.8235307,3.2183464,-2.201397,-0.6655056,0.6557367,0.8401245,4.814169423650049,1.2564622726742825,jump
05/08/2020, 15:32:36,-3.1106694,3.4887354,-2.0961127,-0.6655056,0.6557367,0.8401245,5.122619200989414,1.2564622726742825,jump
05/08/2020, 15:32:36,-3.1106694,3.4887354,-2.0961127,-0.5690378,0.3504589,0.4481478,5.122619200989414,0.8046501722840231,jump
05/08/2020, 15:32:36,-3.318845,3.9457645,-1.995614,-0.5690378,0.3504589,0.4481478,5.528676660750198,0.8046501722840231,jump
05/08/2020, 15:32:36,-3.318845,3.9457645,-1.995614,-0.5153089,0.046402223,0.035412222,5.528676660750198,0.5186043494899357,jump
05/08/2020, 15:32:36,-3.4767714,4.386044,-1.9214365,-0.5153089,0.046402223,0.035412222,5.917536620462001,0.5186043494899357,jump
05/08/2020, 15:32:36,-3.4767714,4.386044,-1.9214365,-0.5018767,-0.24422224,-0.39686114,5.917536620462001,0.6848529017124376,jump
05/08/2020, 15:32:36,-3.5772698,4.6396832,-1.820938,-0.5018767,-0.24422224,-0.39686114,6.135090461046318,0.6848529017124376,jump
05/08/2020, 15:32:36,-3.5772698,4.6396832,-1.820938,-0.5128667,-0.52141446,-0.8095967,6.135090461046318,1.0910325887675487,jump
05/08/2020, 15:32:36,-3.6011982,4.651647,-1.7443677,-0.5128667,-0.52141446,-0.8095967,6.1358999214666445,1.0910325887675487,jump
05/08/2020, 15:32:36,-3.6011982,4.651647,-1.7443677,-0.5128667,-0.7888378,-1.2040156,6.1358999214666445,1.5280546071050813,jump
05/08/2020, 15:32:36,-3.5389848,4.4889355,-1.6151553,-0.5128667,-0.7888378,-1.2040156,5.940006874612705,1.5280546071050813,jump
05/08/2020, 15:32:36,-3.5389848,4.4889355,-1.6151553,-0.4908867,-1.0574822,-1.5850023,5.940006874612705,1.9676053300831144,jump
05/08/2020, 15:32:36,-3.438486,4.26401,-1.5074782,-0.4908867,-1.0574822,-1.5850023,5.681325388109706,1.9676053300831144,jump
05/08/2020, 15:32:36,-3.438486,4.26401,-1.5074782,-0.45181113,-1.3224634,-1.9684312,5.681325388109706,2.4140762730970504,jump
05/08/2020, 15:32:36,-3.3044882,4.0271206,-1.3998013,-0.45181113,-1.3224634,-1.9684312,5.394143671147627,2.4140762730970504,jump
05/08/2020, 15:32:36,-3.3044882,4.0271206,-1.3998013,-0.4273889,-1.5850023,-2.3469756,5.394143671147627,2.864120786697305,jump
05/08/2020, 15:32:37,10.554741,-2.8522446,1.7180467,-0.23079,1.3322322,1.9134812,11.067499233272947,2.3429718729787514,jump
05/08/2020, 15:32:37,10.554741,-2.8522446,1.7180467,-0.047623336,1.3151367,1.8719634,11.067499233272947,2.2882524660584678,jump
05/08/2020, 15:32:37,10.12164,-2.725425,1.6390835,-0.047623336,1.3151367,1.8719634,10.60953046275808,2.2882524660584678,jump
05/08/2020, 15:32:37,10.12164,-2.725425,1.6390835,0.106236674,1.2394278,1.8218979,10.60953046275808,2.2060778188105705,jump
05/08/2020, 15:32:37,9.647861,-2.5914268,1.5864414,0.106236674,1.2394278,1.8218979,10.11501370107977,2.2060778188105705,jump
05/08/2020, 15:32:37,9.647861,-2.5914268,1.5864414,0.20881,1.1087689,1.74741,10.11501370107977,2.0800029070237684,jump
05/08/2020, 15:32:37,9.269794,-2.4047868,1.4668003,0.20881,1.1087689,1.74741,9.688322470664747,2.0800029070237684,jump
05/08/2020, 15:32:37,9.269794,-2.4047868,1.4668003,0.25643334,0.9329289,1.6570479,9.688322470664747,1.9188335160410508,jump
05/08/2020, 15:32:37,9.071191,-2.2588246,1.3878372,0.25643334,0.9329289,1.6570479,9.450655198273754,1.9188335160410508,jump
05/08/2020, 15:32:37,9.071191,-2.2588246,1.3878372,0.25521225,0.7754056,1.570349,9.450655198273754,1.7698539562587672,jump
05/08/2020, 15:32:37,9.104691,-2.0961127,1.308874,0.25521225,0.7754056,1.570349,9.43409930989839,1.7698539562587672,jump
05/08/2020, 15:32:37,9.104691,-2.0961127,1.308874,0.21491556,0.7082445,1.4799867,9.43409930989839,1.654738501735393,jump
05/08/2020, 15:32:37,9.238688,-2.0267208,1.2610176,0.21491556,0.7082445,1.4799867,9.542071418889652,1.654738501735393,jump
05/08/2020, 15:32:37,9.238688,-2.0267208,1.2610176,0.14531223,0.7216767,1.3981723,9.542071418889652,1.5801324571521342,jump
05/08/2020, 15:32:37,9.288938,-2.0386848,1.2179468,0.14531223,0.7216767,1.3981723,9.587700004739013,1.5801324571521342,jump
05/08/2020, 15:32:37,9.288938,-2.0386848,1.2179468,0.07693,0.7766267,1.2980411,9.587700004739013,1.5145883852544229,jump
05/08/2020, 15:32:37,9.142975,-2.1104696,1.1653047,0.07693,0.7766267,1.2980411,9.455474920453204,1.5145883852544229,jump
05/08/2020, 15:32:37,9.142975,-2.1104696,1.1653047,0.034191113,0.81936556,1.17593,9.455474920453204,1.433645832909942,jump
05/08/2020, 15:32:37,8.7673025,-2.172683,1.1222339,0.034191113,0.81936556,1.17593,9.101953286588405,1.433645832909942,jump
05/08/2020, 15:32:37,8.7673025,-2.172683,1.1222339,0.025643334,0.81326,1.0562612,9.101953286588405,1.3333180877164637,jump
05/08/2020, 15:32:38,9.726824,-2.4670002,2.2707887,-0.46035892,0.7387723,0.6777167,10.288521408041452,1.1031838888609646,jump
05/08/2020, 15:32:38,9.726824,-2.4670002,2.2707887,-0.46035892,0.7619734,0.70336,10.288521408041452,1.1345700004130745,jump
05/08/2020, 15:32:38,9.595219,-2.4358935,2.184647,-0.46035892,0.7619734,0.70336,10.137774967849468,1.1345700004130745,jump
05/08/2020, 15:32:38,9.595219,-2.4358935,2.184647,-0.46158,0.7448778,0.7167922,10.137774967849468,1.13211755515976,jump
05/08/2020, 15:32:38,9.468399,-2.3952155,2.1487548,-0.46158,0.7448778,0.7167922,10.000239257963948,1.13211755515976,jump
05/08/2020, 15:32:38,9.468399,-2.3952155,2.1487548,-0.46280113,0.7021389,0.7265611,10.000239257963948,1.1113392798432615,jump
05/08/2020, 15:32:38,9.394221,-2.359323,2.1008983,-0.46280113,0.7021389,0.7265611,9.911184217930314,1.1113392798432615,jump
05/08/2020, 15:32:38,9.394221,-2.359323,2.1008983,-0.47379112,0.6581789,0.7338878,9.911184217930314,1.093740744600642,jump
05/08/2020, 15:32:38,9.377472,-2.321038,2.0697916,-0.47379112,0.6581789,0.7338878,9.879687960576755,1.093740744600642,jump
05/08/2020, 15:32:38,9.377472,-2.321038,2.0697916,-0.4713489,0.62765115,0.7424356,9.879687960576755,1.0804287811286788,jump
05/08/2020, 15:32:38,9.406186,-2.2971098,2.0578275,-0.4713489,0.62765115,0.7424356,9.898873903361402,1.0804287811286788,jump
05/08/2020, 15:32:38,9.406186,-2.2971098,2.0578275,-0.46280113,0.60933447,0.75831,9.898873903361402,1.0772685208259856,jump
05/08/2020, 15:32:38,9.501899,-2.2995026,2.050649,-0.46280113,0.60933447,0.75831,9.988941557261677,1.0772685208259856,jump
05/08/2020, 15:32:38,9.501899,-2.2995026,2.050649,-0.45547447,0.6117767,0.76075226,9.988941557261677,1.0772519360618364,jump
05/08/2020, 15:32:38,9.497113,-2.3018954,2.024328,-0.45547447,0.6117767,0.76075226,9.979568418919046,1.0772519360618364,jump
05/08/2020, 15:32:38,9.497113,-2.3018954,2.024328,-0.4359367,0.62765115,0.7656367,9.979568418919046,1.0817514960085977,jump
05/08/2020, 15:32:38,9.454042,-2.2755744,2.009971,-0.4359367,0.62765115,0.7656367,9.929609279699758,1.0817514960085977,jump
05/08/2020, 15:32:38,9.454042,-2.2755744,2.009971,-0.41151446,0.63742,0.76075226,9.929609279699758,1.0744265486557598,jump
05/08/2020, 15:32:38,9.284152,-2.2420747,1.942972,-0.41151446,0.63742,0.76075226,9.746667019961341,1.0744265486557598,jump
05/08/2020, 15:32:38,9.284152,-2.2420747,1.942972,-0.38831335,0.6191034,0.7424356,9.746667019961341,1.041771005469963,jump
05/08/2020, 15:32:39,9.41815,-2.3832514,3.117848,-0.035412222,-0.042738892,0.036633335,10.203058926916244,0.06650292937716658,jump
05/08/2020, 15:32:39,9.403793,-2.4119651,3.1082766,-0.035412222,-0.042738892,0.036633335,10.193639602244044,0.06650292937716658,jump
05/08/2020, 15:32:39,9.403793,-2.4119651,3.1082766,-0.036633335,-0.047623336,0.013432222,10.193639602244044,0.06156628946151367,jump
05/08/2020, 15:32:39,9.355937,-2.4789643,3.1393833,-0.036633335,-0.047623336,0.013432222,10.17519282238979,0.06156628946151367,jump
05/08/2020, 15:32:39,9.355937,-2.4789643,3.1393833,-0.028085556,-0.05006556,-0.014653334,10.17519282238979,0.059245917971637974,jump
05/08/2020, 15:32:39,9.303294,-2.5292134,3.1513474,-0.028085556,-0.05006556,-0.014653334,10.142938116152775,0.059245917971637974,jump
05/08/2020, 15:32:39,9.303294,-2.5292134,3.1513474,-0.017095556,-0.048844445,-0.047623336,10.142938116152775,0.07032794657266941,jump
05/08/2020, 15:32:39,9.243474,-2.5914268,3.1872396,-0.017095556,-0.048844445,-0.047623336,10.115127354320503,0.07032794657266941,jump
05/08/2020, 15:32:39,9.243474,-2.5914268,3.1872396,0.0048844446,-0.057392225,-0.08059334,10.115127354320503,0.09906064667802365,jump
05/08/2020, 15:32:39,9.174082,-2.6656044,3.211168,0.0048844446,-0.057392225,-0.08059334,10.078731256129144,0.09906064667802365,jump
05/08/2020, 15:32:39,9.174082,-2.6656044,3.211168,0.029306669,-0.078151114,-0.106236674,10.078731256129144,0.1351025846495366,jump
05/08/2020, 15:32:39,9.092726,-2.6991038,3.1920254,0.029306669,-0.078151114,-0.106236674,10.007589591513337,0.1351025846495366,jump
05/08/2020, 15:32:39,9.092726,-2.6991038,3.1920254,0.048844445,-0.09402556,-0.14531223,10.007589591513337,0.17983945981884747,jump
05/08/2020, 15:32:39,9.016156,-2.7421749,3.199204,0.048844445,-0.09402556,-0.14531223,9.952160648537577,0.17983945981884747,jump
05/08/2020, 15:32:39,9.016156,-2.7421749,3.199204,0.06227667,-0.109900005,-0.16973445,9.952160648537577,0.21158019170299952,jump
05/08/2020, 15:32:39,9.006584,-2.7421749,3.1944182,0.06227667,-0.109900005,-0.16973445,9.941950962183155,0.21158019170299952,jump
05/08/2020, 15:32:39,9.006584,-2.7421749,3.1944182,0.07937223,-0.12089001,-0.18438779,9.941950962183155,0.23433565783080051,jump
05/08/2020, 15:32:39,9.016156,-2.7397819,3.182454,0.07937223,-0.12089001,-0.18438779,9.946129465269676,0.23433565783080051,jump
05/08/2020, 15:32:39,9.016156,-2.7397819,3.182454,0.08425667,-0.11966889,-0.19171445,9.946129465269676,0.24119341068790798,jump
05/08/2020, 15:32:39,8.989835,-2.7828526,3.182454,0.08425667,-0.11966889,-0.19171445,9.934254501314339,0.24119341068790798,jump
05/08/2020, 15:32:40,8.812766,-3.1130621,1.8927227,0.013432222,-0.12211112,0.09768889,9.536162809026695,0.15695435478720068,jump
05/08/2020, 15:32:40,8.896515,-3.0987053,1.875973,0.013432222,-0.12211112,0.09768889,9.605687188535958,0.15695435478720068,jump
05/08/2020, 15:32:40,8.896515,-3.0987053,1.875973,-0.014653334,-0.12455334,0.07448778,9.605687188535958,0.14586529387706057,jump
05/08/2020, 15:32:40,9.032906,-3.158526,1.8664017,-0.014653334,-0.12455334,0.07448778,9.749519194920525,0.14586529387706057,jump
05/08/2020, 15:32:40,9.032906,-3.158526,1.8664017,-0.025643334,-0.10013112,0.045181114,9.749519194920525,0.11280582522134099,jump
05/08/2020, 15:32:40,9.157332,-3.2877383,1.8400806,-0.025643334,-0.10013112,0.045181114,9.902113765383119,0.11280582522134099,jump
05/08/2020, 15:32:40,9.157332,-3.2877383,1.8400806,-0.019537779,-0.06960334,0.019537779,9.902113765383119,0.07488707739218617,jump
05/08/2020, 15:32:40,9.205189,-3.3834512,1.7898313,-0.019537779,-0.06960334,0.019537779,9.969289751027862,0.07488707739218617,jump
05/08/2020, 15:32:40,9.205189,-3.3834512,1.7898313,-0.0012211112,-0.04396,-0.008547778,9.969289751027862,0.04479997032759294,jump
05/08/2020, 15:32:40,9.114262,-3.4767714,1.7228323,-0.0012211112,-0.04396,-0.008547778,9.905849548213162,0.04479997032759294,jump
05/08/2020, 15:32:40,9.114262,-3.4767714,1.7228323,0.0048844446,-0.047623336,-0.04396,9.905849548213162,0.06499478192346221,jump
05/08/2020, 15:32:40,9.042477,-3.548556,1.6630118,0.0048844446,-0.047623336,-0.04396,9.855163244215644,0.06499478192346221,jump
05/08/2020, 15:32:40,9.042477,-3.548556,1.6630118,0.012211111,-0.08425667,-0.06716111,9.855163244215644,0.10843852181664744,jump
05/08/2020, 15:32:40,9.020942,-3.5605202,1.6151553,0.012211111,-0.08425667,-0.06716111,9.831755715020261,0.10843852181664744,jump
05/08/2020, 15:32:40,9.020942,-3.5605202,1.6151553,0.0024422223,-0.12211112,-0.07204556,9.831755715020261,0.14180145354073356,jump
05/08/2020, 15:32:40,9.075976,-3.6011982,1.5888343,0.0024422223,-0.12211112,-0.07204556,9.892743296892139,0.14180145354073356,jump
05/08/2020, 15:32:40,9.075976,-3.6011982,1.5888343,0.0061055557,-0.14164889,-0.070824444,9.892743296892139,0.15848592163974914,jump
05/08/2020, 15:32:40,9.193225,-3.6466618,1.605584,0.0061055557,-0.14164889,-0.070824444,10.01955219718668,0.15848592163974914,jump
05/08/2020, 15:32:40,9.193225,-3.6466618,1.605584,0.014653334,-0.12943779,-0.085477784,10.01955219718668,0.1558053693487315,jump
05/08/2020, 15:32:40,9.265009,-3.7136607,1.6677973,0.014653334,-0.12943779,-0.085477784,10.119941415407016,0.1558053693487315,jump
05/08/2020, 15:32:41,9.140582,-3.1322048,2.440679,0.11844778,0.028085556,-0.042738892,9.965834732378244,0.12901661940065026,jump
05/08/2020, 15:32:41,9.145369,-3.1537402,2.457429,0.11844778,0.028085556,-0.042738892,9.981122201105913,0.12901661940065026,jump
05/08/2020, 15:32:41,9.145369,-3.1537402,2.457429,0.11112112,0.058613338,-0.039075557,9.981122201105913,0.13156870976291102,jump
05/08/2020, 15:32:41,9.068798,-3.1322048,2.4502504,0.11112112,0.058613338,-0.039075557,9.90240031683147,0.13156870976291102,jump
05/08/2020, 15:32:41,9.068798,-3.1322048,2.4502504,0.10501556,0.05250778,-0.036633335,9.90240031683147,0.12299323679907624,jump
05/08/2020, 15:32:41,8.965906,-3.1393833,2.4047868,0.10501556,0.05250778,-0.036633335,9.79929590572991,0.12299323679907624,jump
05/08/2020, 15:32:41,8.965906,-3.1393833,2.4047868,0.09768889,0.012211111,-0.03052778,9.79929590572991,0.10307364360520165,jump
05/08/2020, 15:32:41,8.908479,-3.1489546,2.349752,0.09768889,0.012211111,-0.03052778,9.736438922411086,0.10307364360520165,jump
05/08/2020, 15:32:41,8.908479,-3.1489546,2.349752,0.08425667,-0.025643334,-0.026864445,9.736438922411086,0.09207858401712309,jump
05/08/2020, 15:32:41,8.961121,-3.1609187,2.3282163,0.08425667,-0.025643334,-0.026864445,9.783336895955726,0.09207858401712309,jump
05/08/2020, 15:32:41,8.961121,-3.1609187,2.3282163,0.08059334,-0.036633335,-0.02198,9.783336895955726,0.0912162712155503,jump
05/08/2020, 15:32:41,9.075976,-3.1800613,2.3856442,0.08059334,-0.036633335,-0.02198,9.908452728151202,0.0912162712155503,jump
05/08/2020, 15:32:41,9.075976,-3.1800613,2.3856442,0.08303556,-0.01099,-0.014653334,9.908452728151202,0.08503178397068153,jump
05/08/2020, 15:32:41,9.195618,-3.1776686,2.3712873,0.08303556,-0.01099,-0.014653334,10.013988499395367,0.08503178397068153,jump
05/08/2020, 15:32:41,9.195618,-3.1776686,2.3712873,0.08792,0.023201112,-0.018316668,10.013988499395367,0.09275623298567731,jump
05/08/2020, 15:32:41,9.217153,-3.2015967,2.400001,0.08792,0.023201112,-0.018316668,10.048190318175836,0.09275623298567731,jump
05/08/2020, 15:32:41,9.217153,-3.2015967,2.400001,0.089141116,0.045181114,-0.018316668,10.048190318175836,0.10160202691321737,jump
05/08/2020, 15:32:41,9.164511,-3.1776686,2.400001,0.089141116,0.045181114,-0.018316668,9.992288999499307,0.10160202691321737,jump
05/08/2020, 15:32:41,9.164511,-3.1776686,2.400001,0.08792,0.047623336,-0.017095556,9.992288999499307,0.10144046075078732,jump
05/08/2020, 15:32:41,9.097511,-3.1752756,2.388037,0.08792,0.047623336,-0.017095556,9.927225551992665,0.10144046075078732,jump
05/08/2020, 15:32:42,28.962725,-0.8470592,1.8831514,1.0611455,0.84745115,2.2895834,29.036239249087334,2.6620284874077473,jump
05/08/2020, 15:32:42,28.962725,-0.8470592,1.8831514,0.54461557,1.4201523,3.2615879,29.036239249087334,3.5988045301324223,jump
05/08/2020, 15:32:42,27.823742,-0.40438703,1.6390835,0.54461557,1.4201523,3.2615879,27.87491233412868,3.5988045301324223,jump
05/08/2020, 15:32:42,27.823742,-0.40438703,1.6390835,-0.068382226,1.7071134,4.030888,27.87491233412868,4.378009931127647,jump
05/08/2020, 15:32:42,26.029125,-1.282553,1.5457634,-0.068382226,1.7071134,4.030888,26.106506581345112,4.378009931127647,jump
05/08/2020, 15:32:42,26.029125,-1.282553,1.5457634,-0.88408446,1.9598835,4.833158,26.106506581345112,5.28981709427161,jump
05/08/2020, 15:32:42,24.323042,-3.2446675,1.6103697,-0.88408446,1.9598835,4.833158,24.59128963549185,5.28981709427161,jump
