DATE,TIME,ax,ay,az,gx,gy,gz,ma,mg,label
05/08/2020, 15:29:17,-3.8703518,-1.0490186,9.031619,0.0016015843,0.008626206,-0.009311968,9.881811884375763,0.01279411020938344,jump
05/08/2020, 15:29:17,-3.8559816,-1.092129,8.978929,0.0016015843,0.008626206,-0.009311968,9.832725865094398,0.01279411020938344,jump
05/08/2020, 15:29:17,-3.8559816,-1.092129,8.978929,0.011375424,0.0049610157,-0.008090238,9.832725865094398,0.01481431436528043,jump
05/08/2020, 15:29:17,-3.8655617,-1.0801538,9.0148535,0.011375424,0.0049610157,-0.008090238,9.86797258515272,0.01481431436528043,jump
05/08/2020, 15:29:17,-3.8655617,-1.0801538,9.0148535,0.021149265,0.003739285,-0.008090238,9.86797258515272,0.022950503265983878,jump
05/08/2020, 15:29:17,-3.8344264,-1.0130934,8.969349,0.021149265,0.003739285,-0.008090238,9.807058876382362,0.022950503265983878,jump
05/08/2020, 15:29:17,-3.8344264,-1.0130934,8.969349,0.026036184,0.0074044755,-0.0068685077,9.807058876382362,0.027926430977711553,jump
05/08/2020, 15:29:17,-3.8080812,-0.9532178,8.928633,0.026036184,0.0074044755,-0.0068685077,9.753491106580254,0.027926430977711553,jump
05/08/2020, 15:29:17,-3.8080812,-0.9532178,8.928633,0.022370994,0.011069666,-0.009311968,9.753491106580254,0.02664041349384662,jump
05/08/2020, 15:29:17,-3.784131,-0.89573735,8.945398,0.022370994,0.011069666,-0.009311968,9.754083478177309,0.02664041349384662,jump
05/08/2020, 15:29:17,-3.784131,-0.89573735,8.945398,0.013818884,0.008626206,-0.011755427,9.754083478177309,0.02008887905810233,jump
05/08/2020, 15:29:17,-3.8128712,-0.89573735,8.914263,0.013818884,0.008626206,-0.011755427,9.736755778203868,0.02008887905810233,jump
05/08/2020, 15:29:17,-3.8128712,-0.89573735,8.914263,0.011375424,-0.002369365,-0.008090238,9.736755778203868,0.014158606007125332,jump
05/08/2020, 15:29:17,-3.7625759,-0.9364527,8.943004,0.011375424,-0.002369365,-0.008090238,9.747370678134002,0.014158606007125332,jump
05/08/2020, 15:29:17,-3.7625759,-0.9364527,8.943004,-0.0045070667,0.022065235,-0.010533698,9.747370678134002,0.024862563233039522,jump
05/08/2020, 15:29:17,-4.1960745,-1.0753639,8.689131,-0.0045070667,0.022065235,-0.010533698,9.708987708207866,0.024862563233039522,jump
05/08/2020, 15:29:17,-4.1960745,-1.0753639,8.689131,0.056579433,0.18577707,-0.010533698,9.708987708207866,0.1944873006632816,jump
05/08/2020, 15:29:17,-4.8594947,-1.3100758,8.5119,0.056579433,0.18577707,-0.010533698,9.888550340062304,0.1944873006632816,jump
05/08/2020, 15:29:17,-4.8594947,-1.3100758,8.5119,-0.17921446,0.15767728,0.012679173,9.888550340062304,0.23904122868560948,jump
05/08/2020, 15:29:17,-2.7231374,-1.0562036,4.8834453,-0.17921446,0.15767728,0.012679173,5.690261933481056,0.23904122868560948,jump
05/08/2020, 15:29:18,-7.5323367,-1.2358302,9.520203,0.008931965,0.32505426,0.017566092,12.202361691018954,0.32565106833175633,jump
05/08/2020, 15:29:18,-3.9517825,-1.0777588,0.06706055,0.008931965,0.32505426,0.017566092,4.09666276078957,0.32565106833175633,jump
05/08/2020, 15:29:18,-3.9517825,-1.0777588,0.06706055,0.08467923,0.117360175,0.06399183,4.09666276078957,0.15823696483821859,jump
05/08/2020, 15:29:18,-0.021555176,-0.4143384,6.2342362,0.08467923,0.117360175,0.06399183,6.248027084167112,0.15823696483821859,jump
05/08/2020, 15:29:18,-0.021555176,-0.4143384,6.2342362,-0.124236606,-0.1673029,0.09086989,6.248027084167112,0.22733748806371196,jump
05/08/2020, 15:29:18,-2.7854078,-0.6179151,16.494501,-0.124236606,-0.1673029,0.09086989,16.73944092761889,0.22733748806371196,jump
05/08/2020, 15:29:18,-2.7854078,-0.6179151,16.494501,-0.30016574,0.025730425,0.08109605,16.73944092761889,0.31199054101087503,jump
05/08/2020, 15:29:18,-7.288045,-1.101709,13.146263,-0.30016574,0.025730425,0.08109605,15.071615564391394,0.31199054101087503,jump
05/08/2020, 15:29:18,-7.288045,-1.101709,13.146263,-0.10713238,0.34582368,0.07865259,15.071615564391394,0.3704829171210564,jump
05/08/2020, 15:29:18,-5.831873,-1.096919,1.5950831,-0.10713238,0.34582368,0.07865259,6.1447752849762445,0.3704829171210564,jump
05/08/2020, 15:29:18,-5.831873,-1.096919,1.5950831,0.099339984,0.22731589,0.11896968,6.1447752849762445,0.2751267523069027,jump
05/08/2020, 15:29:18,-0.38559815,-0.20357667,2.3590944,0.099339984,0.22731589,0.11896968,2.399053083142597,0.2751267523069027,jump
05/08/2020, 15:29:18,-0.38559815,-0.20357667,2.3590944,-0.20853598,-0.036577806,0.15806504,2.399053083142597,0.2642153442898094,jump
05/08/2020, 15:29:18,-1.2430152,-0.045505375,13.601316,-0.20853598,-0.036577806,0.15806504,13.658073315090205,0.2642153442898094,jump
05/08/2020, 15:29:18,-1.2430152,-0.045505375,13.601316,-0.52862924,0.0025175551,0.17394753,13.658073315090205,0.5565186048398117,jump
05/08/2020, 15:29:18,-6.090535,-0.3305127,15.7113285,-0.52862924,0.0025175551,0.17394753,16.853774077848275,0.5565186048398117,jump
05/08/2020, 15:29:18,-6.090535,-0.3305127,15.7113285,-0.38690856,0.29695448,0.21059944,16.853774077848275,0.5312554210870214,jump
05/08/2020, 15:29:18,-7.060518,-0.3424878,4.6726832,-0.38690856,0.29695448,0.21059944,8.473616582486773,0.5312554210870214,jump
05/08/2020, 15:29:18,-7.060518,-0.3424878,4.6726832,-0.29161364,0.37636694,0.28145978,8.473616582486773,0.5530914905470782,jump
05/08/2020, 15:29:18,-3.173401,0.33769777,-0.58677983,-0.29161364,0.37636694,0.28145978,3.2448150964803495,0.5530914905470782,jump
05/08/2020, 15:29:19,-7.4820414,-6.962322,2.3734643,1.1622452,0.27618507,0.054217994,10.49229273342516,1.195839278577073,jump
05/08/2020, 15:29:19,-7.5970025,-6.452183,2.3566992,1.1622452,0.27618507,0.054217994,10.242028159854634,1.195839278577073,jump
05/08/2020, 15:29:19,-7.5970025,-6.452183,2.3566992,1.5605291,0.3091718,0.046887614,10.242028159854634,1.5915516829882828,jump
05/08/2020, 15:29:19,-7.812554,-6.0091043,2.2728736,1.5605291,0.3091718,0.046887614,10.114904184515696,1.5915516829882828,jump
05/08/2020, 15:29:19,-7.812554,-6.0091043,2.2728736,1.8525226,0.33604985,0.033448584,10.114904184515696,1.8830529305450057,jump
05/08/2020, 15:29:19,-8.0999565,-5.5540504,2.2824538,1.8525226,0.33604985,0.033448584,10.08297411938822,1.8830529305450057,jump
05/08/2020, 15:29:19,-8.0999565,-5.5540504,2.2824538,2.068769,0.34582368,0.021231283,10.08297411938822,2.0975819094011214,jump
05/08/2020, 15:29:19,-8.358619,-5.257068,2.193838,2.068769,0.34582368,0.021231283,10.115146931022686,2.0975819094011214,jump
05/08/2020, 15:29:19,-8.358619,-5.257068,2.193838,2.21782,0.33238465,0.012679173,10.115146931022686,2.242624701614287,jump
05/08/2020, 15:29:19,-8.509504,-5.031936,2.069297,2.21782,0.33238465,0.012679173,10.100199786806341,2.242624701614287,jump
05/08/2020, 15:29:19,-8.509504,-5.031936,2.069297,2.3143365,0.30061966,0.0077922526,10.100199786806341,2.3337923028506373,jump
05/08/2020, 15:29:19,-8.660391,-4.869075,1.9974464,2.3143365,0.30061966,0.0077922526,10.134103391573944,2.3337923028506373,jump
05/08/2020, 15:29:19,-8.660391,-4.869075,1.9974464,2.3961926,0.25908086,0.015122632,10.134103391573944,2.4102054527163843,jump
05/08/2020, 15:29:19,-8.674761,-4.6199927,1.9064356,2.3961926,0.25908086,0.015122632,10.011508619663346,2.4102054527163843,jump
05/08/2020, 15:29:19,-8.674761,-4.6199927,1.9064356,2.475605,0.21021166,0.029783392,10.011508619663346,2.4846923682309052,jump
05/08/2020, 15:29:19,-8.657996,-4.414021,1.9567311,2.475605,0.21021166,0.029783392,9.913287843008012,2.4846923682309052,jump
05/08/2020, 15:29:19,-8.657996,-4.414021,1.9567311,2.5379133,0.1711163,0.033448584,9.913287843008012,2.5438953655192362,jump
05/08/2020, 15:29:19,-8.602911,-4.2200246,2.0525317,2.5379133,0.1711163,0.033448584,9.79956996804845,2.5438953655192362,jump
05/08/2020, 15:29:19,-8.602911,-4.2200246,2.0525317,2.579452,0.15156862,0.015122632,9.79956996804845,2.5839455405148146,jump
05/08/2020, 15:29:19,-8.6077,-3.9613624,2.1746778,2.579452,0.15156862,0.015122632,9.72183731543149,2.5839455405148146,jump
05/08/2020, 15:29:20,-7.7718387,-5.465435,1.6908839,-0.21097945,-0.006034555,-0.12781978,9.65046861864322,0.24675217949457737,jump
05/08/2020, 15:29:20,-7.783814,-5.357659,1.6070582,-0.21097945,-0.006034555,-0.12781978,9.585139754210077,0.24675217949457737,jump
05/08/2020, 15:29:20,-7.783814,-5.357659,1.6070582,-0.15111467,0.030617347,-0.13026324,9.585139754210077,0.2018454300460685,jump
05/08/2020, 15:29:20,-7.846084,-5.362449,1.4513819,-0.15111467,0.030617347,-0.13026324,9.61370930284691,0.2018454300460685,jump
05/08/2020, 15:29:20,-7.846084,-5.362449,1.4513819,-0.088806435,0.055051945,-0.12659805,9.61370930284691,0.1641473871280496,jump
05/08/2020, 15:29:20,-7.9155397,-5.2666483,1.3172607,-0.088806435,0.055051945,-0.12659805,9.59836077149425,0.1641473871280496,jump
05/08/2020, 15:29:20,-7.9155397,-5.2666483,1.3172607,-0.022833018,0.053830214,-0.11804594,9.59836077149425,0.13173413681434412,jump
05/08/2020, 15:29:20,-7.92033,-5.1804276,1.21188,-0.022833018,0.053830214,-0.11804594,9.541336946957907,0.13173413681434412,jump
05/08/2020, 15:29:20,-7.92033,-5.1804276,1.21188,0.044362135,0.028173886,-0.10216345,9.541336946957907,0.11488749803770851,jump
05/08/2020, 15:29:20,-7.9227247,-5.1612673,1.214275,0.044362135,0.028173886,-0.10216345,9.53324240605378,0.11488749803770851,jump
05/08/2020, 15:29:20,-7.9227247,-5.1612673,1.214275,0.106670365,7.409509E-5,-0.086280964,9.53324240605378,0.13719685494366063,jump
05/08/2020, 15:29:20,-7.879615,-5.151687,1.1807446,0.106670365,7.409509E-5,-0.086280964,9.48801181678852,0.13719685494366063,jump
05/08/2020, 15:29:20,-7.879615,-5.151687,1.1807446,0.1530961,-0.003591095,-0.06795501,9.48801181678852,0.167538632917567,jump
05/08/2020, 15:29:20,-7.8987746,-5.0606766,1.3004956,0.1530961,-0.003591095,-0.06795501,9.470605937422805,0.167538632917567,jump
05/08/2020, 15:29:20,-7.8987746,-5.0606766,1.3004956,0.19219147,0.026952157,-0.052072518,9.470605937422805,0.20093662112865648,jump
05/08/2020, 15:29:20,-7.965835,-4.993616,1.336421,0.19219147,0.026952157,-0.052072518,9.496144042244245,0.20093662112865648,jump
05/08/2020, 15:29:20,-7.965835,-4.993616,1.336421,0.22151299,0.083151735,-0.04229868,9.496144042244245,0.24035680399469145,jump
05/08/2020, 15:29:20,-8.111932,-4.974456,1.3124708,0.22151299,0.083151735,-0.04229868,9.60579137628395,0.24035680399469145,jump
05/08/2020, 15:29:20,-8.111932,-4.974456,1.3124708,0.24228239,0.12713403,-0.033746567,9.60579137628395,0.2756857774503171,jump
05/08/2020, 15:29:20,-8.186177,-4.9361353,1.2933106,0.24228239,0.12713403,-0.033746567,9.646324795908807,0.2756857774503171,jump
05/08/2020, 15:29:21,-0.55324954,0.852627,-0.7041358,1.5800768,-3.0921247,-3.3702912,1.2364728090764825,4.839084716821287,jump
05/08/2020, 15:29:21,-0.55324954,0.852627,-0.7041358,1.2526531,-2.9394083,-3.1882534,1.2364728090764825,4.5137812055404725,jump
05/08/2020, 15:29:21,-0.07903565,0.58198977,-0.76161623,1.2526531,-2.9394083,-3.1882534,0.9617785618873052,4.5137812055404725,jump
05/08/2020, 15:29:21,-0.07903565,0.58198977,-0.76161623,0.9301164,-2.8270092,-2.9206946,0.9617785618873052,4.169838660442697,jump
05/08/2020, 15:29:21,-0.026345216,0.61073,-0.83586186,0.9301164,-2.8270092,-2.9206946,1.0355434543517823,4.169838660442697,jump
05/08/2020, 15:29:21,-0.026345216,0.61073,-0.83586186,0.6845487,-2.6804016,-2.5541756,1.0355434543517823,3.765232065366951,jump
05/08/2020, 15:29:21,0.23950197,0.61552006,-0.94603276,0.6845487,-2.6804016,-2.5541756,1.1537781956697672,3.765232065366951,jump
05/08/2020, 15:29:21,0.23950197,0.61552006,-0.94603276,0.4817415,-2.4983637,-2.1729958,1.1537781956697672,3.3460135948368666,jump
05/08/2020, 15:29:21,0.57719976,0.5891748,-0.977168,0.4817415,-2.4983637,-2.1729958,1.2787274374168958,3.3460135948368666,jump
05/08/2020, 15:29:21,0.57719976,0.5891748,-0.977168,0.27282566,-2.2674568,-1.841907,1.2787274374168958,2.934010144814322,jump
05/08/2020, 15:29:21,0.852627,0.7951465,-0.9963282,0.27282566,-2.2674568,-1.841907,1.5335907519353917,2.934010144814322,jump
05/08/2020, 15:29:21,0.852627,0.7951465,-0.9963282,0.106670365,-2.0072284,-1.565796,1.5335907519353917,2.547952409860558,jump
05/08/2020, 15:29:21,1.2382251,0.94603276,-1.0418335,0.106670365,-2.0072284,-1.565796,1.8744589820295434,2.547952409860558,jump
05/08/2020, 15:29:21,1.2382251,0.94603276,-1.0418335,-0.0069505256,-1.7445564,-1.3190066,1.8744589820295434,2.187076529985432,jump
05/08/2020, 15:29:21,1.5064673,0.86939216,-0.9364527,-0.0069505256,-1.7445564,-1.3190066,1.9754063405276236,2.187076529985432,jump
05/08/2020, 15:29:21,1.5064673,0.86939216,-0.9364527,-0.04360243,-1.4989886,-1.0575564,1.9754063405276236,1.8350186918722775,jump
05/08/2020, 15:29:21,1.6525636,0.6586304,-0.7783814,-0.04360243,-1.4989886,-1.0575564,1.9418130548964687,1.8350186918722775,jump
05/08/2020, 15:29:21,1.6525636,0.6586304,-0.7783814,-8.418765E-4,-1.261973,-0.74112827,1.9418130548964687,1.4635052876691224,jump
05/08/2020, 15:29:21,1.8633252,0.3520679,-0.5364844,-8.418765E-4,-1.261973,-0.74112827,1.9707227796544582,1.4635052876691224,jump
05/08/2020, 15:29:21,1.8633252,0.3520679,-0.5364844,0.0834575,-1.0066315,-0.3782744,1.9707227796544582,1.0785933654980955,jump
05/08/2020, 15:29:22,-9.620794,-3.3721876,1.4465919,-1.398501,-1.837408,-1.0209044,10.296793684946906,2.5247017557471017,jump
05/08/2020, 15:29:22,-9.620794,-3.3721876,1.4465919,-1.3178668,-1.7408912,-1.0624433,10.296793684946906,2.4282217392488064,jump
05/08/2020, 15:29:22,-9.472302,-3.3506324,1.5399976,-1.3178668,-1.7408912,-1.0624433,10.164784487093685,2.4282217392488064,jump
05/08/2020, 15:29:22,-9.472302,-3.3506324,1.5399976,-1.2164632,-1.6492615,-1.090543,10.164784487093685,2.321450032308357,jump
05/08/2020, 15:29:22,-9.369317,-3.391348,1.5591577,-1.2164632,-1.6492615,-1.090543,10.085450677820727,2.321450032308357,jump
05/08/2020, 15:29:22,-9.369317,-3.391348,1.5591577,-1.1236118,-1.5478579,-1.1003169,10.085450677820727,2.2065957387567523,jump
05/08/2020, 15:29:22,-9.285491,-3.4512234,1.477727,-1.1236118,-1.5478579,-1.1003169,10.015735766453634,2.2065957387567523,jump
05/08/2020, 15:29:22,-9.285491,-3.4512234,1.477727,-1.0295385,-1.4354588,-1.09543,10.015735766453634,2.078571234387319,jump
05/08/2020, 15:29:22,-9.14179,-3.4584084,1.3627661,-1.0295385,-1.4354588,-1.09543,9.868639797880508,2.078571234387319,jump
05/08/2020, 15:29:22,-9.14179,-3.4584084,1.3627661,-0.92446977,-1.3279464,-1.0783257,9.868639797880508,1.9444465741834474,jump
05/08/2020, 15:29:22,-8.986114,-3.4009278,1.4034815,-0.92446977,-1.3279464,-1.0783257,9.710113632484038,1.9444465741834474,jump
05/08/2020, 15:29:22,-8.986114,-3.4009278,1.4034815,-0.81817925,-1.2363167,-1.0453391,9.710113632484038,1.8140093908060098,jump
05/08/2020, 15:29:22,-8.859178,-3.403323,1.4585669,-0.81817925,-1.2363167,-1.0453391,9.6018254501459,1.8140093908060098,jump
05/08/2020, 15:29:22,-8.859178,-3.403323,1.4585669,-0.7302147,-1.1349131,-0.9989133,9.6018254501459,1.6790083388657744,jump
05/08/2020, 15:29:22,-8.832832,-3.391348,1.4322218,-0.7302147,-1.1349131,-0.9989133,9.569296043109956,1.6790083388657744,jump
05/08/2020, 15:29:22,-8.832832,-3.391348,1.4322218,-0.6532457,-1.0115184,-0.9476006,9.569296043109956,1.5322683257793388,jump
05/08/2020, 15:29:22,-8.727451,-3.4584084,1.453777,-0.6532457,-1.0115184,-0.9476006,9.499603276578483,1.5322683257793388,jump
05/08/2020, 15:29:22,-8.727451,-3.4584084,1.453777,-0.5677246,-0.88812363,-0.8999531,9.499603276578483,1.3859979871693966,jump
05/08/2020, 15:29:22,-8.5119,-3.396138,1.343606,-0.5677246,-0.88812363,-0.8999531,9.262368530325583,1.3859979871693966,jump
05/08/2020, 15:29:22,-8.5119,-3.396138,1.343606,-0.46632102,-0.7940504,-0.8486405,9.262368530325583,1.2522627624760168,jump
05/08/2020, 15:29:23,-8.770562,-3.2069314,2.3327491,-0.2818398,-0.21617211,-0.11804594,9.62542923759567,0.37429786686590366,jump
05/08/2020, 15:29:23,-8.758587,-3.2428565,2.42376,-0.2818398,-0.21617211,-0.11804594,9.649019366040257,0.37429786686590366,jump
05/08/2020, 15:29:23,-8.758587,-3.2428565,2.42376,-0.22319674,-0.16363773,-0.09727653,9.649019366040257,0.2933544209959969,jump
05/08/2020, 15:29:23,-8.787327,-3.2859669,2.5123756,-0.22319674,-0.16363773,-0.09727653,9.712194495929825,0.2933544209959969,jump
05/08/2020, 15:29:23,-8.787327,-3.2859669,2.5123756,-0.16333197,-0.11476853,-0.07772885,9.712194495929825,0.21422166565227108,jump
05/08/2020, 15:29:23,-8.804092,-3.302732,2.5027955,-0.16333197,-0.11476853,-0.07772885,9.730573817710669,0.21422166565227108,jump
05/08/2020, 15:29:23,-8.804092,-3.302732,2.5027955,-0.096136816,-0.07933836,-0.055737708,9.730573817710669,0.1365414013983888,jump
05/08/2020, 15:29:23,-8.787327,-3.307522,2.4812403,-0.096136816,-0.07933836,-0.055737708,9.711506987658233,0.1365414013983888,jump
05/08/2020, 15:29:23,-8.787327,-3.307522,2.4812403,-0.033828586,-0.05734722,-0.03252484,9.711506987658233,0.07410089058688503,jump
05/08/2020, 15:29:23,-8.746612,-3.2859669,2.4908204,-0.033828586,-0.05734722,-0.03252484,9.669797257041722,0.07410089058688503,jump
05/08/2020, 15:29:23,-8.746612,-3.2859669,2.4908204,0.027257916,-0.051238567,-0.011755427,9.669797257041722,0.05921633849878752,jump
05/08/2020, 15:29:23,-8.653206,-3.2620168,2.4956105,0.027257916,-0.051238567,-0.011755427,9.578454830002668,0.05921633849878752,jump
05/08/2020, 15:29:23,-8.653206,-3.2620168,2.4956105,0.08834442,-0.04635165,0.0077922526,9.578454830002668,0.10006962905200005,jump
05/08/2020, 15:29:23,-8.583751,-3.1422658,2.4716604,0.08834442,-0.04635165,0.0077922526,9.469092662685812,0.10006962905200005,jump
05/08/2020, 15:29:23,-8.583751,-3.1422658,2.4716604,0.14087881,-0.032912616,0.026118202,9.469092662685812,0.14701102093968169,jump
05/08/2020, 15:29:23,-8.475974,-3.1015503,2.5027955,0.14087881,-0.032912616,0.026118202,9.366201806184364,0.14701102093968169,jump
05/08/2020, 15:29:23,-8.475974,-3.1015503,2.5027955,0.17630897,-0.004812825,0.037113775,9.366201806184364,0.18023720503841512,jump
05/08/2020, 15:29:23,-8.428074,-3.0536501,2.5459058,0.17630897,-0.004812825,0.037113775,9.318736236631395,0.18023720503841512,jump
05/08/2020, 15:29:23,-8.428074,-3.0536501,2.5459058,0.19707838,0.033060804,0.045665886,9.318736236631395,0.2049836008399532,jump
05/08/2020, 15:29:23,-8.416099,-2.9985645,2.5147705,0.19707838,0.033060804,0.045665886,9.281496388687476,0.2049836008399532,jump
05/08/2020, 15:29:24,-7.702383,-3.8511915,2.3926246,0.33269042,0.28718063,-0.08505923,8.93773087541117,0.44765020137657074,jump
05/08/2020, 15:29:24,-7.6281376,-4.167334,2.8428884,0.33269042,0.28718063,-0.08505923,9.145336002669852,0.44765020137657074,jump
05/08/2020, 15:29:24,-7.6281376,-4.167334,2.8428884,0.3155862,0.2236507,-0.18524109,9.145336002669852,0.4288689183905196,jump
05/08/2020, 15:29:24,-7.6209526,-4.670288,4.0906935,0.3155862,0.2236507,-0.18524109,9.829765130883562,0.4288689183905196,jump
05/08/2020, 15:29:24,-7.6209526,-4.670288,4.0906935,0.37911615,0.083151735,-0.33551386,9.829765130883562,0.5130427027330301,jump
05/08/2020, 15:29:24,-7.5131764,-5.3863993,5.2043777,0.37911615,0.083151735,-0.33551386,10.60880125457905,0.5130427027330301,jump
05/08/2020, 15:29:24,-7.5131764,-5.3863993,5.2043777,0.5183934,-0.14164658,-0.53343415,10.60880125457905,0.757197109659297,jump
05/08/2020, 15:29:24,-7.3694754,-6.464158,7.0988383,0.5183934,-0.14164658,-0.53343415,12.103223214392658,0.757197109659297,jump
05/08/2020, 15:29:24,-7.3694754,-6.464158,7.0988383,0.72486573,-0.43974873,-0.78266704,12.103223214392658,1.1538531012306807,jump
05/08/2020, 15:29:24,-7.407796,-7.8915896,9.671089,0.72486573,-0.43974873,-0.78266704,14.514909336151403,1.1538531012306807,jump
05/08/2020, 15:29:24,-7.407796,-7.8915896,9.671089,0.9569945,-0.71585965,-1.0343435,14.514909336151403,1.5805568324800494,jump
05/08/2020, 15:29:24,-7.783814,-9.285491,12.693604,0.9569945,-0.71585965,-1.0343435,17.54809667752253,1.5805568324800494,jump
05/08/2020, 15:29:24,-7.783814,-9.285491,12.693604,1.1121541,-0.86979765,-1.2334855,17.54809667752253,1.874812291351354,jump
05/08/2020, 15:29:24,-8.4376545,-10.32972,16.070581,1.1121541,-0.86979765,-1.2334855,20.884460896170403,1.874812291351354,jump
05/08/2020, 15:29:24,-8.4376545,-10.32972,16.070581,1.1451409,-0.6975337,-1.3471063,20.884460896170403,1.9006831492978131,jump
05/08/2020, 15:29:24,-9.177715,-10.442286,17.981808,1.1451409,-0.6975337,-1.3471063,22.729214546064245,1.9006831492978131,jump
05/08/2020, 15:29:24,-9.177715,-10.442286,17.981808,1.2453227,-0.26137614,-1.4460665,22.729214546064245,1.9262020778146935,jump
05/08/2020, 15:29:24,-9.922566,-10.039923,17.811762,1.2453227,-0.26137614,-1.4460665,22.726993482713493,1.9262020778146935,jump
05/08/2020, 15:29:24,-9.922566,-10.039923,17.811762,1.4090346,0.19677263,-1.6769735,22.726993482713493,2.1991675684406125,jump
05/08/2020, 15:29:24,-11.019485,-10.684182,16.068186,1.4090346,0.19677263,-1.6769735,22.220877655649456,2.1991675684406125,jump
05/08/2020, 15:29:25,-10.765614,0.37122804,5.0822315,-3.430238,0.24686356,-0.9952481,11.91072301464109,3.58022250020993,jump
05/08/2020, 15:29:25,-10.324929,-0.1341211,5.142107,-3.430238,0.24686356,-0.9952481,11.53531173087976,3.58022250020993,jump
05/08/2020, 15:29:25,-10.324929,-0.1341211,5.142107,-3.7393355,0.08803865,-0.87551856,11.53531173087976,3.8414728701391847,jump
05/08/2020, 15:29:25,-9.953702,-0.8382569,5.134922,-3.7393355,0.08803865,-0.87551856,11.231486180326604,3.8414728701391847,jump
05/08/2020, 15:29:25,-9.953702,-0.8382569,5.134922,-3.9665775,-0.07445144,-0.77411497,11.231486180326604,4.04209528570756,jump
05/08/2020, 15:29:25,-9.637559,-1.5447876,5.2977834,-3.9665775,-0.07445144,-0.77411497,11.105648104496597,4.04209528570756,jump
05/08/2020, 15:29:25,-9.637559,-1.5447876,5.2977834,-4.0594287,-0.24305017,-0.66415924,11.105648104496597,4.12057546766929,jump
05/08/2020, 15:29:25,-9.565708,-2.2321582,5.589976,-4.0594287,-0.24305017,-0.66415924,11.301908360630275,4.12057546766929,jump
05/08/2020, 15:29:25,-9.565708,-2.2321582,5.589976,-4.020334,-0.3823274,-0.5395428,11.301908360630275,4.074354460645247,jump
05/08/2020, 15:29:25,-9.4507475,-2.912344,5.592371,-4.020334,-0.3823274,-0.5395428,11.361029391093203,4.074354460645247,jump
05/08/2020, 15:29:25,-9.4507475,-2.912344,5.592371,-3.8554,-0.48006582,-0.4100394,11.361029391093203,3.9067512486003904,jump
05/08/2020, 15:29:25,-9.369317,-3.3745828,5.489385,-3.8554,-0.48006582,-0.4100394,11.371247073683689,3.9067512486003904,jump
05/08/2020, 15:29:25,-9.369317,-3.3745828,5.489385,-3.5682933,-0.57658243,-0.3000837,11.371247073683689,3.6270118329663252,jump
05/08/2020, 15:29:25,-9.266331,-3.7218604,5.391189,-3.5682933,-0.57658243,-0.3000837,11.348217912540115,3.6270118329663252,jump
05/08/2020, 15:29:25,-9.266331,-3.7218604,5.391189,-3.1736746,-0.7109728,-0.2182278,11.348217912540115,3.259649680289834,jump
05/08/2020, 15:29:25,-9.038804,-3.911067,5.1924024,-3.1736746,-0.7109728,-0.2182278,11.133618736845493,3.259649680289834,jump
05/08/2020, 15:29:25,-9.038804,-3.911067,5.1924024,-2.7033086,-0.88812363,-0.16202822,11.133618736845493,2.8500691256696435,jump
05/08/2020, 15:29:25,-8.768167,-4.016448,5.142107,-2.7033086,-0.88812363,-0.16202822,10.929495126271428,2.8500691256696435,jump
05/08/2020, 15:29:25,-8.768167,-4.016448,5.142107,-2.1877384,-1.0689397,-0.114380755,10.929495126271428,2.4376042330653633,jump
05/08/2020, 15:29:25,-8.48316,-3.9613624,5.233118,-2.1877384,-1.0689397,-0.114380755,10.725759659347457,2.4376042330653633,jump
05/08/2020, 15:29:26,-9.520203,-3.7458107,3.9781277,-1.0234299,0.20288129,-0.32329658,10.976832718873018,1.0922866817015096,jump
05/08/2020, 15:29:26,-9.347761,-3.9877076,3.784131,-1.0234299,0.20288129,-0.32329658,10.844450120768041,1.0922866817015096,jump
05/08/2020, 15:29:26,-9.347761,-3.9877076,3.784131,-1.0319821,0.14912516,-0.36239192,10.844450120768041,1.1038809703918517,jump
05/08/2020, 15:29:26,-9.326206,-4.157754,3.539839,-1.0319821,0.14912516,-0.36239192,10.807196696470925,1.1038809703918517,jump
05/08/2020, 15:29:26,-9.326206,-4.157754,3.539839,-1.0246516,0.0855952,-0.37583095,10.807196696470925,1.0947540530024076,jump
05/08/2020, 15:29:26,-9.287886,-4.24158,3.3338673,-1.0246516,0.0855952,-0.37583095,10.741065699915662,1.0947540530024076,jump
05/08/2020, 15:29:26,-9.287886,-4.24158,3.3338673,-1.0002171,0.0135131255,-0.37216577,10.741065699915662,1.0672976022571847,jump
05/08/2020, 15:29:26,-9.287886,-4.3301954,3.1255007,-1.0002171,0.0135131255,-0.37216577,10.713737306502395,1.0672976022571847,jump
05/08/2020, 15:29:26,-9.287886,-4.3301954,3.1255007,-0.95745647,-0.0768949,-0.36239192,10.713737306502395,1.0266273032822926,jump
05/08/2020, 15:29:26,-9.2328005,-4.4762917,3.0919704,-0.95745647,-0.0768949,-0.36239192,10.716439380258226,1.0266273032822926,jump
05/08/2020, 15:29:26,-9.2328005,-4.4762917,3.0919704,-0.88781786,-0.19051579,-0.3489529,10.716439380258226,0.9727717799331529,jump
05/08/2020, 15:29:26,-9.093889,-4.634363,2.9626393,-0.88781786,-0.19051579,-0.3489529,10.627952544486119,0.9727717799331529,jump
05/08/2020, 15:29:26,-9.093889,-4.634363,2.9626393,-0.78641427,-0.31024534,-0.33429214,10.627952544486119,0.909093395864598,jump
05/08/2020, 15:29:26,-8.811277,-4.761299,2.9482691,-0.78641427,-0.31024534,-0.33429214,10.440348151655728,0.909093395864598,jump
05/08/2020, 15:29:26,-8.811277,-4.761299,2.9482691,-0.6605761,-0.42020103,-0.3159662,10.440348151655728,0.8442537128239436,jump
05/08/2020, 15:29:26,-8.557405,-4.790039,2.914739,-0.6605761,-0.42020103,-0.3159662,10.230804731126096,0.8442537128239436,jump
05/08/2020, 15:29:26,-8.557405,-4.790039,2.914739,-0.5041947,-0.5081656,-0.29397506,10.230804731126096,0.7738642517815429,jump
05/08/2020, 15:29:26,-8.303533,-4.8115945,2.9027638,-0.5041947,-0.5081656,-0.29397506,10.026272142590031,0.7738642517815429,jump
05/08/2020, 15:29:26,-8.303533,-4.8115945,2.9027638,-0.32215688,-0.56069994,-0.26954046,10.026272142590031,0.7005865645072937,jump
05/08/2020, 15:29:26,-8.049661,-4.749324,2.823728,-0.32215688,-0.56069994,-0.26954046,9.763531860225573,0.7005865645072937,jump
05/08/2020, 15:29:27,-9.168135,-2.8333082,2.8333082,0.35345984,0.033060804,0.032226853,10.005496720289843,0.35646239888107384,jump
05/08/2020, 15:29:27,-9.273516,-2.8500733,2.802173,0.35345984,0.033060804,0.032226853,10.098177283493134,0.35646239888107384,jump
05/08/2020, 15:29:27,-9.273516,-2.8500733,2.802173,0.30581236,-0.008478015,0.010235712,10.098177283493134,0.3061010378318134,jump
05/08/2020, 15:29:27,-9.297466,-2.823728,2.7135572,0.30581236,-0.008478015,0.010235712,10.08859318242351,0.3061010378318134,jump
05/08/2020, 15:29:27,-9.297466,-2.823728,2.7135572,0.25938663,-0.06101241,-0.012977159,10.08859318242351,0.26678145364654315,jump
05/08/2020, 15:29:27,-9.314231,-2.818938,2.6560767,0.25938663,-0.06101241,-0.012977159,10.08742050420539,0.26678145364654315,jump
05/08/2020, 15:29:27,-9.314231,-2.818938,2.6560767,0.21662606,-0.12698582,-0.03619003,10.08742050420539,0.2536966050083879,jump
05/08/2020, 15:29:27,-9.283096,-2.823728,2.6776319,0.21662606,-0.12698582,-0.03619003,10.065735433231314,0.2536966050083879,jump
05/08/2020, 15:29:27,-9.283096,-2.823728,2.6776319,0.18241762,-0.18929406,-0.058181167,10.065735433231314,0.2692461219183784,jump
05/08/2020, 15:29:27,-9.328602,-2.8452833,2.692002,0.18241762,-0.18929406,-0.058181167,10.11757501590852,0.2692461219183784,jump
05/08/2020, 15:29:27,-9.328602,-2.8452833,2.692002,0.14820918,-0.23694153,-0.0838375,10.11757501590852,0.2917807023949179,jump
05/08/2020, 15:29:27,-9.263936,-2.8428884,2.668052,0.14820918,-0.23694153,-0.0838375,10.05092167198136,0.2917807023949179,jump
05/08/2020, 15:29:27,-9.263936,-2.8428884,2.668052,0.11888767,-0.26748478,-0.11193729,10.05092167198136,0.31338848929075525,jump
05/08/2020, 15:29:27,-9.235196,-2.8428884,2.6656568,0.11888767,-0.26748478,-0.11193729,10.023801058435609,0.31338848929075525,jump
05/08/2020, 15:29:27,-9.235196,-2.8428884,2.6656568,0.09445307,-0.29802805,-0.13881536,10.023801058435609,0.34206988346519873,jump
05/08/2020, 15:29:27,-9.21364,-2.8548634,2.6057813,0.09445307,-0.29802805,-0.13881536,9.991571813689456,0.34206988346519873,jump
05/08/2020, 15:29:27,-9.21364,-2.8548634,2.6057813,0.08101404,-0.33101475,-0.15958476,9.991571813689456,0.37629953009238204,jump
05/08/2020, 15:29:27,-9.18011,-2.8812087,2.5890162,0.08101404,-0.33101475,-0.15958476,9.963874116754523,0.37629953009238204,jump
05/08/2020, 15:29:27,-9.18011,-2.8812087,2.5890162,0.072461925,-0.361558,-0.17424552,9.963874116754523,0.40784361308648975,jump
05/08/2020, 15:29:27,-9.192085,-2.9171338,2.4932153,0.072461925,-0.361558,-0.17424552,9.960934887769733,0.40784361308648975,jump
05/08/2020, 15:29:28,-8.811277,-4.174519,1.6070582,-0.20975772,0.111251526,-0.008090238,9.881692900921617,0.23757241652368002,jump
05/08/2020, 15:29:28,-8.890313,-4.3158255,1.5064673,-0.20975772,0.111251526,-0.008090238,9.99667250405889,0.23757241652368002,jump
05/08/2020, 15:29:28,-8.890313,-4.3158255,1.5064673,-0.24030095,0.07948654,-0.004425048,9.99667250405889,0.2531447007540548,jump
05/08/2020, 15:29:28,-8.962164,-4.3301954,1.4250367,-0.24030095,0.07948654,-0.004425048,10.054934319253162,0.2531447007540548,jump
05/08/2020, 15:29:28,-8.962164,-4.3301954,1.4250367,-0.2500748,0.008626206,0.0077922526,10.054934319253162,0.2503448384485157,jump
05/08/2020, 15:29:28,-8.911868,-4.3709106,1.3891114,-0.2500748,0.008626206,0.0077922526,10.022768244995373,0.2503448384485157,jump
05/08/2020, 15:29:28,-8.911868,-4.3709106,1.3891114,-0.25129655,-0.05979068,0.020009553,10.022768244995373,0.2590854366567789,jump
05/08/2020, 15:29:28,-8.737032,-4.399651,1.4322218,-0.25129655,-0.05979068,0.020009553,9.886552261936774,0.2590854366567789,jump
05/08/2020, 15:29:28,-8.737032,-4.399651,1.4322218,-0.24274442,-0.098886035,0.018787822,9.886552261936774,0.2627856193524324,jump
05/08/2020, 15:29:28,-8.523875,-4.414021,1.477727,-0.24274442,-0.098886035,0.018787822,9.71203932347119,0.2627856193524324,jump
05/08/2020, 15:29:28,-8.523875,-4.414021,1.477727,-0.21953155,-0.09522085,0.0041270624,9.71203932347119,0.239328528593278,jump
05/08/2020, 15:29:28,-8.382568,-4.471502,1.583108,-0.21953155,-0.09522085,0.0041270624,9.631615215870404,0.239328528593278,jump
05/08/2020, 15:29:28,-8.382568,-4.471502,1.583108,-0.18287966,-0.06101241,-0.012977159,9.631615215870404,0.19322497135783082,jump
05/08/2020, 15:29:28,-8.375383,-4.4547367,1.710044,-0.18287966,-0.06101241,-0.012977159,9.639293357759092,0.19322497135783082,jump
05/08/2020, 15:29:28,-8.375383,-4.4547367,1.710044,-0.14134084,-0.0011476349,-0.028859649,9.639293357759092,0.14426166701018572,jump
05/08/2020, 15:29:28,-8.490345,-4.495452,1.6789087,-0.14134084,-0.0011476349,-0.028859649,9.752629425518979,0.14426166701018572,jump
05/08/2020, 15:29:28,-8.490345,-4.495452,1.6789087,-0.103467196,0.048943296,-0.038633488,9.752629425518979,0.1208033663843036,jump
05/08/2020, 15:29:28,-8.693921,-4.509822,1.6190332,-0.103467196,0.048943296,-0.038633488,9.9269343686517,0.1208033663843036,jump
05/08/2020, 15:29:28,-8.693921,-4.509822,1.6190332,-0.074145675,0.06726924,-0.043520406,9.9269343686517,0.10916390383450367,jump
05/08/2020, 15:29:28,-8.909473,-4.4691067,1.5016773,-0.074145675,0.06726924,-0.043520406,10.08001318004764,0.10916390383450367,jump
05/08/2020, 15:29:29,-9.0004835,-3.551814,-0.244292,0.5648191,0.16134246,-0.21334088,9.679037416166237,0.6249530636503445,jump
05/08/2020, 15:29:29,-9.19927,-3.5039136,-0.4406836,0.5648191,0.16134246,-0.21334088,9.853841177173564,0.6249530636503445,jump
05/08/2020, 15:29:29,-9.19927,-3.5039136,-0.4406836,0.5269455,0.13079922,-0.17668898,9.853841177173564,0.5709631888188791,jump
05/08/2020, 15:29:29,-9.278306,-3.4679885,-0.6586304,0.5269455,0.13079922,-0.17668898,9.927119446572684,0.5709631888188791,jump
05/08/2020, 15:29:29,-9.278306,-3.4679885,-0.6586304,0.49395877,0.055051945,-0.1363719,9.927119446572684,0.5153865328736444,jump
05/08/2020, 15:29:29,-9.204061,-3.4488282,-0.7209009,0.49395877,0.055051945,-0.1363719,9.855396738965888,0.5153865328736444,jump
05/08/2020, 15:29:29,-9.204061,-3.4488282,-0.7209009,0.45975032,-0.024360506,-0.099719994,9.855396738965888,0.471070984321893,jump
05/08/2020, 15:29:29,-8.978929,-3.3865578,-0.7065308,0.45975032,-0.024360506,-0.099719994,9.62232393076548,0.471070984321893,jump
05/08/2020, 15:29:29,-8.978929,-3.3865578,-0.7065308,0.42432016,-0.07200798,-0.06917674,9.62232393076548,0.43591073568468225,jump
05/08/2020, 15:29:29,-8.657996,-3.319497,-0.5748047,0.42432016,-0.07200798,-0.06917674,9.290336879551901,0.43591073568468225,jump
05/08/2020, 15:29:29,-8.657996,-3.319497,-0.5748047,0.39499864,-0.07200798,-0.043520406,9.290336879551901,0.40386024793929187,jump
05/08/2020, 15:29:29,-8.411309,-3.3362625,-0.488584,0.39499864,-0.07200798,-0.043520406,9.061980177505504,0.40386024793929187,jump
05/08/2020, 15:29:29,-8.411309,-3.3362625,-0.488584,0.37545097,-0.034134347,-0.025194459,9.061980177505504,0.37784036883515315,jump
05/08/2020, 15:29:29,-8.320298,-3.3745828,-0.31135255,0.37545097,-0.034134347,-0.025194459,8.983991947760863,0.37784036883515315,jump
05/08/2020, 15:29:29,-8.320298,-3.3745828,-0.31135255,0.36567712,0.022065235,-0.005646778,8.983991947760863,0.3663857469358141,jump
05/08/2020, 15:29:29,-8.353828,-3.4248781,-0.25147706,0.36567712,0.022065235,-0.005646778,9.032135976258678,0.3663857469358141,jump
05/08/2020, 15:29:29,-8.353828,-3.4248781,-0.25147706,0.36934233,0.07459962,0.015122632,9.032135976258678,0.37710416656348156,jump
05/08/2020, 15:29:29,-8.50711,-3.5015187,-0.18681154,0.36934233,0.07459962,0.015122632,9.201437192235774,0.37710416656348156,jump
05/08/2020, 15:29:29,-8.50711,-3.5015187,-0.18681154,0.38400307,0.09536903,0.043222424,9.201437192235774,0.3980223492657989,jump
05/08/2020, 15:29:29,-8.650811,-3.65959,-0.1580713,0.38400307,0.09536903,0.043222424,9.394366390726912,0.3980223492657989,jump
05/08/2020, 15:29:30,-8.741821,-3.3554225,0.20597169,1.3174049,0.4728836,0.10064373,9.365934225595412,1.4033187993744247,jump
05/08/2020, 15:29:30,-8.720266,-3.2332766,0.12454102,1.3174049,0.4728836,0.10064373,9.301216756572966,1.4033187993744247,jump
05/08/2020, 15:29:30,-8.720266,-3.2332766,0.12454102,1.3406177,0.49243128,0.1360739,9.301216756572966,1.4346638549932795,jump
05/08/2020, 15:29:30,-8.667576,-3.0776002,-0.011975098,1.3406177,0.49243128,0.1360739,9.197751764455475,1.4346638549932795,jump
05/08/2020, 15:29:30,-8.667576,-3.0776002,-0.011975098,1.334509,0.5205311,0.15684332,9.197751764455475,1.4409950669382823,jump
05/08/2020, 15:29:30,-8.6627865,-2.9674294,-0.09580079,1.334509,0.5205311,0.15684332,9.157438762835673,1.4409950669382823,jump
05/08/2020, 15:29:30,-8.6627865,-2.9674294,-0.09580079,1.3198483,0.5498526,0.16661716,9.157438762835673,1.4394786212827848,jump
05/08/2020, 15:29:30,-8.677156,-2.8859987,-0.12454102,1.3198483,0.5498526,0.16661716,9.145356370386358,1.4394786212827848,jump
05/08/2020, 15:29:30,-8.677156,-2.8859987,-0.12454102,1.2966354,0.55840474,0.17028235,9.145356370386358,1.4219969300213784,jump
05/08/2020, 15:29:30,-8.710687,-2.8285182,-0.07903565,1.2966354,0.55840474,0.17028235,9.158756688102654,1.4219969300213784,jump
05/08/2020, 15:29:30,-8.710687,-2.8285182,-0.07903565,1.2673138,0.5498526,0.17150408,9.158756688102654,1.3920617464318588,jump
05/08/2020, 15:29:30,-8.646021,-2.8476784,0.05508545,1.2673138,0.5498526,0.17150408,9.103075525621023,1.3920617464318588,jump
05/08/2020, 15:29:30,-8.646021,-2.8476784,0.05508545,1.2379924,0.54252225,0.17394753,9.103075525621023,1.3627961450750365,jump
05/08/2020, 15:29:30,-8.576566,-2.811753,0.21555176,1.2379924,0.54252225,0.17394753,9.028283204779305,1.3627961450750365,jump
05/08/2020, 15:29:30,-8.576566,-2.811753,0.21555176,1.2098926,0.5535178,0.17516926,9.028283204779305,1.3419785476208446,jump
05/08/2020, 15:29:30,-8.452024,-2.818938,0.34488282,1.2098926,0.5535178,0.17516926,8.91639350688468,1.3419785476208446,jump
05/08/2020, 15:29:30,-8.452024,-2.818938,0.34488282,1.1805711,0.57917416,0.16906062,8.91639350688468,1.325810044593148,jump
05/08/2020, 15:29:30,-8.279583,-2.8452833,0.4143384,1.1805711,0.57917416,0.16906062,8.7646339046022,1.325810044593148,jump
05/08/2020, 15:29:30,-8.279583,-2.8452833,0.4143384,1.140254,0.60727394,0.16173023,8.7646339046022,1.3019667939795954,jump
05/08/2020, 15:29:30,-8.234077,-2.8357031,0.45984375,1.140254,0.60727394,0.16173023,8.720819918913792,1.3019667939795954,jump
05/08/2020, 15:29:31,-9.8938265,-1.84177,-3.7290456,6.738221,10.304146,2.6357336,10.732460144051666,12.590716305465568,jump
05/08/2020, 15:29:31,-16.180752,-3.1159205,-4.0116577,6.738221,10.304146,2.6357336,16.95933628672181,12.590716305465568,jump
05/08/2020, 15:29:31,-16.180752,-3.1159205,-4.0116577,5.366218,10.052469,1.4030079,16.95933628672181,11.481152631706637,jump
05/08/2020, 15:29:31,-23.830446,-6.3707523,-3.293152,5.366218,10.052469,1.4030079,24.886170942440476,11.481152631706637,jump
05/08/2020, 15:29:31,-23.830446,-6.3707523,-3.293152,4.3033133,9.435495,1.1183448,24.886170942440476,10.430617097292702,jump
05/08/2020, 15:29:31,-29.755724,-8.672366,-1.9950514,4.3033133,9.435495,1.1183448,31.057901933520444,10.430617097292702,jump
05/08/2020, 15:29:31,-29.755724,-8.672366,-1.9950514,3.9111378,8.3603735,1.2979391,31.057901933520444,9.320809506687178,jump
05/08/2020, 15:29:31,-30.629906,-8.274793,0.32572266,3.9111378,8.3603735,1.2979391,31.729629878686026,9.320809506687178,jump
05/08/2020, 15:29:31,-30.629906,-8.274793,0.32572266,4.1127234,7.011583,1.2111963,31.729629878686026,8.218502535464092,jump
05/08/2020, 15:29:31,-27.212214,-6.1791506,2.7710378,4.1127234,7.011583,1.2111963,28.042202426763012,8.218502535464092,jump
05/08/2020, 15:29:31,-27.212214,-6.1791506,2.7710378,4.234896,6.051303,0.78114736,28.042202426763012,7.427166605574792,jump
05/08/2020, 15:29:31,-23.753805,-4.1002736,4.145779,4.234896,6.051303,0.78114736,24.459006273607383,7.427166605574792,jump
05/08/2020, 15:29:31,-23.753805,-4.1002736,4.145779,3.8537164,5.6921144,0.29978573,24.459006273607383,6.880491783475098,jump
05/08/2020, 15:29:31,-22.02939,-2.1100123,4.526587,3.8537164,5.6921144,0.29978573,22.58840809719483,6.880491783475098,jump
05/08/2020, 15:29:31,-22.02939,-2.1100123,4.526587,3.041266,5.5222936,-0.10460691,22.58840809719483,6.3052333438349555,jump
05/08/2020, 15:29:31,-21.389921,-0.6993457,4.1888895,3.041266,5.5222936,-0.10460691,21.807443869823942,6.3052333438349555,jump
05/08/2020, 15:29:31,-21.389921,-0.6993457,4.1888895,2.0235648,5.209531,-0.44913477,21.807443869823942,5.606759141813356,jump
05/08/2020, 15:29:31,-21.198318,-0.05508545,3.8511915,2.0235648,5.209531,-0.44913477,21.545380409189217,5.606759141813356,jump
05/08/2020, 15:29:31,-21.198318,-0.05508545,3.8511915,0.98631597,4.7306128,-0.724024,21.545380409189217,4.88627946085261,jump
05/08/2020, 15:29:31,-20.906126,-0.09580079,3.7146754,0.98631597,4.7306128,-0.724024,21.233796094360102,4.88627946085261,jump
05/08/2020, 15:29:32,-8.990904,-3.2620168,1.8513502,1.1255932,2.5669289,2.0016558,9.741899356227938,3.444228479548358,jump
05/08/2020, 15:29:32,-9.520203,-3.2811768,2.0142114,1.1255932,2.5669289,2.0016558,10.269246666744484,3.444228479548358,jump
05/08/2020, 15:29:32,-9.520203,-3.2811768,2.0142114,1.2489879,2.6500065,2.0541902,10.269246666744484,3.5780165789204164,jump
05/08/2020, 15:29:32,-9.972861,-3.4416432,2.3135889,1.2489879,2.6500065,2.0541902,10.800720526405845,3.5780165789204164,jump
05/08/2020, 15:29:32,-9.972861,-3.4416432,2.3135889,1.3894869,2.7013192,2.1006157,10.800720526405845,3.6932893025386844,jump
05/08/2020, 15:29:32,-10.461446,-3.4943337,2.8333082,1.3894869,2.7013192,2.1006157,11.387706186327444,3.6932893025386844,jump
05/08/2020, 15:29:32,-10.461446,-3.4943337,2.8333082,1.5800768,2.7172017,2.131159,11.387706186327444,3.7975869757191316,jump
05/08/2020, 15:29:32,-10.859019,-3.6308498,3.5063088,1.5800768,2.7172017,2.131159,11.974789001027151,3.7975869757191316,jump
05/08/2020, 15:29:32,-10.859019,-3.6308498,3.5063088,1.7731102,2.7159798,2.1421547,11.974789001027151,3.8870673640766307,jump
05/08/2020, 15:29:32,-11.129656,-3.7985013,3.7434156,1.7731102,2.7159798,2.1421547,12.34143472829572,3.8870673640766307,jump
05/08/2020, 15:29:32,-11.129656,-3.7985013,3.7434156,1.945374,2.7184234,2.1323807,12.34143472829572,3.965016166198244,jump
05/08/2020, 15:29:32,-11.290123,-3.906277,3.911067,1.945374,2.7184234,2.1323807,12.570692969211658,3.965016166198244,jump
05/08/2020, 15:29:32,-11.290123,-3.906277,3.911067,2.1029773,2.7159798,2.122607,12.570692969211658,4.037885612695884,jump
05/08/2020, 15:29:32,-11.261382,-3.8416114,3.8368216,2.1029773,2.7159798,2.122607,12.501916035484827,4.037885612695884,jump
05/08/2020, 15:29:32,-11.261382,-3.8416114,3.8368216,2.2214851,2.6915452,2.1164982,12.501916035484827,4.081540984220506,jump
05/08/2020, 15:29:32,-11.165582,-3.5925295,3.5613942,2.2214851,2.6915452,2.1164982,12.258059062693425,4.081540984220506,jump
05/08/2020, 15:29:32,-11.165582,-3.5925295,3.5613942,2.2715762,2.6524498,2.104281,12.258059062693425,4.077198397969419,jump
05/08/2020, 15:29:32,-11.0051155,-3.2524366,3.3290772,2.2715762,2.6524498,2.104281,11.948793526787416,4.077198397969419,jump
05/08/2020, 15:29:32,-11.0051155,-3.2524366,3.3290772,2.2324808,2.6206849,2.059077,11.948793526787416,4.011453315527758,jump
05/08/2020, 15:29:32,-10.880574,-2.8572583,3.05844,2.2324808,2.6206849,2.059077,11.657824653524562,4.011453315527758,jump
05/08/2020, 15:29:33,-9.960887,-2.327959,0.7759864,-1.0735209,-0.04635165,1.4824203,10.25869471109188,1.8308920274977403,jump
05/08/2020, 15:29:33,-9.915381,-2.5530908,1.0873389,-1.0735209,-0.04635165,1.4824203,10.2963764285458,1.8308920274977403,jump
05/08/2020, 15:29:33,-9.915381,-2.5530908,1.0873389,-1.217685,-0.010921475,1.4653162,10.2963764285458,1.9052631042015742,jump
05/08/2020, 15:29:33,-10.015972,-2.8692336,1.2310401,-1.217685,-0.010921475,1.4653162,10.491313508528979,1.9052631042015742,jump
05/08/2020, 15:29:33,-10.015972,-2.8692336,1.2310401,-1.3251972,0.025730425,1.443325,10.491313508528979,1.9595910045840017,jump
05/08/2020, 15:29:33,-10.28661,-3.1853762,1.3052857,-1.3251972,0.025730425,1.443325,10.847337468242076,1.9595910045840017,jump
05/08/2020, 15:29:33,-10.28661,-3.1853762,1.3052857,-1.4058315,0.028173886,1.4311076,10.847337468242076,2.0062963213574085,jump
05/08/2020, 15:29:33,-10.494976,-3.3937428,1.2549903,-1.4058315,0.028173886,1.4311076,11.101216739639895,2.0062963213574085,jump
05/08/2020, 15:29:33,-10.494976,-3.3937428,1.2549903,-1.4583658,-0.009699745,1.4347728,11.101216739639895,2.0458489715242183,jump
05/08/2020, 15:29:33,-10.641072,-3.6045046,1.1687696,-1.4583658,-0.009699745,1.4347728,11.295613963085575,2.0458489715242183,jump
05/08/2020, 15:29:33,-10.641072,-3.6045046,1.1687696,-1.4950176,-0.07567317,1.4530988,11.295613963085575,2.086216729549813,jump
05/08/2020, 15:29:33,-10.571617,-3.7242556,1.1400293,-1.4950176,-0.07567317,1.4530988,11.266269790339923,2.086216729549813,jump
05/08/2020, 15:29:33,-10.571617,-3.7242556,1.1400293,-1.5218958,-0.14409004,1.4604292,11.266269790339923,2.114185915917948,jump
05/08/2020, 15:29:33,-10.289004,-3.7577858,1.1136842,-1.5218958,-0.14409004,1.4604292,11.010216008858416,2.114185915917948,jump
05/08/2020, 15:29:33,-10.289004,-3.7577858,1.1136842,-1.5377783,-0.18685059,1.4518771,11.010216008858416,2.123116171812652,jump
05/08/2020, 15:29:33,-10.078242,-3.791316,1.1400293,-1.5377783,-0.18685059,1.4518771,10.827959733236348,2.123116171812652,jump
05/08/2020, 15:29:33,-10.078242,-3.791316,1.1400293,-1.5365565,-0.18929406,1.4311076,10.827959733236348,2.108294841968545,jump
05/08/2020, 15:29:33,-9.766891,-3.9134622,1.2166699,-1.5365565,-0.18929406,1.4311076,10.591865856592424,2.108294841968545,jump
05/08/2020, 15:29:33,-9.766891,-3.9134622,1.2166699,-1.5157871,-0.15630734,1.4091165,10.591865856592424,2.0754883571695144,jump
05/08/2020, 15:29:33,-9.613608,-3.9134622,1.1951149,-1.5157871,-0.15630734,1.4091165,10.448203257291127,2.0754883571695144,jump
05/08/2020, 15:29:34,-9.501043,-3.4248781,1.5399976,-0.7778622,-0.40309682,-0.51510817,10.216222728671571,1.0163134671940597,jump
05/08/2020, 15:29:34,-9.558523,-3.3506324,1.4130616,-0.7778622,-0.40309682,-0.51510817,10.226868834590377,1.0163134671940597,jump
05/08/2020, 15:29:34,-9.558523,-3.3506324,1.4130616,-0.68623245,-0.40187508,-0.511443,10.226868834590377,0.9455117728669389,jump
05/08/2020, 15:29:34,-9.611214,-3.1925611,1.3507911,-0.68623245,-0.40187508,-0.511443,10.217265375916034,0.9455117728669389,jump
05/08/2020, 15:29:34,-9.611214,-3.1925611,1.3507911,-0.58605057,-0.42753142,-0.48456493,10.217265375916034,0.872376958826139,jump
05/08/2020, 15:29:34,-9.477093,-2.9889846,1.1759547,-0.58605057,-0.42753142,-0.48456493,10.006607075399826,0.872376958826139,jump
05/08/2020, 15:29:34,-9.477093,-2.9889846,1.1759547,-0.54939866,-0.43730527,-0.46868244,10.006607075399826,0.8442381279843655,jump
05/08/2020, 15:29:34,-9.354947,-2.7135572,1.0346485,-0.54939866,-0.43730527,-0.46868244,9.795352243224317,0.8442381279843655,jump
05/08/2020, 15:29:34,-9.354947,-2.7135572,1.0346485,-0.5713898,-0.39943165,-0.47234765,9.795352243224317,0.8421070219338674,jump
05/08/2020, 15:29:34,-9.369317,-2.4093897,1.0825489,-0.5713898,-0.39943165,-0.47234765,9.734535068056278,0.8421070219338674,jump
05/08/2020, 15:29:34,-9.369317,-2.4093897,1.0825489,-0.6410284,-0.32246265,-0.5028909,9.734535068056278,0.8762413004320262,jump
05/08/2020, 15:29:34,-9.565708,-2.2106032,1.0562036,-0.6410284,-0.32246265,-0.5028909,9.874467344349307,0.8762413004320262,jump
05/08/2020, 15:29:34,-9.565708,-2.2106032,1.0562036,-0.75587106,-0.23327634,-0.55053836,9.874467344349307,0.9637693666941983,jump
05/08/2020, 15:29:34,-9.972861,-2.2752686,1.0729688,-0.75587106,-0.23327634,-0.55053836,10.28523560439859,0.9637693666941983,jump
05/08/2020, 15:29:34,-9.972861,-2.2752686,1.0729688,-0.8841527,-0.1709681,-0.59574234,10.28523560439859,1.079752308723375,jump
05/08/2020, 15:29:34,-10.317744,-2.5099807,1.092129,-0.8841527,-0.1709681,-0.59574234,10.674670732862216,1.079752308723375,jump
05/08/2020, 15:29:34,-10.317744,-2.5099807,1.092129,-0.99410844,-0.17952022,-0.6226204,10.674670732862216,1.1866487533805592,jump
05/08/2020, 15:29:34,-10.638678,-2.8452833,1.1352394,-0.99410844,-0.17952022,-0.6226204,11.07094694732204,1.1866487533805592,jump
05/08/2020, 15:29:34,-10.638678,-2.8452833,1.1352394,-1.0784078,-0.25893268,-0.6226204,11.07094694732204,1.2718748390842776,jump
05/08/2020, 15:29:34,-10.6746025,-3.187771,1.2430152,-1.0784078,-0.25893268,-0.6226204,11.209554402351566,1.2718748390842776,jump
05/08/2020, 15:29:35,-9.256751,-5.6690116,0.32332766,0.43165055,-0.041464727,0.30100748,10.859542965149453,0.5278702708905237,jump
05/08/2020, 15:29:35,-9.031619,-5.494175,0.3305127,0.43165055,-0.041464727,0.30100748,10.576641251769983,0.5278702708905237,jump
05/08/2020, 15:29:35,-9.031619,-5.494175,0.3305127,0.4866284,-0.037799537,0.32055515,10.576641251769983,0.5839448793018496,jump
05/08/2020, 15:29:35,-8.717872,-5.3384986,0.33769777,0.4866284,-0.037799537,0.32055515,10.22814222581709,0.5839448793018496,jump
05/08/2020, 15:29:35,-8.717872,-5.3384986,0.33769777,0.53794104,-0.043908186,0.31200305,10.22814222581709,0.6234215192981288,jump
05/08/2020, 15:29:35,-8.377779,-5.1876125,0.35925296,0.53794104,-0.043908186,0.31200305,9.860404027055594,0.6234215192981288,jump
05/08/2020, 15:29:35,-8.377779,-5.1876125,0.35925296,0.5843668,-0.04635165,0.2863467,9.860404027055594,0.6524013068538919,jump
05/08/2020, 15:29:35,-7.9730206,-4.90979,0.44307864,0.5843668,-0.04635165,0.2863467,9.373975338899859,0.6524013068538919,jump
05/08/2020, 15:29:35,-7.9730206,-4.90979,0.44307864,0.6246839,-0.021917045,0.25213826,9.373975338899859,0.6740059741150403,jump
05/08/2020, 15:29:35,-7.544312,-4.648733,0.5460645,0.6246839,-0.021917045,0.25213826,8.878375402589986,0.6740059741150403,jump
05/08/2020, 15:29:35,-7.544312,-4.648733,0.5460645,0.66133577,0.036725994,0.20693424,8.878375402589986,0.6939276443306931,jump
05/08/2020, 15:29:35,-7.2281694,-4.4547367,0.7161109,0.66133577,0.036725994,0.20693424,8.520793825851184,0.6939276443306931,jump
05/08/2020, 15:29:35,-7.2281694,-4.4547367,0.7161109,0.7028746,0.13324267,0.1397391,8.520793825851184,0.7289124280765301,jump
05/08/2020, 15:29:35,-7.0030375,-4.3278003,0.8933423,0.7028746,0.13324267,0.1397391,8.280727580861527,0.7289124280765301,jump
05/08/2020, 15:29:35,-7.0030375,-4.3278003,0.8933423,0.75785244,0.26274604,0.06154838,8.280727580861527,0.80446503699057,jump
05/08/2020, 15:29:35,-6.945557,-4.3062453,1.092129,0.75785244,0.26274604,0.06154838,8.24483221318336,0.80446503699057,jump
05/08/2020, 15:29:35,-6.945557,-4.3062453,1.092129,0.8421518,0.42157096,-0.019085808,8.24483221318336,0.9419692291342344,jump
05/08/2020, 15:29:35,-7.220984,-4.416416,1.2669654,0.8421518,0.42157096,-0.019085808,8.558769931360416,0.9419692291342344,jump
05/08/2020, 15:29:35,-7.220984,-4.416416,1.2669654,0.94477713,0.59261316,-0.072841935,8.558769931360416,1.1176314835469976,jump
05/08/2020, 15:29:35,-7.7646537,-4.6750784,1.3507911,0.94477713,0.59261316,-0.072841935,9.163560518210527,1.1176314835469976,jump
05/08/2020, 15:29:36,-7.1395535,-3.3530276,0.64186525,-0.7338799,-0.46296158,-0.9500441,7.9137860610139645,1.2866611654110642,jump
05/08/2020, 15:29:36,-7.053333,-3.5206788,0.7496411,-0.7338799,-0.46296158,-0.9500441,7.918752704680091,1.2866611654110642,jump
05/08/2020, 15:29:36,-7.053333,-3.5206788,0.7496411,-0.61415035,-0.27848035,-0.8865141,7.918752704680091,1.113839867468494,jump
05/08/2020, 15:29:36,-7.094048,-3.6859353,0.84544194,-0.61415035,-0.27848035,-0.8865141,8.039055178187725,1.113839867468494,jump
05/08/2020, 15:29:36,-7.094048,-3.6859353,0.84544194,-0.44188643,-0.085447006,-0.80343646,8.039055178187725,0.9209098466511747,jump
05/08/2020, 15:29:36,-7.2808595,-3.7506008,0.86939216,-0.44188643,-0.085447006,-0.80343646,8.236125534577642,0.9209098466511747,jump
05/08/2020, 15:29:36,-7.2808595,-3.7506008,0.86939216,-0.22808367,0.08681692,-0.710585,8.236125534577642,0.7513257469758591,jump
05/08/2020, 15:29:36,-7.5203614,-3.8272414,0.8047266,-0.22808367,0.08681692,-0.710585,8.47650858162809,0.7513257469758591,jump
05/08/2020, 15:29:36,-7.5203614,-3.8272414,0.8047266,0.006488504,0.21754205,-0.6055162,8.47650858162809,0.64344114568106,jump
05/08/2020, 15:29:36,-7.8556643,-3.8392165,0.7783814,0.006488504,0.21754205,-0.6055162,8.778207196447166,0.64344114568106,jump
05/08/2020, 15:29:36,-7.8556643,-3.8392165,0.7783814,0.23983893,0.3091718,-0.48578668,8.778207196447166,0.6237776893229622,jump
05/08/2020, 15:29:36,-8.226892,-3.915857,0.7232959,0.23983893,0.3091718,-0.48578668,9.139959156218813,0.6237776893229622,jump
05/08/2020, 15:29:36,-8.226892,-3.915857,0.7232959,0.45119822,0.38980597,-0.35017464,9.139959156218813,0.6914844941625349,jump
05/08/2020, 15:29:36,-8.693921,-3.9517825,0.7424561,0.45119822,0.38980597,-0.35017464,9.578731105101191,0.6914844941625349,jump
05/08/2020, 15:29:36,-8.693921,-3.9517825,0.7424561,0.62590563,0.47044015,-0.21089743,9.578731105101191,0.8108942728714872,jump
05/08/2020, 15:29:36,-9.125025,-4.0020776,0.60833496,0.62590563,0.47044015,-0.21089743,9.982623597692088,0.8108942728714872,jump
05/08/2020, 15:29:36,-9.125025,-4.0020776,0.60833496,0.7505221,0.5205311,-0.07772885,9.982623597692088,0.9166666828460488,jump
05/08/2020, 15:29:36,-9.5561285,-4.0499783,0.29698244,0.7505221,0.5205311,-0.07772885,10.383164950470638,0.9166666828460488,jump
05/08/2020, 15:29:36,-9.5561285,-4.0499783,0.29698244,0.8360432,0.5034269,0.048109345,10.383164950470638,0.9770984389793834,jump
05/08/2020, 15:29:36,-9.972861,-4.009263,0.086220704,0.8360432,0.5034269,0.048109345,10.748934199813046,0.9770984389793834,jump
05/08/2020, 15:29:37,0.16286133,0.8813672,-1.0059083,-1.8798627,2.647563,5.2196927,1.347287413815575,6.147248598859622,jump
05/08/2020, 15:29:37,-0.32572266,0.20597169,-0.6777906,-1.8798627,2.647563,5.2196927,0.7796920313773812,6.147248598859622,jump
05/08/2020, 15:29:37,-0.72569096,-0.33290774,-0.58198977,-1.8798627,2.647563,5.2196927,0.9880116488977405,6.147248598859622,jump
05/08/2020, 15:29:37,-0.72569096,-0.33290774,-0.58198977,-1.8432108,2.888244,5.767028,0.9880116488977405,6.708054061930963,jump
05/08/2020, 15:29:37,-0.72569096,-0.33290774,-0.58198977,-1.7821243,3.1948981,6.2557197,0.9880116488977405,7.246886882666967,jump
05/08/2020, 15:29:37,-1.3052857,-1.0585986,-0.31853762,-1.7821243,3.1948981,6.2557197,1.7105168899658094,7.246886882666967,jump
05/08/2020, 15:29:37,-1.3052857,-1.0585986,-0.31853762,-1.7320334,3.5711908,6.7053165,1.7105168899658094,7.791958259913143,jump
05/08/2020, 15:29:37,-2.076482,-1.81782,0.15567628,-1.7320334,3.5711908,6.7053165,2.7641422212982922,7.791958259913143,jump
05/08/2020, 15:29:37,-2.076482,-1.81782,0.15567628,-1.674612,3.9865792,7.118261,2.7641422212982922,8.328671967130562,jump
05/08/2020, 15:29:37,-3.046465,-2.794988,1.1064991,-1.674612,3.9865792,7.118261,4.279865204638963,8.328671967130562,jump
05/08/2020, 15:29:37,-3.046465,-2.794988,1.1064991,-1.6843859,4.4239583,7.4420195,4.279865204638963,8.819989602093269,jump
05/08/2020, 15:29:37,-4.2751102,-4.0882983,2.4069948,-1.6843859,4.4239583,7.4420195,6.38626454401686,8.819989602093269,jump
05/08/2020, 15:29:37,-4.2751102,-4.0882983,2.4069948,-1.7723504,4.781925,7.633831,6.38626454401686,9.180599696423425,jump
05/08/2020, 15:29:37,-5.740862,-5.513335,4.267925,-1.7723504,4.781925,7.633831,9.031585828781676,9.180599696423425,jump
05/08/2020, 15:29:37,-5.740862,-5.513335,4.267925,-1.7479159,4.9993935,7.670483,9.031585828781676,9.321236830133909,jump
05/08/2020, 15:29:37,-7.074888,-7.661668,5.7648125,-1.7479159,4.9993935,7.670483,11.915882682726526,9.321236830133909,jump
05/08/2020, 15:29:37,-7.074888,-7.661668,5.7648125,-1.4766917,5.055593,7.5739665,11.915882682726526,9.22521586500516,jump
05/08/2020, 15:29:37,-8.5502205,-10.533297,8.056846,-1.4766917,5.055593,7.5739665,15.778763241702297,9.22521586500516,jump
05/08/2020, 15:29:37,-8.5502205,-10.533297,8.056846,-0.6691282,4.995728,7.538536,15.778763241702297,9.06832713542035,jump
05/08/2020, 15:29:37,-9.750125,-14.616805,10.770403,-0.6691282,4.995728,7.538536,20.60867549435438,9.06832713542035,jump
05/08/2020, 15:29:38,-6.488108,-3.319497,0.019160157,0.20929569,0.2199855,-0.2829795,7.288002170419797,0.4150610761296254,jump
05/08/2020, 15:29:38,-6.823411,-3.544629,-0.028740235,0.20929569,0.2199855,-0.2829795,7.689223559335984,0.4150610761296254,jump
05/08/2020, 15:29:38,-6.823411,-3.544629,-0.028740235,0.1286615,0.34948888,-0.1974584,7.689223559335984,0.42152826906048235,jump
05/08/2020, 15:29:38,-7.1563187,-3.7482057,-0.14849122,0.1286615,0.34948888,-0.1974584,8.079850998228682,0.42152826906048235,jump
05/08/2020, 15:29:38,-7.1563187,-3.7482057,-0.14849122,0.06146636,0.40568846,-0.09849826,8.079850998228682,0.4219752970158973,jump
05/08/2020, 15:29:38,-7.4916215,-3.899092,-0.28740236,0.06146636,0.40568846,-0.09849826,8.450438499626097,0.4219752970158973,jump
05/08/2020, 15:29:38,-7.4916215,-3.899092,-0.28740236,-0.019167827,0.4154623,0.002905332,8.450438499626097,0.4159143626436332,jump
05/08/2020, 15:29:38,-7.673643,-4.047583,-0.3784131,-0.019167827,0.4154623,0.002905332,8.683946342121795,0.4159143626436332,jump
05/08/2020, 15:29:38,-7.673643,-4.047583,-0.3784131,-0.12179314,0.42279267,0.08842643,8.683946342121795,0.4487832977843674,jump
05/08/2020, 15:29:38,-7.726333,-4.0667434,-0.31135255,-0.12179314,0.42279267,0.08842643,8.736793799254553,0.4487832977843674,jump
05/08/2020, 15:29:38,-7.726333,-4.0667434,-0.31135255,-0.22808367,0.4606663,0.14951293,8.736793799254553,0.5353407477880318,jump
05/08/2020, 15:29:38,-7.7622585,-4.152964,-0.2682422,-0.22808367,0.4606663,0.14951293,8.8074810420629,0.5353407477880318,jump
05/08/2020, 15:29:38,-7.7622585,-4.152964,-0.2682422,-0.32337862,0.52297455,0.18494311,8.8074810420629,0.6420903893221739,jump
05/08/2020, 15:29:38,-7.800579,-4.248765,-0.28740236,-0.32337862,0.52297455,0.18494311,8.887273930531391,0.6420903893221739,jump
05/08/2020, 15:29:38,-7.800579,-4.248765,-0.28740236,-0.39423895,0.59261316,0.20693424,8.887273930531391,0.7412398316368644,jump
05/08/2020, 15:29:38,-7.7598634,-4.4355764,-0.26345217,-0.39423895,0.59261316,0.20693424,8.941992228592339,0.7412398316368644,jump
05/08/2020, 15:29:38,-7.7598634,-4.4355764,-0.26345217,-0.452882,0.6463693,0.21059944,8.941992228592339,0.8168521687967901,jump
05/08/2020, 15:29:38,-7.7215433,-4.7253737,-0.18920656,-0.452882,0.6463693,0.21059944,9.054677645861005,0.8168521687967901,jump
05/08/2020, 15:29:38,-7.7215433,-4.7253737,-0.18920656,-0.5212989,0.6952385,0.18860829,9.054677645861005,0.8892030960669489,jump
05/08/2020, 15:29:38,-7.711963,-5.024751,-0.0047900393,-0.5212989,0.6952385,0.18860829,9.204483878448004,0.8892030960669489,jump
05/08/2020, 15:29:39,-9.75731,-4.5816727,2.4692652,1.4688994,0.79542035,0.015122632,11.058665920033171,1.6705051876530934,jump
05/08/2020, 15:29:39,-10.142908,-4.5816727,2.6536818,1.4688994,0.79542035,0.015122632,11.441692879478866,1.6705051876530934,jump
05/08/2020, 15:29:39,-10.142908,-4.5816727,2.6536818,1.470121,0.78320307,0.002905332,11.441692879478866,1.6657344667746836,jump
05/08/2020, 15:29:39,-10.748848,-4.5601172,2.675237,1.470121,0.78320307,0.002905332,11.978701702214591,1.6657344667746836,jump
05/08/2020, 15:29:39,-10.748848,-4.5601172,2.675237,1.4505734,0.7318904,-0.0019815876,11.978701702214591,1.6247556041100866,jump
05/08/2020, 15:29:39,-11.369158,-4.4667115,2.5099807,1.4505734,0.7318904,-0.0019815876,12.470335348325063,1.6247556041100866,jump
05/08/2020, 15:29:39,-11.369158,-4.4667115,2.5099807,1.3882651,0.6036087,4.618722E-4,12.470335348325063,1.5138110147647394,jump
05/08/2020, 15:29:39,-11.829002,-4.3014555,2.2417383,1.3882651,0.6036087,4.618722E-4,12.784881986413877,1.5138110147647394,jump
05/08/2020, 15:29:39,-11.829002,-4.3014555,2.2417383,1.2783095,0.403245,0.011457441,12.784881986413877,1.3404524950703902,jump
05/08/2020, 15:29:39,-12.006233,-3.9972878,1.8729054,1.2783095,0.403245,0.011457441,12.79201782040479,1.3404524950703902,jump
05/08/2020, 15:29:39,-12.006233,-3.9972878,1.8729054,1.108489,0.16012074,0.012679173,12.79201782040479,1.1200657825067628,jump
05/08/2020, 15:29:39,-11.864927,-3.5829494,1.5735279,1.108489,0.16012074,0.012679173,12.493599008983074,1.1200657825067628,jump
05/08/2020, 15:29:39,-11.864927,-3.5829494,1.5735279,0.88002545,-0.09277739,-0.0019815876,12.493599008983074,0.884904716021671,jump
05/08/2020, 15:29:39,-11.376344,-3.151846,1.3843213,0.88002545,-0.09277739,-0.0019815876,11.885776160044127,0.884904716021671,jump
05/08/2020, 15:29:39,-11.376344,-3.151846,1.3843213,0.6295708,-0.34323207,-0.043520406,11.885776160044127,0.7183743079028584,jump
05/08/2020, 15:29:39,-10.736873,-2.7662477,1.336421,0.6295708,-0.34323207,-0.043520406,11.167747424225139,0.7183743079028584,jump
05/08/2020, 15:29:39,-10.736873,-2.7662477,1.336421,0.3559033,-0.5497044,-0.10460691,11.167747424225139,0.6631626201737195,jump
05/08/2020, 15:29:39,-9.917776,-2.3974147,1.3843213,0.3559033,-0.5497044,-0.10460691,10.296903692025944,0.6631626201737195,jump
05/08/2020, 15:29:39,-9.917776,-2.3974147,1.3843213,0.087122686,-0.6559949,-0.16447169,10.296903692025944,0.6818875247416455,jump
05/08/2020, 15:29:39,-9.283096,-2.1052222,1.5567628,0.087122686,-0.6559949,-0.16447169,9.645275954755807,0.6818875247416455,jump
05/08/2020, 15:29:40,-8.914263,-3.4919386,2.2632935,0.4133246,0.28840238,-0.0019815876,9.837693498634348,0.5040010704995588,jump
05/08/2020, 15:29:40,-8.914263,-3.4919386,2.2632935,0.36689886,0.25419393,0.024896473,9.837693498634348,0.4470449262687673,jump
05/08/2020, 15:29:40,-8.871153,-3.439248,2.304009,0.36689886,0.25419393,0.024896473,9.789496313031513,0.4470449262687673,jump
05/08/2020, 15:29:40,-8.871153,-3.439248,2.304009,0.31680793,0.23098108,0.045665886,9.789496313031513,0.39472128783333804,jump
05/08/2020, 15:29:40,-8.8951025,-3.4655933,2.2944288,0.31680793,0.23098108,0.045665886,9.818227402184116,0.39472128783333804,jump
05/08/2020, 15:29:40,-8.8951025,-3.4655933,2.2944288,0.26427355,0.20532474,0.06521356,9.818227402184116,0.340956842533362,jump
05/08/2020, 15:29:40,-8.978929,-3.5134938,2.3830445,0.26427355,0.20532474,0.06521356,9.932003710679433,0.340956842533362,jump
05/08/2020, 15:29:40,-8.978929,-3.5134938,2.3830445,0.22029126,0.16989458,0.08353951,9.932003710679433,0.2904673033091985,jump
05/08/2020, 15:29:40,-9.010064,-3.530259,2.3375392,0.22029126,0.16989458,0.08353951,9.955303756744259,0.2904673033091985,jump
05/08/2020, 15:29:40,-9.010064,-3.530259,2.3375392,0.18241762,0.1259123,0.10797411,9.955303756744259,0.2465532423535587,jump
05/08/2020, 15:29:40,-9.06994,-3.542234,2.339934,0.18241762,0.1259123,0.10797411,10.014315630407015,0.2465532423535587,jump
05/08/2020, 15:29:40,-9.06994,-3.542234,2.339934,0.14698745,0.075821355,0.13240871,10.014315630407015,0.21186376585955732,jump
05/08/2020, 15:29:40,-9.024434,-3.5757644,2.2489235,0.14698745,0.075821355,0.13240871,9.964143661069622,0.21186376585955732,jump
05/08/2020, 15:29:40,-9.024434,-3.5757644,2.2489235,0.106670365,0.034282535,0.14951293,9.964143661069622,0.18683676214200573,jump
05/08/2020, 15:29:40,-8.959768,-3.532654,2.208208,0.106670365,0.034282535,0.14951293,9.880955189850585,0.18683676214200573,jump
05/08/2020, 15:29:40,-8.959768,-3.532654,2.208208,0.055357702,0.0049610157,0.1605085,9.880955189850585,0.16985895608454304,jump
05/08/2020, 15:29:40,-8.976534,-3.4919386,2.1459377,0.055357702,0.0049610157,0.1605085,9.867970628712033,0.16985895608454304,jump
05/08/2020, 15:29:40,-8.976534,-3.4919386,2.1459377,0.0016015843,-0.021917045,0.16661716,9.867970628712033,0.1680601032490296,jump
05/08/2020, 15:29:40,-8.969349,-3.527864,2.1052222,0.0016015843,-0.021917045,0.16661716,9.865444982265034,0.1680601032490296,jump
05/08/2020, 15:29:40,-8.969349,-3.527864,2.1052222,-0.054597996,-0.052460298,0.16783889,9.865444982265034,0.1841274445265601,jump
05/08/2020, 15:29:41,-0.4382886,-1.7004639,1.1136842,0.9704335,-1.7335608,-3.077076,2.0794150109869305,3.662699909728088,jump
05/08/2020, 15:29:41,-0.33290774,-1.4394068,1.099314,0.9704335,-1.7335608,-3.077076,1.8415239815296451,3.662699909728088,jump
05/08/2020, 15:29:41,-0.33290774,-1.4394068,1.099314,1.2831963,-1.7030176,-3.0501978,1.8415239815296451,3.721635205547252,jump
05/08/2020, 15:29:41,-0.14849122,-0.91010743,0.90771246,1.2831963,-1.7030176,-3.0501978,1.2939424609794676,3.721635205547252,jump
05/08/2020, 15:29:41,-0.14849122,-0.91010743,0.90771246,1.4786732,-1.7115697,-3.0257633,1.2939424609794676,3.7777226738880287,jump
05/08/2020, 15:29:41,0.06466553,-0.27303225,0.55324954,1.4786732,-1.7115697,-3.0257633,0.6203332095987919,3.7777226738880287,jump
05/08/2020, 15:29:41,0.06466553,-0.27303225,0.55324954,1.5348728,-1.7311174,-3.036759,0.6203332095987919,3.8176571842928104,jump
05/08/2020, 15:29:41,0.17962648,0.37601808,0.21076173,1.5348728,-1.7311174,-3.036759,0.46698583668387766,3.8176571842928104,jump
05/08/2020, 15:29:41,0.17962648,0.37601808,0.21076173,1.4713428,-1.7555519,-3.077076,0.46698583668387766,3.8360407567975003,jump
05/08/2020, 15:29:41,0.15088624,0.94603276,-0.019160157,1.4713428,-1.7555519,-3.077076,0.9581814839046894,3.8360407567975003,jump
05/08/2020, 15:29:41,0.15088624,0.94603276,-0.019160157,1.366274,-1.8031994,-3.1320539,0.9581814839046894,3.863676239939351,jump
05/08/2020, 15:29:41,0.06466553,1.2885206,-0.17004639,1.366274,-1.8031994,-3.1320539,1.3013003791486593,3.863676239939351,jump
05/08/2020, 15:29:41,0.06466553,1.2885206,-0.17004639,1.25754,-1.8887205,-3.1980274,1.3013003791486593,3.9212308104230766,jump
05/08/2020, 15:29:41,0.035925295,1.2525953,-0.51732427,1.25754,-1.8887205,-3.1980274,1.3556954027954924,3.9212308104230766,jump
05/08/2020, 15:29:41,0.035925295,1.2525953,-0.51732427,1.1573582,-1.999898,-3.2578921,1.3556954027954924,3.9941120305923175,jump
05/08/2020, 15:29:41,-0.086220704,1.0035132,-0.5748047,1.1573582,-1.999898,-3.2578921,1.1596867061085723,3.9941120305923175,jump
05/08/2020, 15:29:41,-0.086220704,1.0035132,-0.5748047,1.0706153,-2.0866408,-3.2701094,1.1596867061085723,4.024164840375532,jump
05/08/2020, 15:29:41,-0.2203418,0.60833496,-0.5340894,1.0706153,-2.0866408,-3.2701094,0.83897163484954,4.024164840375532,jump
05/08/2020, 15:29:41,-0.2203418,0.60833496,-0.5340894,0.99853325,-2.1746054,-3.239566,0.83897163484954,4.0275011606749915,jump
05/08/2020, 15:29:41,-0.21315674,0.27303225,-0.6011499,0.99853325,-2.1746054,-3.239566,0.6938037392632849,4.0275011606749915,jump
05/08/2020, 15:29:42,-8.020921,-3.0823903,-0.31853762,-1.6587296,-1.8471818,-0.90361834,8.598707226313445,2.641967149428753,jump
05/08/2020, 15:29:42,-7.6329274,-3.1111305,-0.32332766,-1.6587296,-1.8471818,-0.90361834,8.248954756784924,2.641967149428753,jump
05/08/2020, 15:29:42,-7.6329274,-3.1111305,-0.32332766,-1.6758337,-1.7091262,-0.9598179,8.248954756784924,2.578910905003848,jump
05/08/2020, 15:29:42,-7.4892263,-3.1398706,-0.2945874,-1.6758337,-1.7091262,-0.9598179,8.126135649089184,2.578910905003848,jump
05/08/2020, 15:29:42,-7.4892263,-3.1398706,-0.2945874,-1.6623948,-1.5454144,-1.0062437,8.126135649089184,2.482818671517649,jump
05/08/2020, 15:29:42,-7.4580913,-3.290757,-0.2778223,-1.6623948,-1.5454144,-1.0062437,8.156555136443778,2.482818671517649,jump
05/08/2020, 15:29:42,-7.4580913,-3.290757,-0.2778223,-1.6123037,-1.3768157,-1.0319,8.156555136443778,2.357957261545639,jump
05/08/2020, 15:29:42,-7.4892263,-3.3985329,-0.22752686,-1.6123037,-1.3768157,-1.0319,8.227411823457308,2.357957261545639,jump
05/08/2020, 15:29:42,-7.4892263,-3.3985329,-0.22752686,-1.5243392,-1.2253212,-1.0282348,8.227411823457308,2.209590201255771,jump
05/08/2020, 15:29:42,-7.551497,-3.4608033,-0.21555176,-1.5243392,-1.2253212,-1.0282348,8.309556457278129,2.209590201255771,jump
05/08/2020, 15:29:42,-7.551497,-3.4608033,-0.21555176,-1.416827,-1.0909308,-0.9964698,8.309556457278129,2.04706637679319,jump
05/08/2020, 15:29:42,-7.479646,-3.6021094,-0.122146,-1.416827,-1.0909308,-0.9964698,8.302723611754972,2.04706637679319,jump
05/08/2020, 15:29:42,-7.479646,-3.6021094,-0.122146,-1.2995409,-0.9614274,-0.94393545,8.302723611754972,1.8719410408305786,jump
05/08/2020, 15:29:42,-7.398216,-3.6404297,-0.023950197,-1.2995409,-0.9614274,-0.94393545,8.24541683960781,1.8719410408305786,jump
05/08/2020, 15:29:42,-7.398216,-3.6404297,-0.023950197,-1.1749245,-0.831924,-0.8767403,8.24541683960781,1.6855914849025022,jump
05/08/2020, 15:29:42,-7.201824,-3.7601807,0.102985844,-1.1749245,-0.831924,-0.8767403,8.125013028128974,1.6855914849025022,jump
05/08/2020, 15:29:42,-7.201824,-3.7601807,0.102985844,-1.0466428,-0.696312,-0.7997713,8.125013028128974,1.4899482111039772,jump
05/08/2020, 15:29:42,-7.089258,-3.9374123,0.30177248,-1.0466428,-0.696312,-0.7997713,8.114916123302612,1.4899482111039772,jump
05/08/2020, 15:29:42,-7.089258,-3.9374123,0.30177248,-0.90370035,-0.54359573,-0.7032546,8.114916123302612,1.2675715560564518,jump
05/08/2020, 15:29:42,-6.9383717,-4.1242237,0.51013917,-0.90370035,-0.54359573,-0.7032546,8.087673611232624,1.2675715560564518,jump
05/08/2020, 15:29:43,-8.490345,-4.7301636,1.4897022,-2.063122,-0.92233205,-0.6739331,9.832579437613973,2.3582524765521438,jump
05/08/2020, 15:29:43,-8.473579,-4.7972245,1.6094532,-2.063122,-0.92233205,-0.6739331,9.869409844587942,2.3582524765521438,jump
05/08/2020, 15:29:43,-8.473579,-4.7972245,1.6094532,-1.76502,-0.77083755,-0.6727114,9.869409844587942,2.0401045947926977,jump
05/08/2020, 15:29:43,-8.53106,-4.840335,1.7339942,-1.76502,-0.77083755,-0.6727114,9.960650900913226,2.0401045947926977,jump
05/08/2020, 15:29:43,-8.53106,-4.840335,1.7339942,-1.4424833,-0.60468227,-0.6592723,9.960650900913226,1.6973622814266889,jump
05/08/2020, 15:29:43,-8.552615,-4.9002104,1.829795,-1.4424833,-0.60468227,-0.6592723,10.025339779738434,1.6973622814266889,jump
05/08/2020, 15:29:43,-8.552615,-4.9002104,1.829795,-1.1016207,-0.42875317,-0.6397247,10.025339779738434,1.3441149668042618,jump
05/08/2020, 15:29:43,-8.667576,-4.905,1.8800904,-1.1016207,-0.42875317,-0.6397247,10.135119026455826,1.3441149668042618,jump
05/08/2020, 15:29:43,-8.667576,-4.905,1.8800904,-0.75098413,-0.2723717,-0.59574234,10.135119026455826,0.9965302085027394,jump
05/08/2020, 15:29:43,-8.749006,-4.82357,2.0812721,-0.75098413,-0.2723717,-0.59574234,10.205078626172215,0.9965302085027394,jump
05/08/2020, 15:29:43,-8.749006,-4.82357,2.0812721,-0.40279105,-0.13187274,-0.5419862,10.205078626172215,0.6880262517972563,jump
05/08/2020, 15:29:43,-8.849598,-4.88105,2.1219873,-0.40279105,-0.13187274,-0.5419862,10.326803183797047,0.6880262517972563,jump
05/08/2020, 15:29:43,-8.849598,-4.88105,2.1219873,-0.06559356,-0.009699745,-0.48456493,10.326803183797047,0.4890805374834044,jump
05/08/2020, 15:29:43,-8.926238,-4.88105,2.2752686,-0.06559356,-0.009699745,-0.48456493,10.424932761159425,0.4890805374834044,jump
05/08/2020, 15:29:43,-8.926238,-4.88105,2.2752686,0.25205624,0.10514288,-0.41736978,10.424932761159425,0.4987834287778842,jump
05/08/2020, 15:29:43,-8.978929,-4.84752,2.2297633,0.25205624,0.10514288,-0.41736978,10.44468531670562,0.4987834287778842,jump
05/08/2020, 15:29:43,-8.978929,-4.84752,2.2297633,0.5464932,0.21021166,-0.34284425,10.44468531670562,0.6785174352041393,jump
05/08/2020, 15:29:43,-8.914263,-4.5816727,2.203418,0.5464932,0.21021166,-0.34284425,10.262107783359104,0.6785174352041393,jump
05/08/2020, 15:29:43,-8.914263,-4.5816727,2.203418,0.7896174,0.3018414,-0.26587525,10.262107783359104,0.8861679033795589,jump
05/08/2020, 15:29:43,-8.837623,-4.3062453,2.1076174,0.7896174,0.3018414,-0.26587525,10.054321150671583,0.8861679033795589,jump
05/08/2020, 15:29:44,-8.514295,-2.912344,1.6621436,0.28137776,-0.025582235,0.011457441,9.150829563954826,0.28277052354726523,jump
05/08/2020, 15:29:44,-8.504715,-2.9602442,1.6884888,0.28137776,-0.025582235,0.011457441,9.16210766222351,0.28277052354726523,jump
05/08/2020, 15:29:44,-8.504715,-2.9602442,1.6884888,0.24106066,-0.030469155,0.06765702,9.16210766222351,0.2522222902746158,jump
05/08/2020, 15:29:44,-8.50711,-3.05844,1.6908839,0.24106066,-0.030469155,0.06765702,9.196959159965196,0.2522222902746158,jump
05/08/2020, 15:29:44,-8.50711,-3.05844,1.6908839,0.20318703,-0.03535608,0.12263487,9.196959159965196,0.23994652507202793,jump
05/08/2020, 15:29:44,-8.514295,-3.06802,1.7004639,0.20318703,-0.03535608,0.12263487,9.208557854597586,0.23994652507202793,jump
05/08/2020, 15:29:44,-8.514295,-3.06802,1.7004639,0.16653514,-0.037799537,0.17761272,9.208557854597586,0.24639203832242584,jump
05/08/2020, 15:29:44,-8.547825,-3.0752053,1.6621436,0.16653514,-0.037799537,0.17761272,9.234983429093147,0.24639203832242584,jump
05/08/2020, 15:29:44,-8.547825,-3.0752053,1.6621436,0.13232669,-0.045129918,0.23014711,9.234983429093147,0.26928563735708333,jump
05/08/2020, 15:29:44,-8.54543,-3.0967603,1.6381935,0.13232669,-0.045129918,0.23014711,9.23569050544535,0.26928563735708333,jump
05/08/2020, 15:29:44,-8.54543,-3.0967603,1.6381935,0.09689653,-0.048795108,0.27290767,9.23569050544535,0.29368094696422586,jump
05/08/2020, 15:29:44,-8.566985,-3.1326857,1.5807129,0.09689653,-0.048795108,0.27290767,9.257732281370547,0.29368094696422586,jump
05/08/2020, 15:29:44,-8.566985,-3.1326857,1.5807129,0.06146636,-0.048795108,0.3058944,9.257732281370547,0.315801302366454,jump
05/08/2020, 15:29:44,-8.562195,-3.151846,1.5950831,0.06146636,-0.048795108,0.3058944,9.26226771037591,0.315801302366454,jump
05/08/2020, 15:29:44,-8.562195,-3.151846,1.5950831,0.021149265,-0.03902127,0.33521593,9.26226771037591,0.33814149101781693,jump
05/08/2020, 15:29:44,-8.669971,-3.2189064,1.5447876,0.021149265,-0.03902127,0.33521593,9.376360302387495,0.33814149101781693,jump
05/08/2020, 15:29:44,-8.669971,-3.2189064,1.5447876,-0.021611286,-0.024360506,0.35965052,9.376360302387495,0.3611218357506983,jump
05/08/2020, 15:29:44,-8.835227,-3.302732,1.5352076,-0.021611286,-0.024360506,0.35965052,9.556470971686961,0.3611218357506983,jump
05/08/2020, 15:29:44,-8.835227,-3.302732,1.5352076,-0.058263183,-0.010921475,0.38164166,9.556470971686961,0.3862178540337465,jump
05/08/2020, 15:29:44,-8.974138,-3.3578174,1.465752,-0.058263183,-0.010921475,0.38164166,9.693220528693601,0.3862178540337465,jump
05/08/2020, 15:29:45,-8.701106,-4.0859036,1.6549586,-0.620259,0.12224709,0.42073703,9.754114180511364,0.7593979255512874,jump
05/08/2020, 15:29:45,-8.825647,-4.152964,1.7866846,-0.620259,0.12224709,0.42073703,9.916219246081472,0.7593979255512874,jump
05/08/2020, 15:29:45,-8.825647,-4.152964,1.7866846,-0.54939866,0.15767728,0.42318046,9.916219246081472,0.7111840231759142,jump
05/08/2020, 15:29:45,-8.914263,-4.26553,1.9447559,-0.54939866,0.15767728,0.42318046,10.071787499350851,0.7111840231759142,jump
05/08/2020, 15:29:45,-8.914263,-4.26553,1.9447559,-0.47853833,0.18455534,0.42195874,10.071787499350851,0.6641602155329027,jump
05/08/2020, 15:29:45,-9.074729,-4.3493557,2.0429518,-0.47853833,0.18455534,0.42195874,10.2684591314702,0.6641602155329027,jump
05/08/2020, 15:29:45,-9.074729,-4.3493557,2.0429518,-0.41867355,0.18822053,0.41707182,10.2684591314702,0.620212389459511,jump
05/08/2020, 15:29:45,-9.09868,-4.3134303,2.0932472,-0.41867355,0.18822053,0.41707182,10.284616385046467,0.620212389459511,jump
05/08/2020, 15:29:45,-9.09868,-4.3134303,2.0932472,-0.37102607,0.1747815,0.41707182,10.284616385046467,0.5849425779301818,jump
05/08/2020, 15:29:45,-9.060359,-4.253555,2.1291726,-0.37102607,0.1747815,0.41707182,10.233093845492483,0.5849425779301818,jump
05/08/2020, 15:29:45,-9.060359,-4.253555,2.1291726,-0.34536976,0.15889901,0.40974143,10.233093845492483,0.558942934755572,jump
05/08/2020, 15:29:45,-8.947793,-4.150569,2.1507277,-0.34536976,0.15889901,0.40974143,10.095338144567611,0.558942934755572,jump
05/08/2020, 15:29:45,-8.947793,-4.150569,2.1507277,-0.3673609,0.14179479,0.38530684,10.095338144567611,0.550927528777793,jump
05/08/2020, 15:29:45,-8.911868,-3.899092,2.1603076,-0.3673609,0.14179479,0.38530684,9.964498992874635,0.550927528777793,jump
05/08/2020, 15:29:45,-8.911868,-3.899092,2.1603076,-0.44799507,0.10880806,0.3510984,9.964498992874635,0.5794901661497326,jump
05/08/2020, 15:29:45,-8.921448,-3.6236646,2.193838,-0.44799507,0.10880806,0.3510984,9.876036651135758,0.5794901661497326,jump
05/08/2020, 15:29:45,-8.921448,-3.6236646,2.193838,-0.61415035,0.051386755,0.29612055,9.876036651135758,0.6837460258557962,jump
05/08/2020, 15:29:45,-9.045989,-3.2524366,2.2848487,-0.61415035,0.051386755,0.29612055,9.880728478676255,0.6837460258557962,jump
05/08/2020, 15:29:45,-9.045989,-3.2524366,2.2848487,-0.8475008,-0.025582235,0.21792981,9.880728478676255,0.8754458640124553,jump
05/08/2020, 15:29:45,-9.060359,-3.0129347,2.3590944,-0.8475008,-0.025582235,0.21792981,9.835304110423799,0.8754458640124553,jump
05/08/2020, 15:29:46,-8.959768,-4.145779,1.9758912,1.8830658,0.47044015,-0.017864078,10.06822122751577,1.9410229109537402,jump
05/08/2020, 15:29:46,-9.0004835,-3.9853127,1.7842896,1.8830658,0.47044015,-0.017864078,10.003754802859408,1.9410229109537402,jump
05/08/2020, 15:29:46,-9.0004835,-3.9853127,1.7842896,1.8488574,0.4435621,-0.061846357,10.003754802859408,1.9023264692963349,jump
05/08/2020, 15:29:46,-9.060359,-3.8008962,1.7531544,1.8488574,0.4435621,-0.061846357,9.980504358383344,1.9023264692963349,jump
05/08/2020, 15:29:46,-9.060359,-3.8008962,1.7531544,1.7792188,0.40446672,-0.100941725,9.980504358383344,1.827403094898909,jump
05/08/2020, 15:29:46,-9.182506,-3.5925295,1.6549586,1.7792188,0.40446672,-0.100941725,9.998178118160006,1.827403094898909,jump
05/08/2020, 15:29:46,-9.182506,-3.5925295,1.6549586,1.6729282,0.35193235,-0.1363719,9.998178118160006,1.7149759415542172,jump
05/08/2020, 15:29:46,-9.242381,-3.4488282,1.587898,1.6729282,0.35193235,-0.1363719,9.99186892049422,1.7149759415542172,jump
05/08/2020, 15:29:46,-9.242381,-3.4488282,1.587898,1.533651,0.2774068,-0.17546725,9.99186892049422,1.5683840946293937,jump
05/08/2020, 15:29:46,-9.266331,-3.2165112,1.5064673,1.533651,0.2774068,-0.17546725,9.923722762444232,1.5683840946293937,jump
05/08/2020, 15:29:46,-9.266331,-3.2165112,1.5064673,1.3589436,0.19432917,-0.221893,9.923722762444232,1.390585483726013,jump
05/08/2020, 15:29:46,-9.235196,-3.0536501,1.5040723,1.3589436,0.19432917,-0.221893,9.842553527814696,1.390585483726013,jump
05/08/2020, 15:29:46,-9.235196,-3.0536501,1.5040723,1.1598016,0.118581906,-0.27320564,9.842553527814696,1.1974317291036802,jump
05/08/2020, 15:29:46,-9.196876,-2.907554,1.5280225,1.1598016,0.118581906,-0.27320564,9.765820133626432,1.1974317291036802,jump
05/08/2020, 15:29:46,-9.196876,-2.907554,1.5280225,0.96921176,0.057495404,-0.3281835,9.765820133626432,1.024881243220407,jump
05/08/2020, 15:29:46,-9.17053,-2.9650342,1.5567628,0.96921176,0.057495404,-0.3281835,9.762866632239145,1.024881243220407,jump
05/08/2020, 15:29:46,-9.17053,-2.9650342,1.5567628,0.8042782,0.012291396,-0.37949616,9.762866632239145,0.8893997000906809,jump
05/08/2020, 15:29:46,-9.204061,-3.0847852,1.6621436,0.8042782,0.012291396,-0.37949616,9.84852028836904,0.8893997000906809,jump
05/08/2020, 15:29:46,-9.204061,-3.0847852,1.6621436,0.67233133,-0.012143205,-0.41736978,9.84852028836904,0.7914381938430451,jump
05/08/2020, 15:29:46,-9.352551,-3.2811768,1.6262183,0.67233133,-0.012143205,-0.41736978,10.043949724421445,0.7914381938430451,jump
05/08/2020, 15:29:47,2.703977,0.7041358,-0.047900394,-2.248825,-1.2595296,1.5422851,2.7945650535882853,3.003709753325047,jump
05/08/2020, 15:29:47,2.703977,0.7041358,-0.047900394,-2.630005,-0.54726094,2.2325628,2.7945650535882853,3.4929581715915905,jump
05/08/2020, 15:29:47,0.8262818,-0.3520679,-0.33769777,-2.630005,-0.54726094,2.2325628,0.9595484219705017,3.4929581715915905,jump
05/08/2020, 15:29:47,0.8262818,-0.3520679,-0.33769777,-3.0014107,0.17966841,2.7212548,0.9595484219705017,4.055363718641427,jump
05/08/2020, 15:29:47,-1.2813355,-1.7435743,-0.83586186,-3.0014107,0.17966841,2.7212548,2.319598424796748,4.055363718641427,jump
05/08/2020, 15:29:47,-1.2813355,-1.7435743,-0.83586186,-3.3948078,0.7343339,2.9985874,2.319598424796748,4.588626434599164,jump
05/08/2020, 15:29:47,-3.9877076,-3.3602126,-1.8609302,-3.3948078,0.7343339,2.9985874,5.536777196704653,4.588626434599164,jump
05/08/2020, 15:29:47,-3.9877076,-3.3602126,-1.8609302,-3.7588832,0.7526598,3.1464167,5.536777196704653,4.959398934448174,jump
05/08/2020, 15:29:47,-6.9958525,-4.5481424,-2.8428884,-3.7588832,0.7526598,3.1464167,8.815302920512035,4.959398934448174,jump
05/08/2020, 15:29:47,-9.702225,-5.688172,-3.9493873,-3.7588832,0.7526598,3.1464167,11.919988424008418,4.959398934448174,jump
05/08/2020, 15:29:47,-9.702225,-5.688172,-3.9493873,-3.7992003,0.19310744,3.2417116,11.919988424008418,4.997990354195585,jump
05/08/2020, 15:29:47,-9.702225,-5.688172,-3.9493873,-3.5487459,-0.5399306,3.3638847,11.919988424008418,4.919435178731786,jump
05/08/2020, 15:29:47,-11.733201,-7.0054326,-3.9661524,-3.5487459,-0.5399306,3.3638847,14.229351967897772,4.919435178731786,jump
05/08/2020, 15:29:47,-11.733201,-7.0054326,-3.9661524,-3.222544,-0.9174451,3.6131177,14.229351967897772,4.9275870942970945,jump
05/08/2020, 15:29:47,-12.854071,-8.178992,-3.8751419,-3.222544,-0.9174451,3.6131177,15.720679744362862,4.9275870942970945,jump
05/08/2020, 15:29:47,-12.854071,-8.178992,-3.8751419,-2.79616,-0.7989373,3.9991841,15.720679744362862,4.944722965929427,jump
05/08/2020, 15:29:47,-13.2492485,-8.758587,-2.6656568,-2.79616,-0.7989373,3.9991841,16.10469361200402,4.944722965929427,jump
05/08/2020, 15:29:47,-13.2492485,-8.758587,-2.6656568,-2.18163,-0.4421922,4.3143907,16.10469361200402,4.854792447069325,jump
05/08/2020, 15:29:47,-13.148658,-8.863968,-1.0538087,-2.18163,-0.4421922,4.3143907,15.892376836550635,4.854792447069325,jump
05/08/2020, 15:29:47,-13.148658,-8.863968,-1.0538087,-1.2347893,-0.1013295,4.421903,15.892376836550635,4.592188964515462,jump
05/08/2020, 15:29:48,-7.551497,-3.0249097,-0.5939649,-0.13278872,-0.037799537,0.4280674,8.156468589622667,0.4497814309835232,jump
05/08/2020, 15:29:48,-7.510782,-3.175796,-0.34727785,-0.13278872,-0.037799537,0.4280674,8.16199271396511,0.4497814309835232,jump
05/08/2020, 15:29:48,-7.510782,-3.175796,-0.34727785,-0.24763134,0.08437347,0.40241107,8.16199271396511,0.4799737858092646,jump
05/08/2020, 15:29:48,-7.6281376,-3.403323,-0.06227051,-0.24763134,0.08437347,0.40241107,8.353141186777695,0.4799737858092646,jump
05/08/2020, 15:29:48,-7.6281376,-3.403323,-0.06227051,-0.32337862,0.23953319,0.35720706,8.353141186777695,0.5380954973796154,jump
05/08/2020, 15:29:48,-8.135881,-3.5925295,0.40715334,-0.32337862,0.23953319,0.35720706,8.9030673841849,0.5380954973796154,jump
05/08/2020, 15:29:48,-8.135881,-3.5925295,0.40715334,-0.36491743,0.3995798,0.30345094,8.9030673841849,0.6204121324720464,jump
05/08/2020, 15:29:48,-8.880733,-3.755391,0.55803955,-0.36491743,0.3995798,0.30345094,9.658249282183544,0.6204121324720464,jump
05/08/2020, 15:29:48,-8.880733,-3.755391,0.55803955,-0.38079992,0.48143572,0.25580347,9.658249282183544,0.664999504145797,jump
05/08/2020, 15:29:48,-9.393267,-3.9134622,0.36164796,-0.38079992,0.48143572,0.25580347,10.182309866842319,0.664999504145797,jump
05/08/2020, 15:29:48,-9.393267,-3.9134622,0.36164796,-0.38079992,0.4435621,0.21548635,10.182309866842319,0.6230491735501223,jump
05/08/2020, 15:29:48,-9.735755,-3.8320315,0.11256592,-0.38079992,0.4435621,0.21548635,10.463367583471575,0.6230491735501223,jump
05/08/2020, 15:29:48,-9.735755,-3.8320315,0.11256592,-0.37346953,0.3348281,0.18738656,10.463367583471575,0.5354466128168357,jump
05/08/2020, 15:29:48,-9.616004,-3.652405,-0.0047900393,-0.37346953,0.3348281,0.18738656,10.286283008927006,0.5354466128168357,jump
05/08/2020, 15:29:48,-9.616004,-3.652405,-0.0047900393,-0.39546067,0.2480853,0.15684332,10.286283008927006,0.49247871347679056,jump
05/08/2020, 15:29:48,-9.24717,-3.3769777,-0.0047900393,-0.39546067,0.2480853,0.15684332,9.84449909898631,0.49247871347679056,jump
05/08/2020, 15:29:48,-9.24717,-3.3769777,-0.0047900393,-0.44188643,0.25175047,0.110417575,9.84449909898631,0.5204170944080095,jump
05/08/2020, 15:29:48,-8.808882,-3.2189064,0.14370118,-0.44188643,0.25175047,0.110417575,9.379680501667957,0.5204170944080095,jump
05/08/2020, 15:29:48,-8.808882,-3.2189064,0.14370118,-0.49564254,0.3433802,0.048109345,9.379680501667957,0.6048851212362816,jump
05/08/2020, 15:29:48,-8.499925,-3.0776002,0.21555176,-0.49564254,0.3433802,0.048109345,9.042499932294005,0.6048851212362816,jump
05/08/2020, 15:29:49,-8.234077,-4.873865,1.4130616,-0.69600624,-0.14531177,-0.7765584,9.672193956508602,1.0528927498400777,jump
05/08/2020, 15:29:49,-7.9610453,-4.6654983,1.5232325,-0.69600624,-0.14531177,-0.7765584,9.35229131415973,1.0528927498400777,jump
05/08/2020, 15:29:49,-7.9610453,-4.6654983,1.5232325,-0.28428325,-0.013364935,-0.58230335,9.35229131415973,0.6481302136803154,jump
05/08/2020, 15:29:49,-7.6401124,-4.478687,1.6932789,-0.28428325,-0.013364935,-0.58230335,9.016493025903543,0.6481302136803154,jump
05/08/2020, 15:29:49,-7.6401124,-4.478687,1.6932789,0.0834575,0.124690555,-0.4014873,9.016493025903543,0.4286081351303907,jump
05/08/2020, 15:29:49,-7.30481,-4.248765,1.7818946,0.0834575,0.124690555,-0.4014873,8.636399829766976,0.4286081351303907,jump
05/08/2020, 15:29:49,-7.30481,-4.248765,1.7818946,0.38766825,0.2822937,-0.23288856,8.636399829766976,0.5331167734635516,jump
05/08/2020, 15:29:49,-7.0293827,-4.040398,1.7220191,0.38766825,0.2822937,-0.23288856,8.288690360819862,0.5331167734635516,jump
05/08/2020, 15:29:49,-7.0293827,-4.040398,1.7220191,0.61368835,0.46188805,-0.08505923,8.288690360819862,0.7727800656641615,jump
05/08/2020, 15:29:49,-6.864126,-3.7937112,1.6405884,0.61368835,0.46188805,-0.08505923,8.01249046365411,0.7727800656641615,jump
05/08/2020, 15:29:49,-6.864126,-3.7937112,1.6405884,0.787174,0.62926507,0.046887614,8.01249046365411,1.0088686046877111,jump
05/08/2020, 15:29:49,-6.809041,-3.5134938,1.4441968,0.787174,0.62926507,0.046887614,7.7970111342909485,1.0088686046877111,jump
05/08/2020, 15:29:49,-6.809041,-3.5134938,1.4441968,0.92889464,0.756325,0.17150408,7.7970111342909485,1.2100770286984686,jump
05/08/2020, 15:29:49,-6.835386,-3.3099172,1.1879297,0.92889464,0.756325,0.17150408,7.686951805733419,1.2100770286984686,jump
05/08/2020, 15:29:49,-6.835386,-3.3099172,1.1879297,1.0254114,0.8394026,0.29123363,7.686951805733419,1.3567911596367264,jump
05/08/2020, 15:29:49,-6.8832865,-3.1925611,0.96758795,1.0254114,0.8394026,0.29123363,7.649072221078806,1.3567911596367264,jump
05/08/2020, 15:29:49,-6.8832865,-3.1925611,0.96758795,1.0828327,0.891937,0.4158501,7.649072221078806,1.4632189154312563,jump
05/08/2020, 15:29:49,-6.9240017,-3.0177248,0.90052736,1.0828327,0.891937,0.4158501,7.6065374289965835,1.4632189154312563,jump
05/08/2020, 15:29:49,-6.9240017,-3.0177248,0.90052736,1.1097107,0.93469757,0.54168826,7.6065374289965835,1.5487231973735647,jump
05/08/2020, 15:29:49,-6.9240017,-2.9746144,0.855022,1.1097107,0.93469757,0.54168826,7.584272728357195,1.5487231973735647,jump
05/08/2020, 15:29:50,-9.347761,-2.7734327,1.3891114,-0.91103077,-0.3566711,0.58933574,9.848969397505838,1.1421505796596851,jump
05/08/2020, 15:29:50,-9.074729,-2.9051588,1.5232325,-0.91103077,-0.3566711,0.58933574,9.649398444431075,1.1421505796596851,jump
05/08/2020, 15:29:50,-9.074729,-2.9051588,1.5232325,-0.9171394,-0.30780187,0.67852205,9.649398444431075,1.1816424436865316,jump
05/08/2020, 15:29:50,-8.789722,-3.1039455,1.710044,-0.9171394,-0.30780187,0.67852205,9.477233183709737,1.1816424436865316,jump
05/08/2020, 15:29:50,-8.789722,-3.1039455,1.710044,-0.8853744,-0.22961114,0.76526487,9.477233183709737,1.1925768202647502,jump
05/08/2020, 15:29:50,-8.598121,-3.2739918,1.9399658,-0.8853744,-0.22961114,0.76526487,9.40266820238781,1.1925768202647502,jump
05/08/2020, 15:29:50,-8.598121,-3.2739918,1.9399658,-0.8071837,-0.12332064,0.8556729,9.40266820238781,1.1827635362989626,jump
05/08/2020, 15:29:50,-8.432864,-3.4608033,2.3375392,-0.8071837,-0.12332064,0.8556729,9.410337252272809,1.1827635362989626,jump
05/08/2020, 15:29:50,-8.432864,-3.4608033,2.3375392,-0.6776803,0.011069666,0.94852436,9.410337252272809,1.1657922622126813,jump
05/08/2020, 15:29:50,-8.456815,-3.67875,2.6369166,-0.6776803,0.011069666,0.94852436,9.591884443691285,1.1657922622126813,jump
05/08/2020, 15:29:50,-8.456815,-3.67875,2.6369166,-0.51152503,0.15767728,1.0401541,9.591884443691285,1.169803631358593,jump
05/08/2020, 15:29:50,-8.605306,-3.8248463,2.8907888,-0.51152503,0.15767728,1.0401541,9.850756038182404,1.169803631358593,jump
05/08/2020, 15:29:50,-8.605306,-3.8248463,2.8907888,-0.3184917,0.29084584,1.1232318,9.850756038182404,1.2031948597763678,jump
05/08/2020, 15:29:50,-8.763377,-3.9589674,3.0728102,-0.3184917,0.29084584,1.1232318,10.095165445695859,1.2031948597763678,jump
05/08/2020, 15:29:50,-8.763377,-3.9589674,3.0728102,-0.12668008,0.38980597,1.2002007,10.095165445695859,1.2682579401749772,jump
05/08/2020, 15:29:50,-8.923843,-3.9901028,3.1111305,-0.12668008,0.38980597,1.2002007,10.25841282440105,1.2682579401749772,jump
05/08/2020, 15:29:50,-8.923843,-3.9901028,3.1111305,0.051692516,0.46555322,1.2698393,10.25841282440105,1.353478383624665,jump
05/08/2020, 15:29:50,-9.077125,-3.923042,3.1566358,0.051692516,0.46555322,1.2698393,10.380211907775841,1.353478383624665,jump
05/08/2020, 15:29:50,-9.077125,-3.923042,3.1566358,0.20318703,0.5290832,1.3284824,10.380211907775841,1.4443266438382287,jump
05/08/2020, 15:29:50,-9.172925,-3.8535867,2.9482691,0.20318703,0.5290832,1.3284824,10.377137084932253,1.4443266438382287,jump
05/08/2020, 15:29:51,-9.671089,-3.530259,0.6562354,-0.7436537,-0.05001684,0.67485684,10.31616879148106,1.0054622261020825,jump
05/08/2020, 15:29:51,-9.616004,-3.7290456,0.65384036,-0.7436537,-0.05001684,0.67485684,10.33444828068989,1.0054622261020825,jump
05/08/2020, 15:29:51,-9.616004,-3.7290456,0.65384036,-0.7216626,-0.009699745,0.6882959,10.33444828068989,0.9973175085753242,jump
05/08/2020, 15:29:51,-9.524993,-3.9206471,0.76161623,-0.7216626,-0.009699745,0.6882959,10.32845699379358,0.9973175085753242,jump
05/08/2020, 15:29:51,-9.524993,-3.9206471,0.76161623,-0.6715717,0.025730425,0.69440454,10.32845699379358,0.9663685807954703,jump
05/08/2020, 15:29:51,-9.481883,-4.102669,0.8095166,-0.6715717,0.025730425,0.69440454,10.363074556679663,0.9663685807954703,jump
05/08/2020, 15:29:51,-9.481883,-4.102669,0.8095166,-0.61415035,0.051386755,0.6882959,10.363074556679663,0.9238898702424606,jump
05/08/2020, 15:29:51,-9.333391,-4.0835085,0.85023195,-0.61415035,0.051386755,0.6882959,10.223019468782095,0.9238898702424606,jump
05/08/2020, 15:29:51,-9.333391,-4.0835085,0.85023195,-0.57749844,0.07215617,0.65897435,10.223019468782095,0.8791803850777192,jump
05/08/2020, 15:29:51,-9.137,-4.006868,0.83586186,-0.57749844,0.07215617,0.65897435,10.011914194500402,0.8791803850777192,jump
05/08/2020, 15:29:51,-9.137,-4.006868,0.83586186,-0.60193306,0.0941473,0.5978879,10.011914194500402,0.8536141020341652,jump
05/08/2020, 15:29:51,-8.907078,-3.8703518,0.7185059,-0.60193306,0.0941473,0.5978879,9.738167614568,0.8536141020341652,jump
05/08/2020, 15:29:51,-8.907078,-3.8703518,0.7185059,-0.73510164,0.11369499,0.49281907,9.738167614568,0.8922844884679171,jump
05/08/2020, 15:29:51,-8.772957,-3.7098854,0.5340894,-0.73510164,0.11369499,0.49281907,9.540087667713257,0.8922844884679171,jump
05/08/2020, 15:29:51,-8.772957,-3.7098854,0.5340894,-0.97333896,0.12835576,0.34987667,9.540087667713257,1.0422464295947396,jump
05/08/2020, 15:29:51,-8.657996,-3.5206788,0.33290774,-0.97333896,0.12835576,0.34987667,9.352374259775008,1.0422464295947396,jump
05/08/2020, 15:29:51,-8.657996,-3.5206788,0.33290774,-1.2506717,0.1344644,0.18983002,9.352374259775008,1.2721226053189367,jump
05/08/2020, 15:29:51,-8.6077,-3.4488282,0.2778223,-1.2506717,0.1344644,0.18983002,9.2770742475947,1.2721226053189367,jump
05/08/2020, 15:29:51,-8.6077,-3.4488282,0.2778223,-1.4840221,0.12713403,0.043222424,9.2770742475947,1.4900848807184772,jump
05/08/2020, 15:29:51,-8.495134,-3.6092947,0.2802173,-1.4840221,0.12713403,0.043222424,9.234329283042758,1.4900848807184772,jump
05/08/2020, 15:29:52,-10.528506,-4.152964,-0.855022,5.489613,10.460527,5.0572023,11.350225462582966,12.850438938473463,jump
05/08/2020, 15:29:52,-10.528506,-4.152964,-0.855022,5.2635927,11.430581,3.6118958,11.350225462582966,13.092340650535728,jump
05/08/2020, 15:29:52,-15.996336,-10.174044,-1.346001,5.2635927,11.430581,3.6118958,19.005411017967074,13.092340650535728,jump
05/08/2020, 15:29:52,-15.996336,-10.174044,-1.346001,4.872639,12.168506,2.873971,19.005411017967074,13.419197144527136,jump
05/08/2020, 15:29:52,-24.84833,-14.362933,-2.5770411,4.872639,12.168506,2.873971,28.8162188904309,13.419197144527136,jump
05/08/2020, 15:29:52,-24.84833,-14.362933,-2.5770411,4.8885217,11.8520775,3.0315742,28.8162188904309,13.17421068790789,jump
05/08/2020, 15:29:52,-33.420105,-14.300662,-0.8167017,4.8885217,11.8520775,3.0315742,36.360409147748214,13.17421068790789,jump
05/08/2020, 15:29:52,-33.420105,-14.300662,-0.8167017,5.3906527,10.146543,3.1989512,36.360409147748214,11.92664038314032,jump
05/08/2020, 15:29:52,-34.876274,-9.745335,1.1543995,5.3906527,10.146543,3.1989512,36.23063180396618,11.92664038314032,jump
05/08/2020, 15:29:52,-34.876274,-9.745335,1.1543995,5.729072,7.8961153,2.7371373,36.23063180396618,10.132266510136873,jump
05/08/2020, 15:29:52,-29.065958,-4.6032276,2.3974147,5.729072,7.8961153,2.7371373,29.52570435139861,10.132266510136873,jump
05/08/2020, 15:29:52,-29.065958,-4.6032276,2.3974147,5.129203,6.4153786,1.9356822,29.52570435139861,8.438759950235962,jump
05/08/2020, 15:29:52,-24.010073,-1.2382251,3.05844,5.129203,6.4153786,1.9356822,24.235734936332182,8.438759950235962,jump
05/08/2020, 15:29:52,-24.010073,-1.2382251,3.05844,3.7510912,5.927908,1.3956776,24.235734936332182,7.152530598576854,jump
05/08/2020, 15:29:52,-21.761148,1.8968556,3.3218923,3.7510912,5.927908,1.3956776,22.094809601345656,7.152530598576854,jump
05/08/2020, 15:29:52,-21.761148,1.8968556,3.3218923,2.2141547,5.8191743,1.031602,22.094809601345656,6.311059600213741,jump
05/08/2020, 15:29:52,-21.143234,3.5829494,3.1111305,2.2141547,5.8191743,1.031602,21.669171971155954,6.311059600213741,jump
05/08/2020, 15:29:52,-21.143234,3.5829494,3.1111305,0.7932826,5.5589457,0.59300095,21.669171971155954,5.646487780665898,jump
05/08/2020, 15:29:52,-22.254522,2.8716285,2.3614893,0.7932826,5.5589457,0.59300095,22.562948520091364,5.646487780665898,jump
05/08/2020, 15:29:52,-22.254522,2.8716285,2.3614893,-0.28061807,4.981067,0.28879017,22.562948520091364,4.9973169321411985,jump
05/08/2020, 15:29:53,-8.8951025,-6.444998,-0.045505375,-0.36613917,0.9933406,1.2527351,10.984667301356138,1.6401612087159239,jump
05/08/2020, 15:29:53,-8.873548,-6.5048733,0.14370118,-0.36613917,0.9933406,1.2527351,11.00335733112438,1.6401612087159239,jump
05/08/2020, 15:29:53,-8.873548,-6.5048733,0.14370118,-0.24518788,0.93469757,1.334591,11.00335733112438,1.6476983523828301,jump
05/08/2020, 15:29:53,-8.842413,-6.5120583,0.40715334,-0.24518788,0.93469757,1.334591,10.98912841634147,1.6476983523828301,jump
05/08/2020, 15:29:53,-8.842413,-6.5120583,0.40715334,-0.10591066,0.8931588,1.4127817,10.98912841634147,1.674784127378845,jump
05/08/2020, 15:29:53,-8.722662,-6.5048733,0.6227051,-0.10591066,0.8931588,1.4127817,10.898897644085235,1.674784127378845,jump
05/08/2020, 15:29:53,-8.722662,-6.5048733,0.6227051,0.032144837,0.8748328,1.4836421,10.898897644085235,1.7226606220952498,jump
05/08/2020, 15:29:53,-8.681946,-6.373147,0.8382569,0.032144837,0.8748328,1.4836421,10.802585816920743,1.7226606220952498,jump
05/08/2020, 15:29:53,-8.681946,-6.373147,0.8382569,0.15065265,0.87971973,1.5435069,10.802585816920743,1.782979657738769,jump
05/08/2020, 15:29:53,-8.643626,-6.236631,0.8047266,0.15065265,0.87971973,1.5435069,10.68903289371674,1.782979657738769,jump
05/08/2020, 15:29:53,-8.643626,-6.236631,0.8047266,0.24228239,0.90415436,1.5862674,10.68903289371674,1.841857751397506,jump
05/08/2020, 15:29:53,-8.713081,-6.006709,0.7089258,0.24228239,0.90415436,1.5862674,10.606644933629873,1.841857751397506,jump
05/08/2020, 15:29:53,-8.713081,-6.006709,0.7089258,0.31680793,0.92981064,1.6119237,10.606644933629873,1.8876475018485017,jump
05/08/2020, 15:29:53,-8.832832,-5.910908,0.76161623,0.31680793,0.92981064,1.6119237,10.65541282055645,1.8876475018485017,jump
05/08/2020, 15:29:53,-8.832832,-5.910908,0.76161623,0.3803379,0.9518018,1.6168107,10.65541282055645,1.914330250820075,jump
05/08/2020, 15:29:53,-9.036409,-5.855823,0.847837,0.3803379,0.9518018,1.6168107,10.80121222148287,1.914330250820075,jump
05/08/2020, 15:29:53,-9.036409,-5.855823,0.847837,0.4255419,0.9774581,1.5935978,10.80121222148287,1.9173064809669826,jump
05/08/2020, 15:29:53,-9.321417,-5.9564137,1.0873389,0.4255419,0.9774581,1.5935978,11.115303991824993,1.9173064809669826,jump
05/08/2020, 15:29:53,-9.321417,-5.9564137,1.0873389,0.48051974,1.0018927,1.5532807,11.115303991824993,1.9098086668511296,jump
05/08/2020, 15:29:53,-9.704619,-6.1240654,1.3747413,0.48051974,1.0018927,1.5532807,11.557410114130384,1.9098086668511296,jump
05/08/2020, 15:29:54,-9.359736,-3.2093263,2.2537134,0.046805598,0.6695822,1.3235954,10.148086781023485,1.4840606004452,jump
05/08/2020, 15:29:54,-9.400452,-3.1973512,2.2177882,0.046805598,0.6695822,1.3235954,10.173992864546905,1.4840606004452,jump
05/08/2020, 15:29:54,-9.400452,-3.1973512,2.2177882,0.023592725,0.6744691,1.3040477,10.173992864546905,1.4683342995353543,jump
05/08/2020, 15:29:54,-9.577683,-3.178191,2.1746778,0.023592725,0.6744691,1.3040477,10.322894055656192,1.4683342995353543,jump
05/08/2020, 15:29:54,-9.577683,-3.178191,2.1746778,-0.0032853354,0.6500345,1.2771697,10.322894055656192,1.4330799286752862,jump
05/08/2020, 15:29:54,-9.584868,-3.1039455,2.1124072,-0.0032853354,0.6500345,1.2771697,10.29400042157718,1.4330799286752862,jump
05/08/2020, 15:29:54,-9.584868,-3.1039455,2.1124072,-0.033828586,0.59627837,1.2490699,10.29400042157718,1.3845100053589734,jump
05/08/2020, 15:29:54,-9.596844,-3.0967603,2.0118165,-0.033828586,0.59627837,1.2490699,10.282837118259481,1.3845100053589734,jump
05/08/2020, 15:29:54,-9.596844,-3.0967603,2.0118165,-0.074145675,0.5351919,1.2148615,10.282837118259481,1.3295925833935103,jump
05/08/2020, 15:29:54,-9.568104,-3.0871804,2.0142114,-0.074145675,0.5351919,1.2148615,10.253601340272956,1.3295925833935103,jump
05/08/2020, 15:29:54,-9.568104,-3.0871804,2.0142114,-0.12668008,0.48265743,1.1769879,10.253601340272956,1.2783999857979724,jump
05/08/2020, 15:29:54,-9.469908,-3.0129347,2.0357666,-0.12668008,0.48265743,1.1769879,10.144026521321829,1.2783999857979724,jump
05/08/2020, 15:29:54,-9.469908,-3.0129347,2.0357666,-0.18654485,0.44600555,1.1330055,10.144026521321829,1.2318365951767927,jump
05/08/2020, 15:29:54,-9.400452,-3.06802,1.9854712,-0.18654485,0.44600555,1.1330055,10.085798672438528,1.2318365951767927,jump
05/08/2020, 15:29:54,-9.400452,-3.06802,1.9854712,-0.24763134,0.41790575,1.0878016,10.085798672438528,1.191334866141214,jump
05/08/2020, 15:29:54,-9.357342,-3.032095,1.9998415,-0.24763134,0.41790575,1.0878016,10.037569954075797,1.191334866141214,jump
05/08/2020, 15:29:54,-9.357342,-3.032095,1.9998415,-0.30627438,0.39224944,1.0377107,10.037569954075797,1.1508722976727936,jump
05/08/2020, 15:29:54,-9.342972,-3.04886,1.9351759,-0.30627438,0.39224944,1.0377107,10.016565058990267,1.1508722976727936,jump
05/08/2020, 15:29:54,-9.342972,-3.04886,1.9351759,-0.3588088,0.3629279,0.98761976,10.016565058990267,1.1116893455016628,jump
05/08/2020, 15:29:54,-9.390872,-3.0608351,1.9830762,-0.3588088,0.3629279,0.98761976,10.074213610777436,1.1116893455016628,jump
05/08/2020, 15:29:55,-8.552615,-6.452183,0.4047583,-1.0246516,0.050165024,0.47204968,10.721087535892671,1.1292734080113067,jump
05/08/2020, 15:29:55,-8.552615,-6.452183,0.4047583,-0.8157358,0.089260384,0.48304525,10.721087535892671,0.9522211156099974,jump
05/08/2020, 15:29:55,-8.375383,-6.334827,0.4742139,-0.8157358,0.089260384,0.48304525,10.51199115169242,0.9522211156099974,jump
05/08/2020, 15:29:55,-8.375383,-6.334827,0.4742139,-0.61781555,0.14912516,0.47204968,10.51199115169242,0.791685086039408,jump
05/08/2020, 15:29:55,-8.3179035,-6.167176,0.4981641,-0.61781555,0.14912516,0.47204968,10.366761470189465,0.791685086039408,jump
05/08/2020, 15:29:55,-8.3179035,-6.167176,0.4981641,-0.4369995,0.2114334,0.45983237,10.366761470189465,0.6686691651463845,jump
05/08/2020, 15:29:55,-8.260423,-5.989944,0.5748047,-0.4369995,0.2114334,0.45983237,10.219804922757907,0.6686691651463845,jump
05/08/2020, 15:29:55,-8.260423,-5.989944,0.5748047,-0.28917018,0.27007642,0.44150642,10.219804922757907,0.5928647234617669,jump
05/08/2020, 15:29:55,-8.250843,-5.836663,0.5628296,-0.28917018,0.27007642,0.44150642,10.122243845170358,0.5928647234617669,jump
05/08/2020, 15:29:55,-8.250843,-5.836663,0.5628296,-0.17310582,0.3177239,0.41829357,10.122243845170358,0.5530674542034697,jump
05/08/2020, 15:29:55,-8.241262,-5.5875807,0.5604346,-0.17310582,0.3177239,0.41829357,9.972640137940374,0.5530674542034697,jump
05/08/2020, 15:29:55,-8.241262,-5.5875807,0.5604346,-0.0912499,0.34948888,0.3914155,9.972640137940374,0.5326116060448085,jump
05/08/2020, 15:29:55,-8.2197075,-5.381609,0.5963599,-0.0912499,0.34948888,0.3914155,9.842812168089386,0.5326116060448085,jump
05/08/2020, 15:29:55,-8.2197075,-5.381609,0.5963599,-0.044824153,0.37270173,0.35965052,9.842812168089386,0.5198694891754624,jump
05/08/2020, 15:29:55,-8.195757,-5.2355127,0.5412744,-0.044824153,0.37270173,0.35965052,9.740328688160913,0.5198694891754624,jump
05/08/2020, 15:29:55,-8.195757,-5.2355127,0.5412744,-0.027719935,0.38980597,0.32544208,9.740328688160913,0.5085564233492472,jump
05/08/2020, 15:29:55,-8.205338,-5.0822315,0.5460645,-0.027719935,0.38980597,0.32544208,9.667203709584456,0.5085564233492472,jump
05/08/2020, 15:29:55,-8.205338,-5.0822315,0.5460645,-0.041158967,0.40202326,0.29245538,9.667203709584456,0.49884557254306583,jump
05/08/2020, 15:29:55,-8.190968,-5.029541,0.5245093,-0.041158967,0.40202326,0.29245538,9.626180052898519,0.49884557254306583,jump
05/08/2020, 15:29:55,-8.190968,-5.029541,0.5245093,-0.06437183,0.403245,0.2704642,9.626180052898519,0.489797054088093,jump
05/08/2020, 15:29:56,-8.708291,-3.65959,2.201023,0.27282566,0.40813193,0.3022292,9.699042982840576,0.5764963110851298,jump
05/08/2020, 15:29:56,-8.717872,-3.66438,2.2369483,0.27282566,0.40813193,0.3022292,9.717659450112304,0.5764963110851298,jump
05/08/2020, 15:29:56,-8.717872,-3.66438,2.2369483,0.2960385,0.40080154,0.27535114,9.717659450112304,0.5692968655031546,jump
05/08/2020, 15:29:56,-8.765772,-3.6045046,2.198628,0.2960385,0.40080154,0.27535114,9.72960300147505,0.5692968655031546,jump
05/08/2020, 15:29:56,-8.765772,-3.6045046,2.198628,0.31069928,0.39835808,0.24480788,9.72960300147505,0.5613858767392492,jump
05/08/2020, 15:29:56,-8.734636,-3.5997145,2.193838,0.31069928,0.39835808,0.24480788,9.698697885184766,0.5613858767392492,jump
05/08/2020, 15:29:56,-8.734636,-3.5997145,2.193838,0.3155862,0.39347115,0.2093777,9.698697885184766,0.5461256507650262,jump
05/08/2020, 15:29:56,-8.727451,-3.5661843,2.179468,0.3155862,0.39347115,0.2093777,9.676577770845247,0.5461256507650262,jump
05/08/2020, 15:29:56,-8.727451,-3.5661843,2.179468,0.30947754,0.38491905,0.16783889,9.676577770845247,0.5216405958558594,jump
05/08/2020, 15:29:56,-8.691526,-3.4847536,2.095642,0.30947754,0.38491905,0.16783889,9.595720653986655,0.5216405958558594,jump
05/08/2020, 15:29:56,-8.691526,-3.4847536,2.095642,0.30092543,0.36537138,0.12263487,9.595720653986655,0.4889700105690624,jump
05/08/2020, 15:29:56,-8.684341,-3.4440382,2.0285816,0.30092543,0.36537138,0.12263487,9.560038089232465,0.4889700105690624,jump
05/08/2020, 15:29:56,-8.684341,-3.4440382,2.0285816,0.29359505,0.3421585,0.07987432,9.560038089232465,0.45787596011593557,jump
05/08/2020, 15:29:56,-8.725057,-3.422483,1.9567311,0.29359505,0.3421585,0.07987432,9.574382470980476,0.45787596011593557,jump
05/08/2020, 15:29:56,-8.725057,-3.422483,1.9567311,0.27649084,0.32383254,0.035892043,9.574382470980476,0.4273206488887412,jump
05/08/2020, 15:29:56,-8.669971,-3.410508,1.9639161,0.27649084,0.32383254,0.035892043,9.521393583965025,0.4273206488887412,jump
05/08/2020, 15:29:56,-8.669971,-3.410508,1.9639161,0.25938663,0.30672833,-0.011755427,9.521393583965025,0.4018729696255255,jump
05/08/2020, 15:29:56,-8.701106,-3.3721876,1.8968556,0.25938663,0.30672833,-0.011755427,9.522549937577685,0.4018729696255255,jump
05/08/2020, 15:29:56,-8.701106,-3.3721876,1.8968556,0.24228239,0.2896241,-0.06551155,9.522549937577685,0.3832422679839636,jump
05/08/2020, 15:29:56,-8.722662,-3.3602126,1.8345851,0.24228239,0.2896241,-0.06551155,9.525836589942749,0.3832422679839636,jump
05/08/2020, 15:29:57,-9.263936,-3.4919386,-2.6776319,3.7291,-4.99558,-4.2010674,10.25591821726029,7.517378261453339,jump
05/08/2020, 15:29:57,-8.198153,-2.2225783,-3.163821,3.7291,-4.99558,-4.2010674,9.064177985464829,7.517378261453339,jump
05/08/2020, 15:29:57,-8.198153,-2.2225783,-3.163821,3.683896,-5.027345,-3.9762692,9.064177985464829,7.392970099348512,jump
05/08/2020, 15:29:57,-7.1084185,-1.0705738,-3.4895437,3.683896,-5.027345,-3.9762692,7.9907857194266505,7.392970099348512,jump
05/08/2020, 15:29:57,-7.1084185,-1.0705738,-3.4895437,3.5592794,-4.9919147,-3.7722404,7.9907857194266505,7.198435986070769,jump
05/08/2020, 15:29:57,-5.997129,-0.1101709,-3.4248781,3.5592794,-4.9919147,-3.7722404,6.9070604146505,7.198435986070769,jump
05/08/2020, 15:29:57,-5.997129,-0.1101709,-3.4248781,3.330816,-4.891733,-3.6036415,6.9070604146505,6.928897528744944,jump
05/08/2020, 15:29:57,-4.90979,0.5987549,-3.2620168,3.330816,-4.891733,-3.6036415,5.9249724949710165,6.928897528744944,jump
05/08/2020, 15:29:57,-4.90979,0.5987549,-3.2620168,2.9618535,-4.742682,-3.453369,5.9249724949710165,6.572013794845072,jump
05/08/2020, 15:29:57,-4.038003,1.1879297,-3.1446607,2.9618535,-4.742682,-3.453369,5.2540970724837015,6.572013794845072,jump
05/08/2020, 15:29:57,-4.038003,1.1879297,-3.1446607,2.5037048,-4.560644,-3.3043177,5.2540970724837015,6.163321204098218,jump
05/08/2020, 15:29:57,-3.2236965,1.583108,-3.1302907,2.5037048,-4.560644,-3.3043177,4.7641546854775205,6.163321204098218,jump
05/08/2020, 15:29:57,-3.2236965,1.583108,-3.1302907,2.018678,-4.3700542,-3.1564884,4.7641546854775205,5.756375066503058,jump
05/08/2020, 15:29:57,-2.454895,1.8776954,-3.2069314,2.018678,-4.3700542,-3.1564884,4.453836371868957,5.756375066503058,jump
05/08/2020, 15:29:57,-2.454895,1.8776954,-3.2069314,1.5776333,-4.1965685,-3.0111027,4.453836371868957,5.4006345108355935,jump
05/08/2020, 15:29:57,-1.7268091,2.0429518,-3.187771,1.5776333,-4.1965685,-3.0111027,4.161418801176572,5.4006345108355935,jump
05/08/2020, 15:29:57,-1.7268091,2.0429518,-3.187771,1.1866797,-4.0438523,-2.8767123,4.161418801176572,5.102589950765987,jump
05/08/2020, 15:29:57,-0.9484278,1.9447559,-3.04886,1.1866797,-4.0438523,-2.8767123,3.7386011537447903,5.102589950765987,jump
05/08/2020, 15:29:57,-0.9484278,1.9447559,-3.04886,0.8555909,-3.8752537,-2.7252178,3.7386011537447903,4.81419141496406,jump
05/08/2020, 15:29:57,-0.62989014,1.590293,-2.8380983,0.8555909,-3.8752537,-2.7252178,3.3136981557778786,4.81419141496406,jump
05/08/2020, 15:29:58,-9.726174,-3.283572,-0.4766089,-1.258002,-2.4934769,-1.1846163,10.276549441702832,3.033696074447918,jump
05/08/2020, 15:29:58,-9.187295,-3.3889527,-0.31135255,-1.258002,-2.4934769,-1.1846163,9.797363406231465,3.033696074447918,jump
05/08/2020, 15:29:58,-9.187295,-3.3889527,-0.31135255,-1.2445631,-2.307774,-1.2615852,9.797363406231465,2.909700288225967,jump
05/08/2020, 15:29:58,-8.950189,-3.5087037,-0.1580713,-1.2445631,-2.307774,-1.2615852,9.614669255005541,2.909700288225967,jump
05/08/2020, 15:29:58,-8.950189,-3.5087037,-0.1580713,-1.1798114,-2.1086318,-1.3202283,9.614669255005541,2.7534135146148673,jump
05/08/2020, 15:29:58,-8.792117,-3.6308498,-0.06466553,-1.1798114,-2.1086318,-1.3202283,9.512548323689353,2.7534135146148673,jump
05/08/2020, 15:29:58,-8.792117,-3.6308498,-0.06466553,-1.077186,-1.936368,-1.3556585,9.512548323689353,2.597625972704579,jump
05/08/2020, 15:29:58,-8.698711,-3.8248463,-0.06706055,-1.077186,-1.936368,-1.3556585,9.502711509213398,2.597625972704579,jump
05/08/2020, 15:29:58,-8.698711,-3.8248463,-0.06706055,-0.9501261,-1.7983125,-1.366654,9.502711509213398,2.4503899480266154,jump
05/08/2020, 15:29:58,-8.519085,-4.018843,-0.0023950196,-0.9501261,-1.7983125,-1.366654,9.419443414813756,2.4503899480266154,jump
05/08/2020, 15:29:58,-8.519085,-4.018843,-0.0023950196,-0.80351853,-1.6749178,-1.3471063,9.419443414813756,2.294708524576077,jump
05/08/2020, 15:29:58,-8.224498,-4.1074586,0.031135255,-0.80351853,-1.6749178,-1.3471063,9.193179508004192,2.294708524576077,jump
05/08/2020, 15:29:58,-8.224498,-4.1074586,0.031135255,-0.6446936,-1.5417492,-1.3031241,9.193179508004192,2.119139663358369,jump
05/08/2020, 15:29:58,-7.903565,-4.248765,0.098195806,-0.6446936,-1.5417492,-1.3031241,8.973738628558324,2.119139663358369,jump
05/08/2020, 15:29:58,-7.903565,-4.248765,0.098195806,-0.48464698,-1.3853678,-1.2432593,8.973738628558324,1.9234916716444477,jump
05/08/2020, 15:29:58,-7.6041875,-4.368516,0.19639161,-0.48464698,-1.3853678,-1.2432593,8.771896533360358,1.9234916716444477,jump
05/08/2020, 15:29:58,-7.6041875,-4.368516,0.19639161,-0.31604823,-1.1972214,-1.1650686,8.771896533360358,1.7001795398027433,jump
05/08/2020, 15:29:58,-7.3862405,-4.4595265,0.28261232,-0.31604823,-1.1972214,-1.1650686,8.632716556163205,1.7001795398027433,jump
05/08/2020, 15:29:58,-7.3862405,-4.4595265,0.28261232,-0.124236606,-0.985862,-1.0697737,8.632716556163205,1.4600597124163404,jump
05/08/2020, 15:29:58,-7.288045,-4.5792775,0.366438,-0.124236606,-0.985862,-1.0697737,8.615083183956655,1.4600597124163404,jump
05/08/2020, 15:29:59,-8.938213,-2.8596535,1.2813355,-0.6227025,-0.21495038,-0.14370227,9.47159418687837,0.674249498948328,jump
05/08/2020, 15:29:59,-9.022039,-3.1326857,1.2861255,-0.6227025,-0.21495038,-0.14370227,9.636650535171697,0.674249498948328,jump
05/08/2020, 15:29:59,-9.022039,-3.1326857,1.2861255,-0.7705318,-0.28947592,-0.15469785,9.636650535171697,0.8375242957514558,jump
05/08/2020, 15:29:59,-9.105865,-3.3290772,1.22146,-0.7705318,-0.28947592,-0.15469785,9.771974648677741,0.8375242957514558,jump
05/08/2020, 15:29:59,-9.105865,-3.3290772,1.22146,-0.88293093,-0.37255356,-0.1571413,9.771974648677741,0.971111000595348,jump
05/08/2020, 15:29:59,-9.079519,-3.4655933,1.1951149,-0.88293093,-0.37255356,-0.1571413,9.791644749451441,0.971111000595348,jump
05/08/2020, 15:29:59,-9.079519,-3.4655933,1.1951149,-0.97456074,-0.45318776,-0.15591957,9.791644749451441,1.0860288632193693,jump
05/08/2020, 15:29:59,-8.950189,-3.6164796,1.1376343,-0.97456074,-0.45318776,-0.15591957,9.720031550104418,1.0860288632193693,jump
05/08/2020, 15:29:59,-8.950189,-3.6164796,1.1376343,-1.0441993,-0.5203829,-0.15958476,9.720031550104418,1.1775474156725283,jump
05/08/2020, 15:29:59,-8.825647,-3.7434156,1.104104,-1.0441993,-0.5203829,-0.15958476,9.650091049582242,1.1775474156725283,jump
05/08/2020, 15:29:59,-8.825647,-3.7434156,1.104104,-1.0894034,-0.56680864,-0.17058033,9.650091049582242,1.2398263715809221,jump
05/08/2020, 15:29:59,-8.598121,-3.8775368,1.1400293,-1.0894034,-0.56680864,-0.17058033,9.500665116240839,1.2398263715809221,jump
05/08/2020, 15:29:59,-8.598121,-3.8775368,1.1400293,-1.1162814,-0.58391285,-0.18524109,9.500665116240839,1.273323454034276,jump
05/08/2020, 15:29:59,-8.471185,-3.9733377,1.2286451,-1.1162814,-0.58391285,-0.18524109,9.437052059308876,1.273323454034276,jump
05/08/2020, 15:29:59,-8.471185,-3.9733377,1.2286451,-1.1260552,-0.5692521,-0.2060105,9.437052059308876,1.2784712186194003,jump
05/08/2020, 15:29:59,-8.514295,-4.071533,1.223855,-1.1260552,-0.5692521,-0.2060105,9.516744016763893,1.2784712186194003,jump
05/08/2020, 15:29:59,-8.514295,-4.071533,1.223855,-1.1284987,-0.53260016,-0.2304451,9.516744016763893,1.268966956250968,jump
05/08/2020, 15:29:59,-8.612491,-4.140989,1.0466236,-1.1284987,-0.53260016,-0.2304451,9.613438753251357,1.268966956250968,jump
05/08/2020, 15:29:59,-8.612491,-4.140989,1.0466236,-1.1199466,-0.5057221,-0.2585449,9.613438753251357,1.2557391026156315,jump
05/08/2020, 15:29:59,-8.753797,-4.1146436,0.92926764,-1.1199466,-0.5057221,-0.2585449,9.717138705110475,1.2557391026156315,jump
05/08/2020, 15:30:00,-8.296348,-2.9099488,1.6477735,0.024814455,-0.3456755,-0.49189532,8.944961905493013,0.601721124075328,jump
05/08/2020, 15:30:00,-8.0305,-2.9722195,1.7339942,0.024814455,-0.3456755,-0.49189532,8.73669053311606,0.601721124075328,jump
05/08/2020, 15:30:00,-8.0305,-2.9722195,1.7339942,0.10422691,-0.25893268,-0.46501726,8.73669053311606,0.5423563705501576,jump
05/08/2020, 15:30:00,-7.8484793,-3.0416749,1.8226099,0.10422691,-0.25893268,-0.46501726,8.612335317823439,0.5423563705501576,jump
05/08/2020, 15:30:00,-7.8484793,-3.0416749,1.8226099,0.19707838,-0.1587508,-0.42347842,8.612335317823439,0.4933312071691224,jump
05/08/2020, 15:30:00,-7.699988,-3.1326857,1.9734962,0.19707838,-0.1587508,-0.42347842,8.543899588550929,0.4933312071691224,jump
05/08/2020, 15:30:00,-7.699988,-3.1326857,1.9734962,0.30703408,-0.051238567,-0.3685006,8.543899588550929,0.48237744469586674,jump
05/08/2020, 15:30:00,-7.6137676,-3.2596216,2.0309765,0.30703408,-0.051238567,-0.3685006,8.527570358473325,0.48237744469586674,jump
05/08/2020, 15:30:00,-7.6137676,-3.2596216,2.0309765,0.42676362,0.056273676,-0.30741408,8.527570358473325,0.5289587288687476,jump
05/08/2020, 15:30:00,-7.606582,-3.3123121,2.1076174,0.42676362,0.056273676,-0.30741408,8.559997363519098,0.5289587288687476,jump
05/08/2020, 15:30:00,-7.606582,-3.3123121,2.1076174,0.55748874,0.16256419,-0.2341103,8.559997363519098,0.6261217457844725,jump
05/08/2020, 15:30:00,-7.6353226,-3.403323,2.191443,0.55748874,0.16256419,-0.2341103,8.641943070631712,0.6261217457844725,jump
05/08/2020, 15:30:00,-7.6353226,-3.403323,2.191443,0.7016529,0.26030257,-0.15958476,8.641943070631712,0.7652068320926996,jump
05/08/2020, 15:30:00,-7.676038,-3.5063088,2.2225783,0.7016529,0.26030257,-0.15958476,8.726718268068442,0.7652068320926996,jump
05/08/2020, 15:30:00,-7.676038,-3.5063088,2.2225783,0.8445953,0.34582368,-0.07650712,8.726718268068442,0.915854025999754,jump
05/08/2020, 15:30:00,-7.699988,-3.5805542,2.2177882,0.8445953,0.34582368,-0.07650712,8.776603373849978,0.915854025999754,jump
05/08/2020, 15:30:00,-7.699988,-3.5805542,2.2177882,0.98387253,0.42157096,0.011457441,8.776603373849978,1.070447806008143,jump
05/08/2020, 15:30:00,-7.795789,-3.5494192,2.208208,0.98387253,0.42157096,0.011457441,8.84583980280723,1.070447806008143,jump
05/08/2020, 15:30:00,-7.795789,-3.5494192,2.208208,1.1048238,0.49365303,0.099422,8.84583980280723,1.2141720379521528,jump
05/08/2020, 15:30:00,-7.7790236,-3.558999,2.2417383,1.1048238,0.49365303,0.099422,8.843363269616058,1.2141720379521528,jump
05/08/2020, 15:30:01,-7.676038,-4.064348,0.7424561,-0.8438356,0.21754205,-0.59940755,8.71732319106493,1.0576731379244195,jump
05/08/2020, 15:30:01,-7.7646537,-4.4762917,1.0346485,-0.8438356,0.21754205,-0.59940755,9.02205804696652,1.0576731379244195,jump
05/08/2020, 15:30:01,-7.7646537,-4.4762917,1.0346485,-0.7338799,0.3055066,-0.479678,9.02205804696652,0.9284422468663615,jump
05/08/2020, 15:30:01,-7.8341093,-4.8523097,1.343606,-0.7338799,0.3055066,-0.479678,9.31254289416931,0.9284422468663615,jump
05/08/2020, 15:30:01,-7.8341093,-4.8523097,1.343606,-0.56161594,0.39224944,-0.34650946,9.31254289416931,0.7676854117368915,jump
05/08/2020, 15:30:01,-7.91075,-5.1828227,1.5735279,-0.56161594,0.39224944,-0.34650946,9.587366974932563,0.7676854117368915,jump
05/08/2020, 15:30:01,-7.91075,-5.1828227,1.5735279,-0.32460034,0.48265743,-0.20234531,9.587366974932563,0.61584673611406,jump
05/08/2020, 15:30:01,-7.9873905,-5.4414845,1.7268091,-0.32460034,0.48265743,-0.20234531,9.817842438315676,0.61584673611406,jump
05/08/2020, 15:30:01,-7.9873905,-5.4414845,1.7268091,-0.03627205,0.57673067,-0.052072518,9.817842438315676,0.5802115757735441,jump
05/08/2020, 15:30:01,-8.135881,-5.6498513,1.7842896,-0.03627205,0.57673067,-0.052072518,10.064644846115547,0.5802115757735441,jump
05/08/2020, 15:30:01,-8.135881,-5.6498513,1.7842896,0.27282566,0.6879081,0.09331335,10.064644846115547,0.7458946261365842,jump
05/08/2020, 15:30:01,-8.392149,-5.724097,1.7699195,0.27282566,0.6879081,0.09331335,10.311453017852052,0.7458946261365842,jump
05/08/2020, 15:30:01,-8.392149,-5.724097,1.7699195,0.5794799,0.79419863,0.22648193,10.311453017852052,1.0088817845654503,jump
05/08/2020, 15:30:01,-8.770562,-5.5660257,1.4489869,0.5794799,0.79419863,0.22648193,10.488229892797083,1.0088817845654503,jump
05/08/2020, 15:30:01,-8.770562,-5.5660257,1.4489869,0.85070395,0.86383724,0.32177687,10.488229892797083,1.2543732903332365,jump
05/08/2020, 15:30:01,-9.108259,-5.3145485,1.1424243,0.85070395,0.86383724,0.32177687,10.60707050678943,1.2543732903332365,jump
05/08/2020, 15:30:01,-9.108259,-5.3145485,1.1424243,1.076724,0.86750245,0.38408512,10.60707050678943,1.435066746159454,jump
05/08/2020, 15:30:01,-9.400452,-5.029541,0.79754156,1.076724,0.86750245,0.38408512,10.69115741071611,1.435066746159454,jump
05/08/2020, 15:30:01,-9.400452,-5.029541,0.79754156,1.2367706,0.819855,0.41462836,10.69115741071611,1.5406753209983566,jump
05/08/2020, 15:30:01,-9.558523,-4.7708793,0.55324954,1.2367706,0.819855,0.41462836,10.697323936084237,1.5406753209983566,jump
05/08/2020, 15:30:02,-8.598121,-3.9541774,1.4226416,-0.45166028,-0.27848035,0.41951528,9.570115326380607,0.6764180527349901,jump
05/08/2020, 15:30:02,-8.598121,-3.9541774,1.4226416,-0.42356047,-0.2638196,0.36698088,9.570115326380607,0.6194184552708326,jump
05/08/2020, 15:30:02,-8.262817,-3.9517825,1.4370118,-0.42356047,-0.2638196,0.36698088,9.271231783030531,0.6194184552708326,jump
05/08/2020, 15:30:02,-8.262817,-3.9517825,1.4370118,-0.36980435,-0.2320546,0.30833784,9.271231783030531,0.5344874379769585,jump
05/08/2020, 15:30:02,-8.047266,-3.9589674,1.4897022,-0.36980435,-0.2320546,0.30833784,9.091266476453253,0.5344874379769585,jump
05/08/2020, 15:30:02,-8.047266,-3.9589674,1.4897022,-0.298944,-0.18562886,0.24969481,9.091266476453253,0.43147779190549046,jump
05/08/2020, 15:30:02,-7.9466753,-3.999683,1.465752,-0.298944,-0.18562886,0.24969481,9.016403972862937,0.43147779190549046,jump
05/08/2020, 15:30:02,-7.9466753,-3.999683,1.465752,-0.21830982,-0.1343162,0.19960387,9.016403972862937,0.3248718604129069,jump
05/08/2020, 15:30:02,-7.9945755,-3.9493873,1.3723463,-0.21830982,-0.1343162,0.19960387,9.021875187033888,0.3248718604129069,jump
05/08/2020, 15:30:02,-7.9945755,-3.9493873,1.3723463,-0.12912354,-0.09033393,0.15439986,9.021875187033888,0.2206182748321989,jump
05/08/2020, 15:30:02,-8.181387,-3.8751419,1.343606,-0.12912354,-0.09033393,0.15439986,9.151890180993012,0.2206182748321989,jump
05/08/2020, 15:30:02,-8.181387,-3.8751419,1.343606,-0.054597996,-0.06956452,0.11530449,9.151890180993012,0.14531101053489898,jump
05/08/2020, 15:30:02,-8.392149,-3.8128712,1.2741505,-0.054597996,-0.06956452,0.11530449,9.30535387596289,0.14531101053489898,jump
05/08/2020, 15:30:02,-8.392149,-3.8128712,1.2741505,-0.009393986,-0.062234137,0.07987432,9.30535387596289,0.10169189790122202,jump
05/08/2020, 15:30:02,-8.648416,-3.7362306,1.2022998,-0.009393986,-0.062234137,0.07987432,9.497369944733643,0.10169189790122202,jump
05/08/2020, 15:30:02,-8.648416,-3.7362306,1.2022998,0.004045044,-0.070786245,0.060326647,9.497369944733643,0.0930932823908657,jump
05/08/2020, 15:30:02,-8.892708,-3.652405,1.21188,0.004045044,-0.070786245,0.060326647,9.689631983219947,0.0930932823908657,jump
05/08/2020, 15:30:02,-8.892708,-3.652405,1.21188,-0.009393986,-0.09277739,0.050552804,9.689631983219947,0.10607297668850219,jump
05/08/2020, 15:30:02,-9.101074,-3.5685792,1.1543995,-0.009393986,-0.09277739,0.050552804,9.843624721531103,0.10607297668850219,jump
05/08/2020, 15:30:02,-9.101074,-3.5685792,1.1543995,-0.047267616,-0.1257641,0.048109345,9.843624721531103,0.14270720332194176,jump
05/08/2020, 15:30:03,-2.335144,3.0225148,-2.1531227,5.1536374,-6.0841413,-2.9744506,4.384567338198626,8.510235581416508,jump
05/08/2020, 15:30:03,-2.335144,3.0225148,-2.1531227,5.0204687,-5.551467,-2.4234505,4.384567338198626,7.867464869534949,jump
05/08/2020, 15:30:03,-2.074087,3.0057497,-2.4836354,5.0204687,-5.551467,-2.4234505,4.416425329206835,7.867464869534949,jump
05/08/2020, 15:30:03,-2.074087,3.0057497,-2.4836354,4.656393,-4.9748106,-1.8321332,4.416425329206835,7.056022160006377,jump
05/08/2020, 15:30:03,-1.7459693,3.4943337,-3.288362,4.656393,-4.9748106,-1.8321332,5.1060847927825215,7.056022160006377,jump
05/08/2020, 15:30:03,-1.7459693,3.4943337,-3.288362,4.1518188,-4.483675,-1.3654324,5.1060847927825215,6.261417257590479,jump
05/08/2020, 15:30:03,-1.4873072,3.8895118,-4.485872,4.1518188,-4.483675,-1.3654324,6.12073775285758,6.261417257590479,jump
05/08/2020, 15:30:03,-1.4873072,3.8895118,-4.485872,3.5580578,-4.163582,-1.1113125,6.12073775285758,5.588399099883092,jump
05/08/2020, 15:30:03,-1.2885206,4.126619,-5.702542,3.5580578,-4.163582,-1.1113125,7.155994117271352,5.588399099883092,jump
05/08/2020, 15:30:03,-1.2885206,4.126619,-5.702542,3.0021706,-4.0572915,-1.0013567,7.155994117271352,5.145615390696472,jump
05/08/2020, 15:30:03,-1.0178833,4.1888895,-6.353987,3.0021706,-4.0572915,-1.0013567,7.678283352385681,5.145615390696472,jump
05/08/2020, 15:30:03,-1.0178833,4.1888895,-6.353987,2.5183656,-4.1147127,-0.8804055,7.678283352385681,4.903890287437628,jump
05/08/2020, 15:30:03,-0.34967285,3.6068995,-7.527547,2.5183656,-4.1147127,-0.8804055,8.354397475419784,4.903890287437628,jump
05/08/2020, 15:30:03,-0.34967285,3.6068995,-7.527547,1.9954649,-4.2478814,-0.6409464,8.354397475419784,4.736791004282406,jump
05/08/2020, 15:30:03,0.86939216,2.8596535,-8.504715,1.9954649,-4.2478814,-0.6409464,9.014634621374208,4.736791004282406,jump
05/08/2020, 15:30:03,0.86939216,2.8596535,-8.504715,1.4774514,-4.403041,-0.24754933,9.014634621374208,4.650904479771596,jump
05/08/2020, 15:30:03,2.3016138,2.2489235,-8.844808,1.4774514,-4.403041,-0.24754933,9.411997935029476,4.650904479771596,jump
05/08/2020, 15:30:03,2.3016138,2.2489235,-8.844808,1.0168593,-4.526436,0.27412942,9.411997935029476,4.647340237560903,jump
05/08/2020, 15:30:03,3.3865578,1.6525636,-8.629255,1.0168593,-4.526436,0.27412942,9.416145026128987,4.647340237560903,jump
05/08/2020, 15:30:03,3.3865578,1.6525636,-8.629255,0.5855885,-4.549649,0.81657755,9.416145026128987,4.659293580066062,jump
