DATE,TIME,ax,ay,az,gx,gy,gz,ma,mg,label
05/08/2020, 15:31:52,-3.5063088,-1.3651612,9.340576,0.15065265,-0.20884173,0.22281674,10.069966714461676,0.3405266278438507,jump
05/08/2020, 15:31:52,-3.535049,-1.3603711,9.364527,0.15065265,-0.20884173,0.22281674,10.101561362091958,0.3405266278438507,jump
05/08/2020, 15:31:52,-3.535049,-1.3603711,9.364527,0.13477015,-0.22838941,0.2093777,10.101561362091958,0.33788125435737615,jump
05/08/2020, 15:31:52,-3.5973196,-1.3771362,9.369317,0.13477015,-0.22838941,0.2093777,10.130217894771915,0.33788125435737615,jump
05/08/2020, 15:31:52,-3.5973196,-1.3771362,9.369317,0.1201094,-0.25282404,0.19105175,10.130217894771915,0.33889088862396183,jump
05/08/2020, 15:31:52,-3.5973196,-1.4058765,9.410032,0.1201094,-0.25282404,0.19105175,10.171819132988382,0.33889088862396183,jump
05/08/2020, 15:31:52,-3.5973196,-1.4058765,9.410032,0.11155729,-0.2797021,0.17883445,10.171819132988382,0.35022857360386994,jump
05/08/2020, 15:31:52,-3.0919704,-1.3531861,9.505833,0.11155729,-0.2797021,0.17883445,10.087231965164774,0.35022857360386994,jump
05/08/2020, 15:31:52,-3.0919704,-1.3531861,9.505833,0.18852627,-0.4055403,0.15684332,10.087231965164774,0.4739250016511567,jump
05/08/2020, 15:31:52,-2.3327491,-1.1879297,9.6615095,0.18852627,-0.4055403,0.15684332,10.009878204644137,0.4739250016511567,jump
05/08/2020, 15:31:52,-2.3327491,-1.1879297,9.6615095,-0.09858028,-0.20151135,0.10186546,10.009878204644137,0.2463766817998489,jump
05/08/2020, 15:31:52,-4.6918435,-1.8465601,12.23376,-0.09858028,-0.20151135,0.10186546,13.232084514592065,0.2463766817998489,jump
05/08/2020, 15:31:52,-4.6918435,-1.8465601,12.23376,0.09811826,-0.40920547,0.10553065,13.232084514592065,0.43383525079527946,jump
05/08/2020, 15:31:52,-0.5604346,-0.98195803,11.460169,0.09811826,-0.40920547,0.10553065,11.515806454659183,0.43383525079527946,jump
05/08/2020, 15:31:52,-0.5604346,-0.98195803,11.460169,0.035810024,-0.39332297,0.10186546,11.515806454659183,0.4078748491329486,jump
05/08/2020, 15:31:52,-0.21555176,-1.0394385,7.7862086,0.035810024,-0.39332297,0.10186546,7.858240245311568,0.4078748491329486,jump
05/08/2020, 15:31:52,-0.21555176,-1.0394385,7.7862086,0.26060835,-0.3737753,0.07132221,7.858240245311568,0.4612066182172765,jump
05/08/2020, 15:31:52,0.69695073,-0.74006104,9.632769,0.26060835,-0.3737753,0.07132221,9.686261516862103,0.4612066182172765,jump
05/08/2020, 15:31:52,0.69695073,-0.74006104,9.632769,0.38400307,-0.47762236,0.029783392,9.686261516862103,0.6135703132304073,jump
05/08/2020, 15:31:52,-0.51013917,-0.8334668,15.5987625,0.38400307,-0.47762236,0.029783392,15.629341023709753,0.6135703132304073,jump
05/08/2020, 15:31:53,-0.4143384,-3.1901662,9.465117,0.072461925,0.14912516,-0.2842012,9.99686377583931,0.3290279143465327,jump
05/08/2020, 15:31:53,-0.6011499,-3.0608351,9.472302,0.072461925,0.14912516,-0.2842012,9.972693032857626,0.3290279143465327,jump
05/08/2020, 15:31:53,-0.6011499,-3.0608351,9.472302,0.114000745,0.14668171,-0.2512145,9.972693032857626,0.31244266897078415,jump
05/08/2020, 15:31:53,-0.7376661,-2.8979738,9.520203,0.114000745,0.14668171,-0.2512145,9.978810624582962,0.31244266897078415,jump
05/08/2020, 15:31:53,-0.7376661,-2.8979738,9.520203,0.11033556,0.14179479,-0.21700607,9.978810624582962,0.2817291824764951,jump
05/08/2020, 15:31:53,-0.73527104,-2.8452833,9.326206,0.11033556,0.14179479,-0.21700607,9.778260714656419,0.2817291824764951,jump
05/08/2020, 15:31:53,-0.73527104,-2.8452833,9.326206,0.055357702,0.13202095,-0.19868012,9.778260714656419,0.24488322866549062,jump
05/08/2020, 15:31:53,-0.8430469,-2.8548634,9.18011,0.055357702,0.13202095,-0.19868012,9.650667974149197,0.24488322866549062,jump
05/08/2020, 15:31:53,-0.8430469,-2.8548634,9.18011,-0.016724365,0.11491672,-0.18035418,9.650667974149197,0.21450684442107965,jump
05/08/2020, 15:31:53,-0.85023195,-2.8476784,9.15137,-0.016724365,0.11491672,-0.18035418,9.621836650379462,0.21450684442107965,jump
05/08/2020, 15:31:53,-0.85023195,-2.8476784,9.15137,-0.059484914,0.09536903,-0.1571413,9.621836650379462,0.19320221296701945,jump
05/08/2020, 15:31:53,-0.91250247,-2.9338992,9.292676,-0.059484914,0.09536903,-0.1571413,9.78745379449795,0.19320221296701945,jump
05/08/2020, 15:31:53,-0.91250247,-2.9338992,9.292676,-0.07292394,0.07093444,-0.13759363,9.78745379449795,0.17111867837419698,jump
05/08/2020, 15:31:53,-0.9436377,-3.1901662,9.4435625,-0.07292394,0.07093444,-0.13759363,10.012416571700168,0.17111867837419698,jump
05/08/2020, 15:31:53,-0.9436377,-3.1901662,9.4435625,-0.07292394,0.056273676,-0.12781978,10.012416571700168,0.15755165329596738,jump
05/08/2020, 15:31:53,-1.0011182,-3.420088,9.565708,-0.07292394,0.056273676,-0.12781978,10.207938700595577,0.15755165329596738,jump
05/08/2020, 15:31:53,-1.0011182,-3.420088,9.565708,-0.042380698,0.051386755,-0.11315902,10.207938700595577,0.13130760331264857,jump
05/08/2020, 15:31:53,-0.98914313,-3.542234,9.843531,-0.042380698,0.051386755,-0.11315902,10.50813595294512,0.13130760331264857,jump
05/08/2020, 15:31:53,-0.98914313,-3.542234,9.843531,0.0077102343,0.056273676,-0.093611345,10.50813595294512,0.10949547127513191,jump
05/08/2020, 15:31:53,-0.8861573,-3.5254688,9.83874,0.0077102343,0.056273676,-0.093611345,10.488804355658859,0.10949547127513191,jump
05/08/2020, 15:31:54,0.098195806,-3.642825,9.17053,-0.048489347,0.011069666,-0.15591957,9.868051576591435,0.16366021378383483,jump
05/08/2020, 15:31:54,0.07903565,-3.6188745,9.168135,-0.048489347,0.011069666,-0.15591957,9.856834853182422,0.16366021378383483,jump
05/08/2020, 15:31:54,0.07903565,-3.6188745,9.168135,-0.047267616,0.003739285,-0.15347612,9.856834853182422,0.16063352349887786,jump
05/08/2020, 15:31:54,0.08861572,-3.6236646,9.172925,-0.047267616,0.003739285,-0.15347612,9.863130891273784,0.16063352349887786,jump
05/08/2020, 15:31:54,0.08861572,-3.6236646,9.172925,-0.028941667,0.006182745,-0.15836303,9.863130891273784,0.16110461035328114,jump
05/08/2020, 15:31:54,0.102985844,-3.6739602,9.2256155,-0.028941667,0.006182745,-0.15836303,9.930789046210666,0.16110461035328114,jump
05/08/2020, 15:31:54,0.102985844,-3.6739602,9.2256155,-0.011837447,0.008626206,-0.15958476,9.930789046210666,0.16025552226693607,jump
05/08/2020, 15:31:54,0.043110352,-3.7314405,9.266331,-0.011837447,0.008626206,-0.15958476,9.989514103828586,0.16025552226693607,jump
05/08/2020, 15:31:54,0.043110352,-3.7314405,9.266331,0.013818884,0.0135131255,-0.15225439,9.989514103828586,0.15347626757125193,jump
05/08/2020, 15:31:54,0.028740235,-3.7003052,9.2184305,0.013818884,0.0135131255,-0.15225439,9.933405558187951,0.15347626757125193,jump
05/08/2020, 15:31:54,0.028740235,-3.7003052,9.2184305,0.032144837,0.019621776,-0.144924,9.933405558187951,0.1497373380602878,jump
05/08/2020, 15:31:54,0.009580079,-3.661985,9.137,0.032144837,0.019621776,-0.144924,9.84352558128955,0.1497373380602878,jump
05/08/2020, 15:31:54,0.009580079,-3.661985,9.137,0.034588292,0.018400045,-0.13392843,9.84352558128955,0.13954116526083196,jump
05/08/2020, 15:31:54,-0.045505375,-3.5853443,9.074729,0.034588292,0.018400045,-0.13392843,9.757431547039978,0.13954116526083196,jump
05/08/2020, 15:31:54,-0.045505375,-3.5853443,9.074729,0.023592725,0.011069666,-0.12659805,9.757431547039978,0.129252540576743,jump
05/08/2020, 15:31:54,-0.11256592,-3.5685792,9.029224,0.023592725,0.011069666,-0.12659805,9.709496473035767,0.129252540576743,jump
05/08/2020, 15:31:54,-0.11256592,-3.5685792,9.029224,0.019927535,0.006182745,-0.11804594,9.709496473035767,0.11987567385335395,jump
05/08/2020, 15:31:54,-0.07903565,-3.539839,9.050779,0.019927535,0.006182745,-0.11804594,9.718709466608034,0.11987567385335395,jump
05/08/2020, 15:31:54,-0.07903565,-3.539839,9.050779,0.0052667744,0.009847935,-0.11926767,9.718709466608034,0.11978939184444842,jump
05/08/2020, 15:31:54,-0.043110352,-3.6308498,8.966953,0.0052667744,0.009847935,-0.11926767,9.674253466436792,0.11978939184444842,jump
05/08/2020, 15:31:55,-7.951465,-7.7287283,2.1195924,1.4933339,1.5199062,2.4048266,11.289451307357947,3.212997379748055,jump
05/08/2020, 15:31:55,-8.262817,-7.846084,2.4045997,1.4933339,1.5199062,2.4048266,11.645483529819437,3.212997379748055,jump
05/08/2020, 15:31:55,-8.262817,-7.846084,2.4045997,1.9209394,1.6090925,2.3559575,11.645483529819437,3.4394363961271925,jump
05/08/2020, 15:31:55,-8.5502205,-7.9227247,2.699187,1.9209394,1.6090925,2.3559575,11.965009324991893,3.4394363961271925,jump
05/08/2020, 15:31:55,-8.5502205,-7.9227247,2.699187,2.3644276,1.715383,2.2887623,11.965009324991893,3.710995788616147,jump
05/08/2020, 15:31:55,-8.830438,-7.8412943,2.9650342,2.3644276,1.715383,2.2887623,12.175958010545104,3.710995788616147,jump
05/08/2020, 15:31:55,-8.830438,-7.8412943,2.9650342,2.8115807,1.8412212,2.204463,12.175958010545104,4.019295770824704,jump
05/08/2020, 15:31:55,-9.067544,-7.5706573,3.1302907,2.8115807,1.8412212,2.204463,12.220226073898862,4.019295770824704,jump
05/08/2020, 15:31:55,-9.067544,-7.5706573,3.1302907,3.2245255,1.9475117,2.104281,12.220226073898862,4.314900278752383,jump
05/08/2020, 15:31:55,-9.280701,-7.194639,3.1470559,3.2245255,1.9475117,2.104281,12.157228265325937,4.314900278752383,jump
05/08/2020, 15:31:55,-9.280701,-7.194639,3.1470559,3.543397,2.0208156,1.9894383,12.157228265325937,4.538416288518164,jump
05/08/2020, 15:31:55,-9.479487,-6.7946706,3.056045,3.543397,2.0208156,1.9894383,12.05685039408725,4.538416288518164,jump
05/08/2020, 15:31:55,-9.479487,-6.7946706,3.056045,3.7352087,2.068463,1.8623784,12.05685039408725,4.658194617925084,jump
05/08/2020, 15:31:55,-9.529783,-6.2941117,2.8740237,3.7352087,2.068463,1.8623784,11.776783232858639,4.658194617925084,jump
05/08/2020, 15:31:55,-9.529783,-6.2941117,2.8740237,3.8207297,2.0831237,1.7365402,11.776783232858639,4.685397723978445,jump
05/08/2020, 15:31:55,-9.6615095,-5.740862,2.7830129,3.8207297,2.0831237,1.7365402,11.577885038948596,4.685397723978445,jump
05/08/2020, 15:31:55,-9.6615095,-5.740862,2.7830129,3.8219514,2.0611327,1.6094803,11.577885038948596,4.630983374670154,jump
05/08/2020, 15:31:55,-9.64714,-5.3073635,2.799778,3.8219514,2.0611327,1.6094803,11.36108118422908,4.630983374670154,jump
05/08/2020, 15:31:55,-9.64714,-5.3073635,2.799778,3.7254348,2.0281458,1.4836421,11.36108118422908,4.493710441444646,jump
05/08/2020, 15:31:55,-9.618399,-4.8666797,2.699187,3.7254348,2.0281458,1.4836421,11.11232534527368,4.493710441444646,jump
05/08/2020, 15:31:56,-9.7142,-3.180586,2.066902,0.052914247,0.21387686,-0.28175774,10.428513485565274,0.3576739483618508,jump
05/08/2020, 15:31:56,-9.7142,-3.180586,2.066902,-0.23174885,0.17355977,-0.31963137,10.428513485565274,0.4312710681252203,jump
05/08/2020, 15:31:56,-9.7142,-3.3602126,2.320774,-0.23174885,0.17355977,-0.31963137,10.537680144445044,0.4312710681252203,jump
05/08/2020, 15:31:56,-9.7142,-3.3602126,2.320774,-0.45899063,0.15034689,-0.35750502,10.537680144445044,0.6009046769686491,jump
05/08/2020, 15:31:56,-9.793235,-3.7027004,2.687212,-0.45899063,0.15034689,-0.35750502,10.809188068469812,0.6009046769686491,jump
05/08/2020, 15:31:56,-9.793235,-3.7027004,2.687212,-0.5958244,0.16256419,-0.40026557,10.809188068469812,0.7359662936574402,jump
05/08/2020, 15:31:56,-9.814791,-4.040398,2.8380983,-0.5958244,0.16256419,-0.40026557,10.986798253114221,0.7359662936574402,jump
05/08/2020, 15:31:56,-9.814791,-4.040398,2.8380983,-0.6691282,0.20165956,-0.45035648,10.986798253114221,0.831396452412204,jump
05/08/2020, 15:31:56,-9.69504,-4.1553593,2.955454,-0.6691282,0.20165956,-0.45035648,10.954246454596714,0.831396452412204,jump
05/08/2020, 15:31:56,-9.69504,-4.1553593,2.955454,-0.6911194,0.23831145,-0.5053344,10.954246454596714,0.8887075839725378,jump
05/08/2020, 15:31:56,-9.342972,-4.145779,2.9674294,-0.6911194,0.23831145,-0.5053344,10.643507126305591,0.8887075839725378,jump
05/08/2020, 15:31:56,-9.342972,-4.145779,2.9674294,-0.68623245,0.27129814,-0.5603122,10.643507126305591,0.9265351733565659,jump
05/08/2020, 15:31:56,-8.885523,-4.0667434,2.8979738,-0.68623245,0.27129814,-0.5603122,10.192603683919849,0.9265351733565659,jump
05/08/2020, 15:31:56,-8.885523,-4.0667434,2.8979738,-0.66668475,0.3103935,-0.60062927,10.192603683919849,0.9495094544331685,jump
05/08/2020, 15:31:56,-8.485555,-3.9589674,2.8452833,-0.66668475,0.3103935,-0.60062927,9.78640376331029,0.9495094544331685,jump
05/08/2020, 15:31:56,-8.485555,-3.9589674,2.8452833,-0.6275894,0.35559753,-0.63117254,9.78640376331029,0.9584867414848866,jump
05/08/2020, 15:31:56,-8.234077,-3.891907,2.7590625,-0.6275894,0.35559753,-0.63117254,9.51627014455603,0.9584867414848866,jump
05/08/2020, 15:31:56,-8.234077,-3.891907,2.7590625,-0.56405944,0.40568846,-0.6458333,9.51627014455603,0.9486025758069736,jump
05/08/2020, 15:31:56,-8.1071415,-3.9278321,2.7111623,-0.56405944,0.40568846,-0.6458333,9.407656966719825,0.9486025758069736,jump
05/08/2020, 15:31:56,-8.1071415,-3.9278321,2.7111623,-0.47242966,0.4533359,-0.6397247,9.407656966719825,0.9153965754930483,jump
05/08/2020, 15:31:57,-7.9059596,-4.9169755,1.7579445,0.28382123,0.083151735,0.44517162,9.47476723118871,0.5344590481409918,jump
05/08/2020, 15:31:57,-7.9059596,-4.9169755,1.7579445,0.26549527,0.09536903,0.45494545,9.47476723118871,0.5353114506416604,jump
05/08/2020, 15:31:57,-7.913145,-4.8187795,1.6573536,0.26549527,0.09536903,0.45494545,9.411977554036888,0.5353114506416604,jump
05/08/2020, 15:31:57,-7.913145,-4.8187795,1.6573536,0.21173914,0.102699414,0.46716276,9.411977554036888,0.5230885915830327,jump
05/08/2020, 15:31:57,-7.941885,-4.751719,1.5974782,0.21173914,0.102699414,0.46716276,9.391714813890573,0.5230885915830327,jump
05/08/2020, 15:31:57,-7.941885,-4.751719,1.5974782,0.13110496,0.10147768,0.48671043,9.391714813890573,0.5141724153982555,jump
05/08/2020, 15:31:57,-7.9562554,-4.653523,1.5495777,0.13110496,0.10147768,0.48671043,9.346575183834513,0.5141724153982555,jump
05/08/2020, 15:31:57,-7.9562554,-4.653523,1.5495777,0.032144837,0.096590765,0.5050364,9.346575183834513,0.5151939882528259,jump
05/08/2020, 15:31:57,-7.8580594,-4.643943,1.5328126,0.032144837,0.096590765,0.5050364,9.255529002754434,0.5151939882528259,jump
05/08/2020, 15:31:57,-7.8580594,-4.643943,1.5328126,-0.068037026,0.083151735,0.5196971,9.255529002754434,0.5306866821362551,jump
05/08/2020, 15:31:57,-7.7287283,-4.639153,1.5591577,-0.068037026,0.083151735,0.5196971,9.14800275821285,0.5306866821362551,jump
05/08/2020, 15:31:57,-7.7287283,-4.639153,1.5591577,-0.15477987,0.06604751,0.529471,9.14800275821285,0.5555705173096065,jump
05/08/2020, 15:31:57,-7.4964113,-4.624783,1.5184424,-0.15477987,0.06604751,0.529471,8.938146798379117,0.5555705173096065,jump
05/08/2020, 15:31:57,-7.4964113,-4.624783,1.5184424,-0.21953155,0.046499833,0.52702755,8.938146798379117,0.572812684979964,jump
05/08/2020, 15:31:57,-7.094048,-4.653523,1.5926881,-0.21953155,0.046499833,0.52702755,8.632348967924461,0.572812684979964,jump
05/08/2020, 15:31:57,-7.094048,-4.653523,1.5926881,-0.25496173,0.026952157,0.5025929,8.632348967924461,0.5642087792064927,jump
05/08/2020, 15:31:57,-6.5791187,-4.5385623,1.5376027,-0.25496173,0.026952157,0.5025929,8.139261202719945,0.5642087792064927,jump
05/08/2020, 15:31:57,-6.5791187,-4.5385623,1.5376027,-0.26351383,0.003739285,0.45250198,8.139261202719945,0.523652142845354,jump
05/08/2020, 15:31:57,-5.877378,-4.3565407,1.4729371,-0.26351383,0.003739285,0.45250198,7.462744965381097,0.523652142845354,jump
05/08/2020, 15:31:57,-5.877378,-4.3565407,1.4729371,-0.24396616,-0.025582235,0.36942434,7.462744965381097,0.4434504305396498,jump
05/08/2020, 15:31:58,-18.95179,-9.0891,7.3527102,7.4040637,5.5222936,1.0206064,22.267564380129503,9.292874849367559,jump
05/08/2020, 15:31:58,-18.95179,-9.0891,7.3527102,7.543341,5.0922446,0.62232244,22.267564380129503,9.122512614117218,jump
05/08/2020, 15:31:58,-17.945883,-7.424561,5.6450615,7.543341,5.0922446,0.62232244,20.224874165887684,9.122512614117218,jump
05/08/2020, 15:31:58,-17.945883,-7.424561,5.6450615,7.1267314,4.593779,0.3633157,20.224874165887684,8.48676057082311,jump
05/08/2020, 15:31:58,-16.877703,-5.1828227,3.9254372,7.1267314,4.593779,0.3633157,18.08666794516004,8.48676057082311,jump
05/08/2020, 15:31:58,-16.877703,-5.1828227,3.9254372,6.1982164,4.018344,0.19227348,18.08666794516004,7.389312824037409,jump
05/08/2020, 15:31:58,-16.813038,-2.3830445,2.555486,6.1982164,4.018344,0.19227348,17.172293149341336,7.389312824037409,jump
05/08/2020, 15:31:58,-16.813038,-2.3830445,2.555486,4.901961,3.3610535,0.103087194,17.172293149341336,5.944453511374071,jump
05/08/2020, 15:31:58,-17.58663,0.25866213,1.7387843,4.901961,3.3610535,0.103087194,17.674270199528642,5.944453511374071,jump
05/08/2020, 15:31:58,-17.58663,0.25866213,1.7387843,3.3772418,2.6695542,0.07376567,17.674270199528642,4.305545690508541,jump
05/08/2020, 15:31:58,-19.275118,2.2896388,1.3819263,3.3772418,2.6695542,0.07376567,19.459761946038462,4.305545690508541,jump
05/08/2020, 15:31:58,-19.275118,2.2896388,1.3819263,1.8232011,1.9756114,0.08842643,19.459761946038462,2.6897810198991725,jump
05/08/2020, 15:31:58,-20.55885,3.5254688,1.4202466,1.8232011,1.9756114,0.08842643,20.907231208859418,2.6897810198991725,jump
05/08/2020, 15:31:58,-20.55885,3.5254688,1.4202466,0.31436446,1.2572342,-0.008090238,20.907231208859418,1.295966180432585,jump
05/08/2020, 15:31:58,-20.01039,4.014053,1.6310084,0.31436446,1.2572342,-0.008090238,20.474093138443596,1.295966180432585,jump
05/08/2020, 15:31:58,-20.01039,4.014053,1.6310084,-1.005104,0.5498526,-0.23288856,20.474093138443596,1.169106033475035,jump
05/08/2020, 15:31:58,-17.955462,3.896697,2.3710694,-1.005104,0.5498526,-0.23288856,18.525787860606496,1.169106033475035,jump
05/08/2020, 15:31:58,-17.955462,3.896697,2.3710694,-2.017918,0.012291396,-0.4466913,18.525787860606496,2.066803739623312,jump
05/08/2020, 15:31:58,-15.488592,3.4871485,3.3362625,-2.017918,0.012291396,-0.4466913,16.223049613980947,2.066803739623312,jump
05/08/2020, 15:31:58,-15.488592,3.4871485,3.3362625,-2.741182,-0.26137614,-0.5920772,16.223049613980947,2.816549686711362,jump
05/08/2020, 15:31:59,-8.998089,-5.1924024,3.551814,1.8244227,0.81252456,0.9289767,10.979163368119794,2.2026602422644457,jump
05/08/2020, 15:31:59,-9.239985,-5.132527,3.5709743,1.8244227,0.81252456,0.9289767,11.156702977942734,2.2026602422644457,jump
05/08/2020, 15:31:59,-9.239985,-5.132527,3.5709743,1.8989483,0.7929769,0.8886596,11.156702977942734,2.241547001137756,jump
05/08/2020, 15:31:59,-9.551338,-4.7062135,3.7290456,1.8989483,0.7929769,0.8886596,11.281945218042017,2.241547001137756,jump
05/08/2020, 15:31:59,-9.551338,-4.7062135,3.7290456,1.9013917,0.76121193,0.8251296,11.281945218042017,2.208069988645872,jump
05/08/2020, 15:31:59,-9.939331,-4.406836,3.9661524,1.9013917,0.76121193,0.8251296,11.573282625509622,2.208069988645872,jump
05/08/2020, 15:31:59,-9.939331,-4.406836,3.9661524,1.8256445,0.71356446,0.7457172,11.573282625509622,2.097199616319963,jump
05/08/2020, 15:31:59,-10.526112,-4.2367897,4.152964,1.8256445,0.71356446,0.7457172,12.082902110274913,2.097199616319963,jump
05/08/2020, 15:31:59,-10.526112,-4.2367897,4.152964,1.6753718,0.6585866,0.6528657,12.082902110274913,1.9148996122162552,jump
05/08/2020, 15:31:59,-11.141631,-3.9685476,4.0427933,1.6753718,0.6585866,0.6528657,12.499179634204763,1.9148996122162552,jump
05/08/2020, 15:31:59,-11.141631,-3.9685476,4.0427933,1.4847819,0.5840611,0.5551273,12.499179634204763,1.6893403660681419,jump
05/08/2020, 15:31:59,-11.53681,-3.7027004,3.7434156,1.4847819,0.5840611,0.5551273,12.681527256121814,1.6893403660681419,jump
05/08/2020, 15:31:59,-11.53681,-3.7027004,3.7434156,1.2465445,0.4728836,0.4488368,12.681527256121814,1.4067503431543016,jump
05/08/2020, 15:31:59,-11.620635,-3.2620168,3.3266823,1.2465445,0.4728836,0.4488368,12.519853326225476,1.4067503431543016,jump
05/08/2020, 15:31:59,-11.620635,-3.2620168,3.3266823,0.95332927,0.33971503,0.34865496,12.519853326225476,1.0704220055571907,jump
05/08/2020, 15:31:59,-11.290123,-2.8285182,2.955454,0.95332927,0.33971503,0.34865496,12.008417921430636,1.0704220055571907,jump
05/08/2020, 15:31:59,-11.290123,-2.8285182,2.955454,0.6246839,0.21509859,0.25580347,12.008417921430636,0.7084721674351449,jump
05/08/2020, 15:31:59,-10.660233,-2.430945,2.684817,0.6246839,0.21509859,0.25580347,11.258698584791256,0.7084721674351449,jump
05/08/2020, 15:31:59,-10.660233,-2.430945,2.684817,0.2862647,0.12102537,0.16783889,11.258698584791256,0.35322019065587584,jump
05/08/2020, 15:31:59,-9.992022,-2.2225783,2.5051906,0.2862647,0.12102537,0.16783889,10.53832667495843,0.35322019065587584,jump
05/08/2020, 15:32:00,-9.072334,-3.3482375,2.9913795,0.52572376,0.16012074,0.06765702,10.122563668581135,0.5537161649707371,jump
05/08/2020, 15:32:00,-9.251961,-3.3171022,2.9913795,0.52572376,0.16012074,0.06765702,10.273767374961674,0.5537161649707371,jump
05/08/2020, 15:32:00,-9.251961,-3.3171022,2.9913795,0.5196151,0.13202095,0.056661453,10.273767374961674,0.5391103022684061,jump
05/08/2020, 15:32:00,-9.448353,-3.2428565,2.9817994,0.5196151,0.13202095,0.056661453,10.424903675154583,0.5391103022684061,jump
05/08/2020, 15:32:00,-9.448353,-3.2428565,2.9817994,0.49762398,0.090482116,0.048109345,10.424903675154583,0.50806608613009,jump
05/08/2020, 15:32:00,-9.630374,-3.2117214,2.938689,0.49762398,0.090482116,0.048109345,10.568592621089813,0.50806608613009,jump
05/08/2020, 15:32:00,-9.630374,-3.2117214,2.938689,0.44753304,0.041612916,0.034670316,10.568592621089813,0.4507987228715298,jump
05/08/2020, 15:32:00,-9.77647,-3.1087356,2.8596535,0.44753304,0.041612916,0.034670316,10.649940095635356,0.4507987228715298,jump
05/08/2020, 15:32:00,-9.77647,-3.1087356,2.8596535,0.36323366,-0.013364935,0.021231283,10.649940095635356,0.3640989940646076,jump
05/08/2020, 15:32:00,-9.802815,-2.9889846,2.787803,0.36323366,-0.013364935,0.021231283,10.620784554294687,0.3640989940646076,jump
05/08/2020, 15:32:00,-9.802815,-2.9889846,2.787803,0.24716932,-0.07322971,0.0041270624,10.620784554294687,0.257822212824269,jump
05/08/2020, 15:32:00,-9.754915,-2.8500733,2.6512868,0.24716932,-0.07322971,0.0041270624,10.502885852426772,0.257822212824269,jump
05/08/2020, 15:32:00,-9.754915,-2.8500733,2.6512868,0.099339984,-0.13065101,-0.015420618,10.502885852426772,0.16485119013945781,jump
05/08/2020, 15:32:00,-9.72378,-2.668052,2.5219557,0.099339984,-0.13065101,-0.015420618,10.393779542625293,0.16485119013945781,jump
05/08/2020, 15:32:00,-9.72378,-2.668052,2.5219557,-0.061928377,-0.18685059,-0.03619003,10.393779542625293,0.200144912386229,jump
05/08/2020, 15:32:00,-9.522598,-2.5985963,2.4572902,-0.061928377,-0.18685059,-0.03619003,10.172062507121234,0.200144912386229,jump
05/08/2020, 15:32:00,-9.522598,-2.5985963,2.4572902,-0.23052713,-0.24060671,-0.05695944,10.172062507121234,0.33805136544802966,jump
05/08/2020, 15:32:00,-9.359736,-2.565066,2.3710694,-0.23052713,-0.24060671,-0.05695944,9.990305331443096,0.33805136544802966,jump
05/08/2020, 15:32:00,-9.359736,-2.565066,2.3710694,-0.3844651,-0.28703246,-0.080172315,9.990305331443096,0.48644490165445103,jump
05/08/2020, 15:32:00,-9.10347,-2.6105714,2.3806496,-0.3844651,-0.28703246,-0.080172315,9.76502629783268,0.48644490165445103,jump
05/08/2020, 15:32:01,-8.087981,-3.8080812,2.6321266,0.13354842,0.12957749,0.002905332,9.319067153171755,0.1861019820782689,jump
05/08/2020, 15:32:01,-8.174202,-3.7529957,2.5363257,0.13354842,0.12957749,0.002905332,9.345346581958045,0.1861019820782689,jump
05/08/2020, 15:32:01,-8.174202,-3.7529957,2.5363257,0.30947754,0.18211187,0.046887614,9.345346581958045,0.3621319227991394,jump
05/08/2020, 15:32:01,-8.262817,-3.7098854,2.4860303,0.30947754,0.18211187,0.046887614,9.392430320720669,0.3621319227991394,jump
05/08/2020, 15:32:01,-8.262817,-3.7098854,2.4860303,0.44264612,0.21632032,0.0872047,9.392430320720669,0.5003346134073869,jump
05/08/2020, 15:32:01,-8.396939,-3.4943337,2.43813,0.44264612,0.21632032,0.0872047,9.416126324863841,0.5003346134073869,jump
05/08/2020, 15:32:01,-8.396939,-3.4943337,2.43813,0.5354976,0.23220281,0.123856604,9.416126324863841,0.596671006984523,jump
05/08/2020, 15:32:01,-8.466394,-3.3626075,2.3830445,0.5354976,0.23220281,0.123856604,9.416255338953942,0.596671006984523,jump
05/08/2020, 15:32:01,-8.466394,-3.3626075,2.3830445,0.5831451,0.23464626,0.15439986,9.416255338953942,0.6472683911285612,jump
05/08/2020, 15:32:01,-8.58854,-3.2356715,2.3686745,0.5831451,0.23464626,0.15439986,9.478565809796349,0.6472683911285612,jump
05/08/2020, 15:32:01,-8.58854,-3.2356715,2.3686745,0.5855885,0.22853762,0.18249965,9.478565809796349,0.6545605191485403,jump
05/08/2020, 15:32:01,-8.715476,-3.2165112,2.3926246,0.5855885,0.22853762,0.18249965,9.593233016550947,0.6545605191485403,jump
05/08/2020, 15:32:01,-8.715476,-3.2165112,2.3926246,0.57459295,0.21387686,0.20326905,9.593233016550947,0.6459246650185789,jump
05/08/2020, 15:32:01,-8.873548,-3.2189064,2.5099807,0.57459295,0.21387686,0.20326905,9.76735417750083,0.6459246650185789,jump
05/08/2020, 15:32:01,-8.873548,-3.2189064,2.5099807,0.55871046,0.19432917,0.2252602,9.76735417750083,0.6329797450284701,jump
05/08/2020, 15:32:01,-9.091495,-3.2596216,2.5698562,0.55871046,0.19432917,0.2252602,9.99422669163959,0.6329797450284701,jump
05/08/2020, 15:32:01,-9.091495,-3.2596216,2.5698562,0.5342759,0.17722495,0.24480788,9.99422669163959,0.613832476051532,jump
05/08/2020, 15:32:01,-9.319021,-3.1853762,2.6225464,0.5342759,0.17722495,0.24480788,10.191591029830848,0.613832476051532,jump
05/08/2020, 15:32:01,-9.319021,-3.1853762,2.6225464,0.49762398,0.14790343,0.25336,10.191591029830848,0.5776645571741157,jump
05/08/2020, 15:32:01,-9.510623,-3.1494508,2.5315359,0.49762398,0.14790343,0.25336,10.33342457624073,0.5776645571741157,jump
05/08/2020, 15:32:02,-8.480764,-3.271597,2.9626393,-0.8108489,-0.22594595,-0.08261577,9.560540924287169,0.8457853527147275,jump
05/08/2020, 15:32:02,-8.4376545,-3.4368532,3.0991554,-0.8108489,-0.22594595,-0.08261577,9.623447274783986,0.8457853527147275,jump
05/08/2020, 15:32:02,-8.4376545,-3.4368532,3.0991554,-0.742432,-0.22105904,-0.07528539,9.623447274783986,0.7782931715026642,jump
05/08/2020, 15:32:02,-8.459209,-3.5973196,3.0991554,-0.742432,-0.22105904,-0.07528539,9.700706008663305,0.7782931715026642,jump
05/08/2020, 15:32:02,-8.459209,-3.5973196,3.0991554,-0.6434719,-0.21250692,-0.06673328,9.700706008663305,0.6809321576365686,jump
05/08/2020, 15:32:02,-8.435259,-3.6859353,3.159031,-0.6434719,-0.21250692,-0.06673328,9.732378289794656,0.6809321576365686,jump
05/08/2020, 15:32:02,-8.435259,-3.6859353,3.159031,-0.52007717,-0.19784616,-0.061846357,9.732378289794656,0.5598645695823469,jump
05/08/2020, 15:32:02,-8.416099,-3.7074904,3.182981,-0.52007717,-0.19784616,-0.061846357,9.731781393245985,0.5598645695823469,jump
05/08/2020, 15:32:02,-8.416099,-3.7074904,3.182981,-0.3917955,-0.18196367,-0.058181167,9.731781393245985,0.43588935221702113,jump
05/08/2020, 15:32:02,-8.372989,-3.666775,3.1973512,-0.3917955,-0.18196367,-0.058181167,9.683761325297127,0.43588935221702113,jump
05/08/2020, 15:32:02,-8.372989,-3.666775,3.1973512,-0.25373998,-0.162416,-0.05695944,9.683761325297127,0.30660611933240933,jump
05/08/2020, 15:32:02,-8.440049,-3.6260598,3.0943654,-0.25373998,-0.162416,-0.05695944,9.693185051740082,0.30660611933240933,jump
05/08/2020, 15:32:02,-8.440049,-3.6260598,3.0943654,-0.11690623,-0.14409004,-0.058181167,9.693185051740082,0.19445836459877372,jump
05/08/2020, 15:32:02,-8.454419,-3.5949244,3.03928,-0.11690623,-0.14409004,-0.058181167,9.676668190476265,0.19445836459877372,jump
05/08/2020, 15:32:02,-8.454419,-3.5949244,3.03928,0.0016015843,-0.12087718,-0.058181167,9.676668190476265,0.13415999787184704,jump
05/08/2020, 15:32:02,-8.52627,-3.5206788,2.926714,0.0016015843,-0.12087718,-0.058181167,9.677712129058447,0.13415999787184704,jump
05/08/2020, 15:32:02,-8.52627,-3.5206788,2.926714,0.09200961,-0.09766431,-0.06306809,9.677712129058447,0.14826216831481842,jump
05/08/2020, 15:32:02,-8.641231,-3.3458424,2.8357031,0.09200961,-0.09766431,-0.06306809,9.6905489713829,0.14826216831481842,jump
05/08/2020, 15:32:02,-8.641231,-3.3458424,2.8357031,0.15065265,-0.0891122,-0.07039847,9.6905489713829,0.18866146694429006,jump
05/08/2020, 15:32:02,-8.744217,-3.2356715,2.7782228,0.15065265,-0.0891122,-0.07039847,9.72879343161186,0.18866146694429006,jump
05/08/2020, 15:32:03,2.9003687,-3.65959,-0.32332766,-0.6935628,0.06726924,0.6699699,4.68073480641234,0.9666510255953027,jump
05/08/2020, 15:32:03,1.2765454,-4.169729,0.23471193,-0.6935628,0.06726924,0.6699699,4.367069925813172,0.9666510255953027,jump
05/08/2020, 15:32:03,1.2765454,-4.169729,0.23471193,-0.6813455,0.45089248,0.90087694,4.367069925813172,1.216188722024039,jump
05/08/2020, 15:32:03,-0.37122804,-4.2918754,0.77359134,-0.6813455,0.45089248,0.90087694,4.376807962906982,1.216188722024039,jump
05/08/2020, 15:32:03,-0.37122804,-4.2918754,0.77359134,-0.64958054,0.7013472,1.0963537,4.376807962906982,1.454590683942658,jump
05/08/2020, 15:32:03,-1.6214283,-4.0835085,1.0801538,-0.64958054,0.7013472,1.0963537,4.524467201274898,1.454590683942658,jump
05/08/2020, 15:32:03,-1.6214283,-4.0835085,1.0801538,-0.65080225,0.8760545,1.3174868,4.524467201274898,1.7107853391950125,jump
05/08/2020, 15:32:03,-2.2489235,-3.6763551,1.5591577,-0.65080225,0.8760545,1.3174868,4.583035774230945,1.7107853391950125,jump
05/08/2020, 15:32:03,-2.2489235,-3.6763551,1.5591577,-0.638585,1.0385445,1.5618328,4.583035774230945,1.9813346936925775,jump
05/08/2020, 15:32:03,-2.2441335,-2.9099488,2.1627028,-0.638585,1.0385445,1.5618328,4.263944254706876,1.9813346936925775,jump
05/08/2020, 15:32:03,-2.2441335,-2.9099488,2.1627028,-0.5799419,1.226691,1.7988484,4.263944254706876,2.253210820307704,jump
05/08/2020, 15:32:03,-1.7914747,-2.1579127,2.6393116,-0.5799419,1.226691,1.7988484,3.8512250550660028,2.253210820307704,jump
05/08/2020, 15:32:03,-1.7914747,-2.1579127,2.6393116,-0.5078598,1.4588197,2.0212035,3.8512250550660028,2.5438829214282235,jump
05/08/2020, 15:32:03,-1.2669654,-1.4489869,2.7470875,-0.5078598,1.4588197,2.0212035,3.3542888835412037,2.5438829214282235,jump
05/08/2020, 15:32:03,-1.2669654,-1.4489869,2.7470875,-0.46387756,1.715383,2.2521105,3.3542888835412037,2.8687493838267852,jump
05/08/2020, 15:32:03,-1.0106983,-0.98195803,2.6249416,-0.46387756,1.715383,2.2521105,2.9792735699204225,2.8687493838267852,jump
05/08/2020, 15:32:03,-1.0106983,-0.98195803,2.6249416,-0.44188643,1.959729,2.5001216,2.9792735699204225,3.2072432362753855,jump
05/08/2020, 15:32:03,-0.99393314,-0.8095166,2.4812403,-0.44188643,1.959729,2.5001216,2.7928074618578402,3.2072432362753855,jump
05/08/2020, 15:32:03,-0.99393314,-0.8095166,2.4812403,-0.41378662,2.1417668,2.7640152,2.7928074618578402,3.5211027176583993,jump
05/08/2020, 15:32:03,-1.1663746,-1.0562036,2.4525,-0.41378662,2.1417668,2.7640152,2.913889572558058,3.5211027176583993,jump
05/08/2020, 15:32:04,-7.913145,-4.24158,2.6225464,0.52450204,-0.040242996,-1.1394123,9.353428013399894,1.2549829641462855,jump
05/08/2020, 15:32:04,-7.5874224,-4.014053,2.4572902,0.52450204,-0.040242996,-1.1394123,8.928598638815023,1.2549829641462855,jump
05/08/2020, 15:32:04,-7.5874224,-4.014053,2.4572902,0.85070395,0.11247326,-1.0648868,8.928598638815023,1.367600587432451,jump
05/08/2020, 15:32:04,-7.424561,-3.8272414,2.208208,0.85070395,0.11247326,-1.0648868,8.639911239718352,1.367600587432451,jump
05/08/2020, 15:32:04,-7.424561,-3.8272414,2.208208,1.1133759,0.25297222,-0.9854742,8.639911239718352,1.5082308500566601,jump
05/08/2020, 15:32:04,-7.316785,-3.6452198,2.064507,1.1133759,0.25297222,-0.9854742,8.431201412854286,1.5082308500566601,jump
05/08/2020, 15:32:04,-7.316785,-3.6452198,2.064507,1.3271786,0.36903656,-0.8987314,8.431201412854286,1.6447824041179158,jump
05/08/2020, 15:32:04,-7.206614,-3.544629,1.8537452,1.3271786,0.36903656,-0.8987314,8.24233294526819,1.6447824041179158,jump
05/08/2020, 15:32:04,-7.206614,-3.544629,1.8537452,1.4957774,0.4643315,-0.7997713,8.24233294526819,1.7585755121170885,jump
05/08/2020, 15:32:04,-7.2114043,-3.4679885,1.6789087,1.4957774,0.4643315,-0.7997713,8.176186821149841,1.7585755121170885,jump
05/08/2020, 15:32:04,-7.2114043,-3.4679885,1.6789087,1.6155069,0.54618746,-0.6934808,8.176186821149841,1.8409505291846053,jump
05/08/2020, 15:32:04,-7.1132083,-3.4296682,1.5615528,1.6155069,0.54618746,-0.6934808,8.04977037837953,1.8409505291846053,jump
05/08/2020, 15:32:04,-7.1132083,-3.4296682,1.5615528,1.6973629,0.6133826,-0.588412,8.04977037837953,1.898290722376234,jump
05/08/2020, 15:32:04,-7.046148,-3.3985329,1.4944923,1.6973629,0.6133826,-0.588412,7.964404058769207,1.898290722376234,jump
05/08/2020, 15:32:04,-7.046148,-3.3985329,1.4944923,1.7450104,0.67691255,-0.48578668,7.964404058769207,1.9337167585730268,jump
05/08/2020, 15:32:04,-7.0174074,-3.3123121,1.4489869,1.7450104,0.67691255,-0.48578668,7.893983879058962,1.9337167585730268,jump
05/08/2020, 15:32:04,-7.0174074,-3.3123121,1.4489869,1.7572277,0.7404425,-0.3856048,7.893983879058962,1.945455017305658,jump
05/08/2020, 15:32:04,-7.096443,-3.278782,1.4897022,1.7572277,0.7404425,-0.3856048,7.957960113011602,1.945455017305658,jump
05/08/2020, 15:32:04,-7.096443,-3.278782,1.4897022,1.7498972,0.79786384,-0.2915316,7.957960113011602,1.9451780726933277,jump
05/08/2020, 15:32:04,-7.2185893,-3.2548318,1.477727,1.7498972,0.79786384,-0.2915316,8.055162245718273,1.9451780726933277,jump
05/08/2020, 15:32:05,-9.172925,-3.4775686,1.6022681,0.4670807,0.1833336,-0.10582864,9.939984888649509,0.5128111780979249,jump
05/08/2020, 15:32:05,-9.172925,-3.4775686,1.6022681,0.4292071,0.16500765,-0.11315902,9.939984888649509,0.47355169995794716,jump
05/08/2020, 15:32:05,-9.1849,-3.4631984,1.5950831,0.4292071,0.16500765,-0.11315902,9.944869365407639,0.47355169995794716,jump
05/08/2020, 15:32:05,-9.1849,-3.4631984,1.5950831,0.38278136,0.15156862,-0.11804594,9.944869365407639,0.4282866541436766,jump
05/08/2020, 15:32:05,-9.19448,-3.412903,1.5998731,0.38278136,0.15156862,-0.11804594,9.937100311720254,0.4282866541436766,jump
05/08/2020, 15:32:05,-9.19448,-3.412903,1.5998731,0.3363556,0.13568613,-0.1204894,9.937100311720254,0.3821825605125657,jump
05/08/2020, 15:32:05,-9.271121,-3.3458424,1.6166383,0.3363556,0.13568613,-0.1204894,9.988086181623885,0.3821825605125657,jump
05/08/2020, 15:32:05,-9.271121,-3.3458424,1.6166383,0.2789343,0.111251526,-0.11682421,9.988086181623885,0.3222252963379193,jump
05/08/2020, 15:32:05,-9.292676,-3.3578174,1.6501685,0.2789343,0.111251526,-0.11682421,10.017575589576168,0.3222252963379193,jump
05/08/2020, 15:32:05,-9.292676,-3.3578174,1.6501685,0.2141826,0.08070827,-0.11193729,10.017575589576168,0.2547900487041242,jump
05/08/2020, 15:32:05,-9.290281,-3.3362625,1.6238233,0.2141826,0.08070827,-0.11193729,10.003838055870437,0.2547900487041242,jump
05/08/2020, 15:32:05,-9.290281,-3.3362625,1.6238233,0.14332226,0.046499833,-0.100941725,10.003838055870437,0.18136354747321673,jump
05/08/2020, 15:32:05,-9.206455,-3.391348,1.6717237,0.14332226,0.046499833,-0.100941725,9.952623704356853,0.18136354747321673,jump
05/08/2020, 15:32:05,-9.206455,-3.391348,1.6717237,0.0834575,0.012291396,-0.086280964,9.952623704356853,0.12066746654719462,jump
05/08/2020, 15:32:05,-9.10347,-3.439248,1.6932789,0.0834575,0.012291396,-0.086280964,9.877691235204832,0.12066746654719462,jump
05/08/2020, 15:32:05,-9.10347,-3.439248,1.6932789,0.043140404,-0.012143205,-0.072841935,9.877691235204832,0.08552484639431977,jump
05/08/2020, 15:32:05,-8.969349,-3.4943337,1.7651294,0.043140404,-0.012143205,-0.072841935,9.786484052168767,0.08552484639431977,jump
05/08/2020, 15:32:05,-8.969349,-3.4943337,1.7651294,0.026036184,-0.021917045,-0.05329425,9.786484052168767,0.06323382577487649,jump
05/08/2020, 15:32:05,-8.837623,-3.5901344,1.7890797,0.026036184,-0.021917045,-0.05329425,9.705330746858492,0.06323382577487649,jump
05/08/2020, 15:32:05,-8.837623,-3.5901344,1.7890797,0.038253486,-0.020695316,-0.03619003,9.705330746858492,0.05658041631079358,jump
05/08/2020, 15:32:06,-8.921448,-1.8202149,2.9722195,-0.63003284,-0.3823274,0.19960387,9.578073958310435,0.7635164228193182,jump
05/08/2020, 15:32:06,-8.969349,-1.8776954,2.9626393,-0.63003284,-0.3823274,0.19960387,9.630793934274308,0.7635164228193182,jump
05/08/2020, 15:32:06,-8.969349,-1.8776954,2.9626393,-0.6617978,-0.37621877,0.22648193,9.630793934274308,0.7942360989003399,jump
05/08/2020, 15:32:06,-8.988508,-1.9639161,2.9770093,-0.6617978,-0.37621877,0.22648193,9.67020324276344,0.7942360989003399,jump
05/08/2020, 15:32:06,-8.988508,-1.9639161,2.9770093,-0.6850107,-0.36644492,0.25336,9.67020324276344,0.8171369454292807,jump
05/08/2020, 15:32:06,-8.993299,-2.0213966,2.9961696,-0.6850107,-0.36644492,0.25336,9.692393661985536,0.8171369454292807,jump
05/08/2020, 15:32:06,-8.993299,-2.0213966,2.9961696,-0.69844973,-0.3530059,0.27657288,9.692393661985536,0.8300227357396305,jump
05/08/2020, 15:32:06,-8.8951025,-2.1195924,3.0344899,-0.69844973,-0.3530059,0.27657288,9.63450306632749,0.8300227357396305,jump
05/08/2020, 15:32:06,-8.8951025,-2.1195924,3.0344899,-0.697228,-0.32734957,0.29856402,9.63450306632749,0.8260902611020725,jump
05/08/2020, 15:32:06,-8.842413,-2.1627028,3.0153298,-0.697228,-0.32734957,0.29856402,9.58946109959073,0.8260902611020725,jump
05/08/2020, 15:32:06,-8.842413,-2.1627028,3.0153298,-0.6850107,-0.29191938,0.32055515,9.58946109959073,0.8106862213048674,jump
05/08/2020, 15:32:06,-8.770562,-2.2632935,3.0847852,-0.6850107,-0.29191938,0.32055515,9.568759489733447,0.8106862213048674,jump
05/08/2020, 15:32:06,-8.770562,-2.2632935,3.0847852,-0.6617978,-0.25038058,0.33765936,9.568759489733447,0.7840157089898386,jump
05/08/2020, 15:32:06,-8.768167,-2.3064039,3.1063404,-0.6617978,-0.25038058,0.33765936,9.583819388834986,0.7840157089898386,jump
05/08/2020, 15:32:06,-8.768167,-2.3064039,3.1063404,-0.63125455,-0.21006346,0.34987667,9.583819388834986,0.751679887644616,jump
05/08/2020, 15:32:06,-8.801697,-2.339934,3.0991554,-0.63125455,-0.21006346,0.34987667,9.620287010121347,0.751679887644616,jump
05/08/2020, 15:32:06,-8.801697,-2.339934,3.0991554,-0.59704614,-0.16852464,0.35720706,9.620287010121347,0.7158641817415919,jump
05/08/2020, 15:32:06,-8.820857,-2.3902297,3.0871804,-0.59704614,-0.16852464,0.35720706,9.646315346517131,0.7158641817415919,jump
05/08/2020, 15:32:06,-8.820857,-2.3902297,3.0871804,-0.5677246,-0.13065101,0.36087224,9.646315346517131,0.6852807196777965,jump
05/08/2020, 15:32:06,-8.665181,-2.3471193,3.0608351,-0.5677246,-0.13065101,0.36087224,9.48488509900713,0.6852807196777965,jump
05/08/2020, 15:32:07,-9.019644,-3.4631984,2.2728736,-0.3429263,0.08681692,0.25213826,9.925405376401669,0.43440686162013403,jump
05/08/2020, 15:32:07,-8.993299,-3.5039136,2.2968237,-0.3429263,0.08681692,0.25213826,9.921301757137398,0.43440686162013403,jump
05/08/2020, 15:32:07,-8.993299,-3.5039136,2.2968237,-0.34048283,0.089260384,0.24847306,9.921301757137398,0.4308536149657027,jump
05/08/2020, 15:32:07,-8.907078,-3.5039136,2.315984,-0.34048283,0.089260384,0.24847306,9.847701634695197,0.4308536149657027,jump
05/08/2020, 15:32:07,-8.907078,-3.5039136,2.315984,-0.33803937,0.09903423,0.24480788,9.847701634695197,0.42896304374751154,jump
05/08/2020, 15:32:07,-8.880733,-3.4679885,2.3064039,-0.33803937,0.09903423,0.24480788,9.808866060454044,0.42896304374751154,jump
05/08/2020, 15:32:07,-8.880733,-3.4679885,2.3064039,-0.33926108,0.11247326,0.23992096,9.808866060454044,0.43047692583818725,jump
05/08/2020, 15:32:07,-8.873548,-3.3793726,2.1267774,-0.33926108,0.11247326,0.23992096,9.730528633883731,0.43047692583818725,jump
05/08/2020, 15:32:07,-8.873548,-3.3793726,2.1267774,-0.36125225,0.11247326,0.23136884,9.730528633883731,0.443491781671414,jump
05/08/2020, 15:32:07,-8.837623,-3.2644117,1.8800904,-0.36125225,0.11247326,0.23136884,9.607012927312825,0.443491781671414,jump
05/08/2020, 15:32:07,-8.837623,-3.2644117,1.8800904,-0.40767798,0.097812496,0.221595,9.607012927312825,0.4742077226884255,jump
05/08/2020, 15:32:07,-8.634046,-3.182981,1.6693287,-0.40767798,0.097812496,0.221595,9.352260146573814,0.4742077226884255,jump
05/08/2020, 15:32:07,-8.634046,-3.182981,1.6693287,-0.46265584,0.075821355,0.21426463,9.352260146573814,0.5154693380831555,jump
05/08/2020, 15:32:07,-8.351434,-3.1302907,1.585503,-0.46265584,0.075821355,0.21426463,9.058641488219049,0.5154693380831555,jump
05/08/2020, 15:32:07,-8.351434,-3.1302907,1.585503,-0.5176337,0.06360406,0.20571251,9.058641488219049,0.5606315517091865,jump
05/08/2020, 15:32:07,-7.9873905,-3.0799952,1.5950831,-0.5176337,0.06360406,0.20571251,8.707988722926599,0.5606315517091865,jump
05/08/2020, 15:32:07,-7.9873905,-3.0799952,1.5950831,-0.55306387,0.068490975,0.19593868,8.707988722926599,0.5907305835222533,jump
05/08/2020, 15:32:07,-7.580237,-3.1302907,1.719624,-0.55306387,0.068490975,0.19593868,8.379487970335886,0.5907305835222533,jump
05/08/2020, 15:32:07,-7.580237,-3.1302907,1.719624,-0.56650287,0.090482116,0.18249965,8.379487970335886,0.602012155365481,jump
05/08/2020, 15:32:07,-7.278465,-3.159031,1.8130299,-0.56650287,0.090482116,0.18249965,8.138955918440537,0.602012155365481,jump
05/08/2020, 15:32:08,-15.543677,0.92926764,0.52690434,4.4328165,7.445297,-0.46746072,15.580342470043044,8.677604831218556,jump
05/08/2020, 15:32:08,-17.169895,1.8657203,1.585503,4.4328165,7.445297,-0.46746072,17.343587635247935,8.677604831218556,jump
05/08/2020, 15:32:08,-17.169895,1.8657203,1.585503,3.0950222,6.740359,-0.8119886,17.343587635247935,7.461295132360564,jump
05/08/2020, 15:32:08,-18.101559,0.9196875,4.0763235,3.0950222,6.740359,-0.8119886,18.57763885170681,7.461295132360564,jump
05/08/2020, 15:32:08,-18.101559,0.9196875,4.0763235,2.2556937,6.0989504,-1.1687338,18.57763885170681,6.606912178951268,jump
05/08/2020, 15:32:08,-18.036892,-1.7315992,6.262976,2.2556937,6.0989504,-1.1687338,19.171665996646848,6.606912178951268,jump
05/08/2020, 15:32:08,-18.036892,-1.7315992,6.262976,1.7853274,5.80207,-1.4705011,19.171665996646848,6.246101612257467,jump
05/08/2020, 15:32:08,-18.027313,-3.5637891,8.5119,1.7853274,5.80207,-1.4705011,20.2518408068124,6.246101612257467,jump
05/08/2020, 15:32:08,-18.027313,-3.5637891,8.5119,1.67415,5.7324314,-1.5853437,20.2518408068124,6.178742815938298,jump
05/08/2020, 15:32:08,-17.921932,-4.064348,10.162068,1.67415,5.7324314,-1.5853437,20.99957653074276,6.178742815938298,jump
05/08/2020, 15:32:08,-17.921932,-4.064348,10.162068,1.5629725,5.6835623,-1.5743482,20.99957653074276,6.101174939727836,jump
05/08/2020, 15:32:08,-17.54831,-3.3242872,10.868599,1.5629725,5.6835623,-1.5743482,20.907426630536044,6.101174939727836,jump
05/08/2020, 15:32:08,-17.54831,-3.3242872,10.868599,1.1524713,5.470981,-1.5095965,20.907426630536044,5.791261177556117,jump
05/08/2020, 15:32:08,-17.268091,-2.186653,10.839859,1.1524713,5.470981,-1.5095965,20.505388754746253,5.791261177556117,jump
05/08/2020, 15:32:08,-17.268091,-2.186653,10.839859,0.36689886,5.000615,-1.4448448,20.505388754746253,5.218078475053857,jump
05/08/2020, 15:32:08,-16.726816,-1.6310084,10.205178,0.36689886,5.000615,-1.4448448,19.661948812959373,5.218078475053857,jump
05/08/2020, 15:32:08,-16.726816,-1.6310084,10.205178,-0.53229445,4.0427785,-1.3300022,19.661948812959373,4.289090945748253,jump
05/08/2020, 15:32:08,-18.997295,-1.3028907,16.892073,-0.53229445,4.0427785,-1.3300022,25.454604203457322,4.289090945748253,jump
05/08/2020, 15:32:08,-18.997295,-1.3028907,16.892073,-0.7448755,2.982317,-0.35506156,25.454604203457322,3.0943695194777443,jump
05/08/2020, 15:32:08,-25.382418,6.1599903,23.310726,-0.7448755,2.982317,-0.35506156,35.008606973512286,3.0943695194777443,jump
05/08/2020, 15:32:09,-8.076006,-3.551814,2.9530592,-0.08269779,0.09903423,0.52091885,9.303645185873851,0.5366592460123575,jump
05/08/2020, 15:32:09,-7.9730206,-3.551814,2.9961696,-0.08269779,0.09903423,0.52091885,9.228297355234083,0.5366592460123575,jump
05/08/2020, 15:32:09,-7.9730206,-3.551814,2.9961696,-0.1401191,0.09292558,0.5343579,9.228297355234083,0.5601846998188263,jump
05/08/2020, 15:32:09,-7.8724294,-3.5925295,3.0057497,-0.1401191,0.09292558,0.5343579,9.160564607885954,0.5601846998188263,jump
05/08/2020, 15:32:09,-7.8724294,-3.5925295,3.0057497,-0.17921446,0.096590765,0.5539056,9.160564607885954,0.5901347474300853,jump
05/08/2020, 15:32:09,-7.932305,-3.7218604,3.1446607,-0.17921446,0.096590765,0.5539056,9.309274744590066,0.5901347474300853,jump
05/08/2020, 15:32:09,-7.932305,-3.7218604,3.1446607,-0.20487079,0.103921145,0.5795619,9.309274744590066,0.6234289281825457,jump
05/08/2020, 15:32:09,-8.044871,-3.8344264,3.2260914,-0.20487079,0.103921145,0.5795619,9.477892496988945,0.6234289281825457,jump
05/08/2020, 15:32:09,-8.044871,-3.8344264,3.2260914,-0.2293054,0.10758634,0.6015531,9.477892496988945,0.6527035303416816,jump
05/08/2020, 15:32:09,-8.1143265,-3.894302,3.2189064,-0.2293054,0.10758634,0.6015531,9.55872584739101,0.6527035303416816,jump
05/08/2020, 15:32:09,-8.1143265,-3.894302,3.2189064,-0.2574052,0.09536903,0.6186573,9.55872584739101,0.676823114908783,jump
05/08/2020, 15:32:09,-8.116721,-3.9661524,3.2069314,-0.2574052,0.09536903,0.6186573,9.586236804649818,0.676823114908783,jump
05/08/2020, 15:32:09,-8.116721,-3.9661524,3.2069314,-0.29772228,0.07215617,0.63331807,9.586236804649818,0.7035174782173264,jump
05/08/2020, 15:32:09,-8.032896,-3.894302,3.2620168,-0.29772228,0.07215617,0.63331807,9.504407370745364,0.7035174782173264,jump
05/08/2020, 15:32:09,-8.032896,-3.894302,3.2620168,-0.3514784,0.051386755,0.64553535,9.504407370745364,0.7368131042798428,jump
05/08/2020, 15:32:09,-7.937095,-3.9350173,3.2428565,-0.3514784,0.051386755,0.64553535,9.43387298420599,0.7368131042798428,jump
05/08/2020, 15:32:09,-7.937095,-3.9350173,3.2428565,-0.41867355,0.037947726,0.6565309,9.43387298420599,0.7795898997723215,jump
05/08/2020, 15:32:09,-7.8700347,-3.8847218,3.1925611,-0.41867355,0.037947726,0.6565309,9.339216022271245,0.7795898997723215,jump
05/08/2020, 15:32:09,-7.8700347,-3.8847218,3.1925611,-0.4931991,0.029395616,0.66263956,9.339216022271245,0.8265595251408614,jump
05/08/2020, 15:32:09,-7.805369,-3.8511915,3.0799952,-0.4931991,0.029395616,0.66263956,9.232650213003923,0.8265595251408614,jump
05/08/2020, 15:32:10,-10.106983,-4.631968,4.481082,1.0913848,0.33971503,0.07254394,11.98692339196078,1.1453338554726147,jump
05/08/2020, 15:32:10,-10.365645,-4.4643164,4.3709106,1.0913848,0.33971503,0.07254394,12.102957706050578,1.1453338554726147,jump
05/08/2020, 15:32:10,-10.365645,-4.4643164,4.3709106,1.1304802,0.27862853,0.074987404,12.102957706050578,1.1667229245950097,jump
05/08/2020, 15:32:10,-10.406361,-4.263135,4.0667434,1.1304802,0.27862853,0.074987404,11.958472427865376,1.1667229245950097,jump
05/08/2020, 15:32:10,-10.406361,-4.263135,4.0667434,1.0987152,0.20410301,0.07132221,11.958472427865376,1.1197856740045997,jump
05/08/2020, 15:32:10,-10.188414,-3.9901028,3.774551,1.0987152,0.20410301,0.07132221,11.57462426167726,1.1197856740045997,jump
05/08/2020, 15:32:10,-10.188414,-3.9901028,3.774551,1.0205244,0.12835576,0.0627701,11.57462426167726,1.0304781904164333,jump
05/08/2020, 15:32:10,-9.884246,-3.6452198,3.523074,1.0205244,0.12835576,0.0627701,11.10846495543779,1.0304781904164333,jump
05/08/2020, 15:32:10,-9.884246,-3.6452198,3.523074,0.91912085,0.062382326,0.035892043,11.10846495543779,0.921934339779761,jump
05/08/2020, 15:32:10,-9.565708,-3.3817677,3.3171022,0.91912085,0.062382326,0.035892043,10.67437551746113,0.921934339779761,jump
05/08/2020, 15:32:10,-9.565708,-3.3817677,3.3171022,0.80183476,0.018400045,-0.004425048,10.67437551746113,0.8020580580077746,jump
05/08/2020, 15:32:10,-9.24717,-3.1135256,3.2117214,0.80183476,0.018400045,-0.004425048,10.272261563269355,0.8020580580077746,jump
05/08/2020, 15:32:10,-9.24717,-3.1135256,3.2117214,0.69554424,-0.004812825,-0.054515976,10.272261563269355,0.6976940222962575,jump
05/08/2020, 15:32:10,-8.880733,-2.9578493,3.2069314,0.69554424,-0.004812825,-0.054515976,9.894477821056048,0.6976940222962575,jump
05/08/2020, 15:32:10,-8.880733,-2.9578493,3.2069314,0.5990276,-0.020695316,-0.10949383,9.894477821056048,0.6093038890691735,jump
05/08/2020, 15:32:10,-8.698711,-2.8476784,3.178191,0.5990276,-0.020695316,-0.10949383,9.689053102930933,0.6093038890691735,jump
05/08/2020, 15:32:10,-8.698711,-2.8476784,3.178191,0.5061761,-0.023138775,-0.16080649,9.689053102930933,0.5316092448552852,jump
05/08/2020, 15:32:10,-8.454419,-2.7710378,3.1973512,0.5061761,-0.023138775,-0.16080649,9.454041903746392,0.5316092448552852,jump
05/08/2020, 15:32:10,-8.454419,-2.7710378,3.1973512,0.41943324,-0.014586665,-0.21089743,9.454041903746392,0.46969643032557035,jump
05/08/2020, 15:32:10,-8.272398,-2.7183473,3.293152,0.41943324,-0.014586665,-0.21089743,9.309502210344162,0.46969643032557035,jump
05/08/2020, 15:32:11,-8.442444,-3.1973512,3.2811768,0.039475217,-0.036577806,0.14340429,9.605416917361396,0.15316990268902175,jump
05/08/2020, 15:32:11,-8.5119,-3.2811768,3.3314724,0.039475217,-0.036577806,0.14340429,9.711707897517872,0.15316990268902175,jump
05/08/2020, 15:32:11,-8.5119,-3.2811768,3.3314724,0.06879674,-0.008478015,0.1519564,9.711707897517872,0.16701980062702254,jump
05/08/2020, 15:32:11,-8.595725,-3.2859669,3.288362,0.06879674,-0.008478015,0.1519564,9.772276725803954,0.16701980062702254,jump
05/08/2020, 15:32:11,-8.595725,-3.2859669,3.288362,0.09078788,0.008626206,0.15928677,9.772276725803954,0.18354597468652933,jump
05/08/2020, 15:32:11,-8.533455,-3.293152,3.187771,0.09078788,0.008626206,0.15928677,9.68641252629481,0.18354597468652933,jump
05/08/2020, 15:32:11,-8.533455,-3.293152,3.187771,0.10300518,0.012291396,0.16783889,9.68641252629481,0.19730949533378261,jump
05/08/2020, 15:32:11,-8.401729,-3.2524366,3.182981,0.10300518,0.012291396,0.16783889,9.555038262287077,0.19730949533378261,jump
05/08/2020, 15:32:11,-8.401729,-3.2524366,3.182981,0.10544864,0.018400045,0.17516926,9.555038262287077,0.20528576894493608,jump
05/08/2020, 15:32:11,-8.315508,-3.2284865,3.180586,0.10544864,0.018400045,0.17516926,9.470318089237376,0.20528576894493608,jump
05/08/2020, 15:32:11,-8.315508,-3.2284865,3.180586,0.11277902,0.031839073,0.18127792,9.470318089237376,0.2158576312233548,jump
05/08/2020, 15:32:11,-8.248447,-3.2524366,3.1925611,0.11277902,0.031839073,0.18127792,9.423782445937192,0.2158576312233548,jump
05/08/2020, 15:32:11,-8.248447,-3.2524366,3.1925611,0.13843535,0.052608486,0.18738656,9.423782445937192,0.23884245970941342,jump
05/08/2020, 15:32:11,-8.217313,-3.3482375,3.2380664,0.13843535,0.052608486,0.18738656,9.44563383545741,0.23884245970941342,jump
05/08/2020, 15:32:11,-8.217313,-3.3482375,3.2380664,0.17386551,0.075821355,0.19349521,9.44563383545741,0.27095846909584465,jump
05/08/2020, 15:32:11,-8.279583,-3.3482375,3.2260914,0.17386551,0.075821355,0.19349521,9.495780871262552,0.27095846909584465,jump
05/08/2020, 15:32:11,-8.279583,-3.3482375,3.2260914,0.19952184,0.097812496,0.20082559,9.495780871262552,0.29951154442345596,jump
05/08/2020, 15:32:11,-8.365804,-3.293152,3.1446607,0.19952184,0.097812496,0.20082559,9.524726429676779,0.29951154442345596,jump
05/08/2020, 15:32:11,-8.365804,-3.293152,3.1446607,0.2141826,0.111251526,0.21059944,9.524726429676779,0.32031736022863605,jump
05/08/2020, 15:32:11,-8.365804,-3.271597,3.0823903,0.2141826,0.111251526,0.21059944,9.496902031870386,0.32031736022863605,jump
05/08/2020, 15:32:12,-24.27113,4.0499783,8.368198,-1.0258734,-4.068287,-3.0440893,25.99070604477773,5.1836140208568,jump
05/08/2020, 15:32:12,-24.27113,4.0499783,8.368198,-2.0875566,-4.4470234,-3.4863555,25.99070604477773,6.0240007121748125,jump
05/08/2020, 15:32:12,-19.49067,3.7266505,7.5970025,-2.0875566,-4.4470234,-3.4863555,21.248260133141684,6.0240007121748125,jump
05/08/2020, 15:32:12,-19.49067,3.7266505,7.5970025,-3.130914,-4.7206907,-4.0972204,21.248260133141684,6.991048449591469,jump
05/08/2020, 15:32:12,-16.851358,1.5088624,6.9144216,-3.130914,-4.7206907,-4.0972204,18.277148889917047,6.991048449591469,jump
05/08/2020, 15:32:12,-16.851358,1.5088624,6.9144216,-3.9396994,-5.0517797,-4.6714334,18.277148889917047,7.928682143389615,jump
05/08/2020, 15:32:12,-15.543677,-2.2776637,6.591094,-3.9396994,-5.0517797,-4.6714334,17.03631935737661,7.928682143389615,jump
05/08/2020, 15:32:12,-15.543677,-2.2776637,6.591094,-4.340427,-5.434181,-5.1344695,17.03631935737661,8.644790828229704,jump
05/08/2020, 15:32:12,-14.087505,-6.119275,5.9037232,-4.340427,-5.434181,-5.1344695,16.454703962054566,8.644790828229704,jump
05/08/2020, 15:32:12,-14.087505,-6.119275,5.9037232,-4.401513,-5.6870794,-5.4240193,16.454703962054566,9.007562143574196,jump
05/08/2020, 15:32:12,-12.054133,-8.514295,5.518125,-4.401513,-5.6870794,-5.4240193,15.75579415608655,9.007562143574196,jump
05/08/2020, 15:32:12,-12.054133,-8.514295,5.518125,-4.2781186,-5.766492,-5.540084,15.75579415608655,9.069027346765035,jump
05/08/2020, 15:32:12,-9.79563,-9.536968,5.760022,-4.2781186,-5.766492,-5.540084,14.835295560822358,9.069027346765035,jump
05/08/2020, 15:32:12,-9.79563,-9.536968,5.760022,-3.9690208,-5.815361,-5.5364184,14.835295560822358,8.95675607592278,jump
05/08/2020, 15:32:12,-7.6496925,-9.560919,6.1408305,-3.9690208,-5.815361,-5.5364184,13.698129937157839,8.95675607592278,jump
05/08/2020, 15:32:12,-7.6496925,-9.560919,6.1408305,-3.33983,-5.872782,-5.5474143,13.698129937157839,8.741729833314695,jump
05/08/2020, 15:32:12,-5.039121,-9.78605,6.207891,-3.33983,-5.872782,-5.5474143,12.637144614666475,8.741729833314695,jump
05/08/2020, 15:32:12,-5.039121,-9.78605,6.207891,-2.6348917,-5.787261,-5.6769176,12.637144614666475,8.524226499671405,jump
05/08/2020, 15:32:12,-2.3662794,-9.414823,7.074888,-2.6348917,-5.787261,-5.6769176,12.012169065916034,8.524226499671405,jump
05/08/2020, 15:32:12,-2.3662794,-9.414823,7.074888,-1.8542063,-5.398751,-5.846738,12.012169065916034,8.171226023033975,jump
05/08/2020, 15:32:13,-6.600674,-8.993299,6.991062,5.6068993,0.69279504,0.09209162,13.16522950468882,5.650288944804478,jump
05/08/2020, 15:32:13,-6.600674,-8.993299,6.991062,6.510979,0.74532944,-0.0960548,13.16522950468882,6.554204171586706,jump
05/08/2020, 15:32:13,-7.0245924,-8.080796,6.473738,6.510979,0.74532944,-0.0960548,12.512132211556128,6.554204171586706,jump
05/08/2020, 15:32:13,-7.0245924,-8.080796,6.473738,7.109627,0.79664207,-0.24144067,12.512132211556128,7.158192857508519,jump
05/08/2020, 15:32:13,-7.407796,-6.940767,5.6761966,7.109627,0.79664207,-0.24144067,11.630515537828968,7.158192857508519,jump
05/08/2020, 15:32:13,-7.407796,-6.940767,5.6761966,7.3405337,0.82840705,-0.3452877,11.630515537828968,7.395195557442327,jump
05/08/2020, 15:32:13,-7.781419,-5.489385,4.7804594,7.3405337,0.82840705,-0.3452877,10.655356387444588,7.395195557442327,jump
05/08/2020, 15:32:13,-7.781419,-5.489385,4.7804594,7.137727,0.78320307,-0.4014873,10.655356387444588,7.191783000470963,jump
05/08/2020, 15:32:13,-8.47837,-3.772156,3.915857,7.137727,0.78320307,-0.4014873,10.072033087788586,7.191783000470963,jump
05/08/2020, 15:32:13,-8.47837,-3.772156,3.915857,6.5183096,0.5901697,-0.37583095,10.072033087788586,6.555753897315399,jump
05/08/2020, 15:32:13,-9.378897,-1.8058448,3.2452517,6.5183096,0.5901697,-0.37583095,10.087439578460518,6.555753897315399,jump
05/08/2020, 15:32:13,-9.378897,-1.8058448,3.2452517,5.548256,0.23464626,-0.27687082,10.087439578460518,5.560113314971306,jump
05/08/2020, 15:32:13,-10.3440895,0.09580079,2.6608667,5.548256,0.23464626,-0.27687082,10.681272271388691,5.560113314971306,jump
05/08/2020, 15:32:13,-10.3440895,0.09580079,2.6608667,4.330191,-0.22961114,-0.13515016,10.681272271388691,4.338380125494606,jump
05/08/2020, 15:32:13,-11.376344,1.590293,2.4501052,4.330191,-0.22961114,-0.13515016,11.745349889428603,4.338380125494606,jump
05/08/2020, 15:32:13,-11.376344,1.590293,2.4501052,2.969184,-0.7305204,0.012679173,11.745349889428603,3.057756369885336,jump
05/08/2020, 15:32:13,-11.941567,2.3710694,2.4692652,2.969184,-0.7305204,0.012679173,12.422571129065089,3.057756369885336,jump
05/08/2020, 15:32:13,-11.941567,2.3710694,2.4692652,1.5910723,-1.2082169,0.10797411,12.422571129065089,2.0007392709415472,jump
05/08/2020, 15:32:13,-12.0253935,2.5866213,2.4093897,1.5910723,-1.2082169,0.10797411,12.534187530695009,2.0007392709415472,jump
05/08/2020, 15:32:13,-12.0253935,2.5866213,2.4093897,0.3485729,-1.633379,0.1275218,12.534187530695009,1.675019935121349,jump
05/08/2020, 15:32:14,-8.356223,-3.9350173,2.5842261,1.3247352,-0.14409004,0.5673446,9.591092264487791,1.4482973100763026,jump
05/08/2020, 15:32:14,-8.464,-4.2799,2.8213332,1.3247352,-0.14409004,0.5673446,9.895289648984196,1.4482973100763026,jump
05/08/2020, 15:32:14,-8.464,-4.2799,2.8213332,1.289305,-0.1465335,0.5453535,9.895289648984196,1.4075474370499426,jump
05/08/2020, 15:32:14,-8.5119,-4.5074267,3.0823903,1.289305,-0.1465335,0.5453535,10.112886162965665,1.4075474370499426,jump
05/08/2020, 15:32:14,-8.5119,-4.5074267,3.0823903,1.3369524,-0.10865988,0.5123668,10.112886162965665,1.4358859724332784,jump
05/08/2020, 15:32:14,-8.533455,-4.6032276,3.2548318,1.3369524,-0.10865988,0.5123668,10.227584607878978,1.4358859724332784,jump
05/08/2020, 15:32:14,-8.533455,-4.6032276,3.2548318,1.4322474,-0.047573376,0.47571486,10.227584607878978,1.509933929688249,jump
05/08/2020, 15:32:14,-8.53585,-4.5649076,3.2644117,1.4322474,-0.047573376,0.47571486,10.215453612927323,1.509933929688249,jump
05/08/2020, 15:32:14,-8.53585,-4.5649076,3.2644117,1.5250989,0.012291396,0.43051085,10.215453612927323,1.5847452112882625,jump
05/08/2020, 15:32:14,-8.57896,-4.3565407,3.2260914,1.5250989,0.012291396,0.43051085,10.148185758311051,1.5847452112882625,jump
05/08/2020, 15:32:14,-8.57896,-4.3565407,3.2260914,1.565416,0.051386755,0.3804199,10.148185758311051,1.6117962315392247,jump
05/08/2020, 15:32:14,-8.631651,-4.160149,3.03928,1.565416,0.051386755,0.3804199,10.0523360836425,1.6117962315392247,jump
05/08/2020, 15:32:14,-8.631651,-4.160149,3.03928,1.5238771,0.057495404,0.33277246,10.0523360836425,1.5608474568539639,jump
05/08/2020, 15:32:14,-8.775352,-3.8296363,2.955454,1.5238771,0.057495404,0.33277246,10.020360165183035,1.5608474568539639,jump
05/08/2020, 15:32:14,-8.775352,-3.8296363,2.955454,1.4102563,0.031839073,0.28268152,10.020360165183035,1.4386609428406447,jump
05/08/2020, 15:32:14,-8.866363,-3.6284547,2.8979738,1.4102563,0.031839073,0.28268152,10.008812150368104,1.4386609428406447,jump
05/08/2020, 15:32:14,-8.866363,-3.6284547,2.8979738,1.230662,-0.014586665,0.23625576,10.008812150368104,1.2532192492176197,jump
05/08/2020, 15:32:14,-8.959768,-3.3985329,2.8357031,1.230662,-0.014586665,0.23625576,9.993432134331238,1.2532192492176197,jump
05/08/2020, 15:32:14,-8.959768,-3.3985329,2.8357031,1.0021985,-0.062234137,0.19105175,9.993432134331238,1.0221426554985327,jump
05/08/2020, 15:32:14,-9.002879,-3.2356715,2.811753,1.0021985,-0.062234137,0.19105175,9.97132680106056,1.0221426554985327,jump
05/08/2020, 15:32:15,-8.760982,-3.7027004,2.8668385,0.16286995,0.048943296,0.095756814,9.933959467239937,0.19517026585787575,jump
05/08/2020, 15:32:15,-8.772957,-3.652405,2.7901978,0.16286995,0.048943296,0.095756814,9.904041516155521,0.19517026585787575,jump
05/08/2020, 15:32:15,-8.772957,-3.652405,2.7901978,0.13965708,0.044056375,0.051774535,9.904041516155521,0.15532439181318286,jump
05/08/2020, 15:32:15,-8.816068,-3.6236646,2.684817,0.13965708,0.044056375,0.051774535,9.902637911397228,0.15532439181318286,jump
05/08/2020, 15:32:15,-8.816068,-3.6236646,2.684817,0.09689653,0.015956586,0.026118202,9.902637911397228,0.10161550323319915,jump
05/08/2020, 15:32:15,-8.787327,-3.5733693,2.6536818,0.09689653,0.015956586,0.026118202,9.850284629001782,0.10161550323319915,jump
05/08/2020, 15:32:15,-8.787327,-3.5733693,2.6536818,0.044362135,-0.019473584,0.011457441,9.850284629001782,0.04978446035984467,jump
05/08/2020, 15:32:15,-8.686736,-3.5781593,2.5890162,0.044362135,-0.019473584,0.011457441,9.74503018347593,0.04978446035984467,jump
05/08/2020, 15:32:15,-8.686736,-3.5781593,2.5890162,0.0016015843,-0.05001684,0.0041270624,9.74503018347593,0.05021236805196404,jump
05/08/2020, 15:32:15,-8.586145,-3.6500099,2.672842,0.0016015843,-0.05001684,0.0041270624,9.705078536351085,0.05021236805196404,jump
05/08/2020, 15:32:15,-8.586145,-3.6500099,2.672842,-0.022833018,-0.07445144,0.0016836026,9.705078536351085,0.07789222036445372,jump
05/08/2020, 15:32:15,-8.428074,-3.6859353,2.675237,-0.022833018,-0.07445144,0.0016836026,9.57994993713448,0.07789222036445372,jump
05/08/2020, 15:32:15,-8.428074,-3.6859353,2.675237,-0.024054745,-0.091555655,0.0090139825,9.57994993713448,0.09509111741115704,jump
05/08/2020, 15:32:15,-8.399334,-3.7027004,2.684817,-0.024054745,-0.091555655,0.0090139825,9.56384042509922,0.09509111741115704,jump
05/08/2020, 15:32:15,-8.399334,-3.7027004,2.684817,0.0028233137,-0.10377296,0.026118202,9.56384042509922,0.10704652696543819,jump
05/08/2020, 15:32:15,-8.262817,-3.7601807,2.7063723,0.0028233137,-0.10377296,0.026118202,9.472991127519508,0.10704652696543819,jump
05/08/2020, 15:32:15,-8.262817,-3.7601807,2.7063723,0.039475217,-0.11843372,0.049331076,9.472991127519508,0.13423261247812163,jump
05/08/2020, 15:32:15,-8.195757,-3.7506008,2.7494826,0.039475217,-0.11843372,0.049331076,9.423220923784042,0.13423261247812163,jump
05/08/2020, 15:32:15,-8.195757,-3.7506008,2.7494826,0.0834575,-0.13798138,0.074987404,9.423220923784042,0.1778401744085714,jump
05/08/2020, 15:32:15,-8.152647,-3.7458107,2.7614577,0.0834575,-0.13798138,0.074987404,9.387353199287515,0.1778401744085714,jump
05/08/2020, 15:32:16,-8.394544,-3.3506324,3.4368532,0.030923106,0.40935364,1.0035021,9.669904882892801,1.0842246861144869,jump
05/08/2020, 15:32:16,-8.411309,-3.293152,3.4823585,0.030923106,0.40935364,1.0035021,9.681001719651878,1.0842246861144869,jump
05/08/2020, 15:32:16,-8.411309,-3.293152,3.4823585,0.0956748,0.44111863,0.9424157,9.681001719651878,1.0449338204995167,jump
05/08/2020, 15:32:16,-8.396939,-3.283572,3.4799635,0.0956748,0.44111863,0.9424157,9.664397564584663,1.0449338204995167,jump
05/08/2020, 15:32:16,-8.396939,-3.283572,3.4799635,0.14943092,0.4692184,0.877664,9.664397564584663,1.0063745114171732,jump
05/08/2020, 15:32:16,-8.464,-3.2476466,3.4967287,0.14943092,0.4692184,0.877664,9.71666667615047,1.0063745114171732,jump
05/08/2020, 15:32:16,-8.464,-3.2476466,3.4967287,0.19219147,0.4887661,0.8080254,9.71666667615047,0.9637089514846381,jump
05/08/2020, 15:32:16,-8.598121,-3.1853762,3.527864,0.19219147,0.4887661,0.8080254,9.824465632962445,0.9637089514846381,jump
05/08/2020, 15:32:16,-8.598121,-3.1853762,3.527864,0.22395644,0.49609646,0.7371651,9.824465632962445,0.9163408534870597,jump
05/08/2020, 15:32:16,-8.701106,-3.187771,3.547024,0.22395644,0.49609646,0.7371651,9.922323854658,0.9163408534870597,jump
05/08/2020, 15:32:16,-8.701106,-3.187771,3.547024,0.24106066,0.49487475,0.665083,9.922323854658,0.8633346051088002,jump
05/08/2020, 15:32:16,-8.801697,-3.1278956,3.547024,0.24106066,0.49487475,0.665083,9.991745410286807,0.8633346051088002,jump
05/08/2020, 15:32:16,-8.801697,-3.1278956,3.547024,0.24594758,0.48754436,0.59422266,9.991745410286807,0.807025582325233,jump
05/08/2020, 15:32:16,-8.816068,-3.0799952,3.5494192,0.24594758,0.48754436,0.59422266,9.990385186619983,0.807025582325233,jump
05/08/2020, 15:32:16,-8.816068,-3.0799952,3.5494192,0.24106066,0.47532707,0.52458405,9.990385186619983,0.7478198312031131,jump
05/08/2020, 15:32:16,-8.861572,-3.0799952,3.6188745,0.24106066,0.47532707,0.52458405,10.055351121837758,0.7478198312031131,jump
05/08/2020, 15:32:16,-8.861572,-3.0799952,3.6188745,0.22395644,0.46310976,0.45983237,10.055351121837758,0.689980394737949,jump
05/08/2020, 15:32:16,-8.919053,-3.0344899,3.5853443,0.22395644,0.46310976,0.45983237,10.080294163783737,0.689980394737949,jump
05/08/2020, 15:32:16,-8.919053,-3.0344899,3.5853443,0.19585665,0.44722727,0.39752415,10.080294163783737,0.6296010678149192,jump
05/08/2020, 15:32:16,-8.976534,-2.9913795,3.5637891,0.19585665,0.44722727,0.39752415,10.110742056924051,0.6296010678149192,jump
05/08/2020, 15:32:17,-8.722662,-3.5494192,3.046465,0.032144837,0.16745111,0.039557233,9.897684415764761,0.17503696943572972,jump
05/08/2020, 15:32:17,-8.732242,-3.532654,3.03928,0.032144837,0.16745111,0.039557233,9.897924582973467,0.17503696943572972,jump
05/08/2020, 15:32:17,-8.732242,-3.532654,3.03928,0.024814455,0.15889901,0.027339933,9.897924582973467,0.16313222938159255,jump
05/08/2020, 15:32:17,-8.708291,-3.4895437,3.0416749,0.024814455,0.15889901,0.027339933,9.86220229229205,0.16313222938159255,jump
05/08/2020, 15:32:17,-8.708291,-3.4895437,3.0416749,0.013818884,0.15156862,0.013900902,9.86220229229205,0.15283076795733527,jump
05/08/2020, 15:32:17,-8.693921,-3.4799635,3.0919704,0.013818884,0.15156862,0.013900902,9.861779321021778,0.15283076795733527,jump
05/08/2020, 15:32:17,-8.693921,-3.4799635,3.0919704,0.006488504,0.14179479,0.002905332,9.861779321021778,0.14197289506497437,jump
05/08/2020, 15:32:17,-8.713081,-3.4464333,3.1207106,0.006488504,0.14179479,0.002905332,9.87595686676813,0.14197289506497437,jump
05/08/2020, 15:32:17,-8.713081,-3.4464333,3.1207106,3.798548E-4,0.1344644,-0.009311968,9.87595686676813,0.13478698521337948,jump
05/08/2020, 15:32:17,-8.727451,-3.4775686,3.1925611,3.798548E-4,0.1344644,-0.009311968,9.922415878511359,0.13478698521337948,jump
05/08/2020, 15:32:17,-8.727451,-3.4775686,3.1925611,-0.002063606,0.124690555,-0.019085808,9.922415878511359,0.12615966487432037,jump
05/08/2020, 15:32:17,-8.780142,-3.432063,3.180586,-0.002063606,0.124690555,-0.019085808,9.949174621088464,0.12615966487432037,jump
05/08/2020, 15:32:17,-8.780142,-3.432063,3.180586,-0.011837447,0.11369499,-0.028859649,9.949174621088464,0.11789637324650484,jump
05/08/2020, 15:32:17,-8.866363,-3.410508,3.1973512,-0.011837447,0.11369499,-0.028859649,10.023323017561875,0.11789637324650484,jump
05/08/2020, 15:32:17,-8.866363,-3.410508,3.1973512,-0.025276477,0.09536903,-0.038633488,10.023323017561875,0.10595611932784266,jump
05/08/2020, 15:32:17,-8.875943,-3.3769777,3.2476466,-0.025276477,0.09536903,-0.038633488,10.036610678623747,0.10595611932784266,jump
05/08/2020, 15:32:17,-8.875943,-3.3769777,3.2476466,-0.042380698,0.075821355,-0.048407327,10.036610678623747,0.09943978470079762,jump
05/08/2020, 15:32:17,-8.921448,-3.3793726,3.2356715,-0.042380698,0.075821355,-0.048407327,10.073825458093312,0.09943978470079762,jump
05/08/2020, 15:32:17,-8.921448,-3.3793726,3.2356715,-0.061928377,0.061160594,-0.058181167,10.073825458093312,0.10469379285020773,jump
05/08/2020, 15:32:17,-8.962164,-3.3410523,3.2308815,-0.061928377,0.061160594,-0.058181167,10.095623190862923,0.10469379285020773,jump
05/08/2020, 15:32:18,1.1903248,-5.508545,1.4441968,1.3638306,2.7465231,4.579506,5.817786924747201,5.511378925252144,jump
05/08/2020, 15:32:18,0.9580079,-6.564749,0.7664063,1.3638306,2.7465231,4.579506,6.678404302757007,5.511378925252144,jump
05/08/2020, 15:32:18,0.9580079,-6.564749,0.7664063,1.438356,3.0934944,4.7310004,6.678404302757007,5.832747277843471,jump
05/08/2020, 15:32:18,0.56522465,-6.813831,0.38080812,1.438356,3.0934944,4.7310004,6.847830649864065,5.832747277843471,jump
05/08/2020, 15:32:18,0.56522465,-6.813831,0.38080812,1.4884471,3.385488,4.8629475,6.847830649864065,6.109440395130727,jump
05/08/2020, 15:32:18,0.07664063,-6.351592,0.22273682,1.4884471,3.385488,4.8629475,6.355958403214277,6.109440395130727,jump
05/08/2020, 15:32:18,0.07664063,-6.351592,0.22273682,1.5727464,3.6261687,5.051094,6.355958403214277,6.413749451263561,jump
05/08/2020, 15:32:18,-0.16286133,-5.3792143,0.021555176,1.5727464,3.6261687,5.051094,5.381722287755906,6.413749451263561,jump
05/08/2020, 15:32:18,-0.16286133,-5.3792143,0.021555176,1.5910723,3.877845,5.2966614,5.381722287755906,6.754540331945237,jump
05/08/2020, 15:32:18,-0.14849122,-3.9374123,-0.47181886,1.5910723,3.877845,5.2966614,3.968359611153573,6.754540331945237,jump
05/08/2020, 15:32:18,-0.14849122,-3.9374123,-0.47181886,1.4969991,4.1796126,5.536121,3.968359611153573,7.096393644424522,jump
05/08/2020, 15:32:18,-0.06945557,-2.663262,-0.91250247,1.4969991,4.1796126,5.536121,2.81610524071122,7.096393644424522,jump
05/08/2020, 15:32:18,-0.06945557,-2.663262,-0.91250247,1.2880833,4.520475,5.6998324,2.81610524071122,7.387959250171944,jump
05/08/2020, 15:32:18,-0.39278322,-2.0166066,-0.9867481,1.2880833,4.520475,5.6998324,2.2791780378775623,7.387959250171944,jump
05/08/2020, 15:32:18,-0.39278322,-2.0166066,-0.9867481,0.94844234,4.8808856,5.784132,2.2791780378775623,7.6275009118180845,jump
05/08/2020, 15:32:18,-1.331631,-1.9399658,-0.9867481,0.94844234,4.8808856,5.784132,2.551544681607701,7.6275009118180845,jump
05/08/2020, 15:32:18,-1.331631,-1.9399658,-0.9867481,0.5672626,5.22297,5.8354445,2.551544681607701,7.851981564722095,jump
05/08/2020, 15:32:18,-2.8285182,-2.1770728,-0.98914313,0.5672626,5.22297,5.8354445,3.7038581091536953,7.851981564722095,jump
05/08/2020, 15:32:18,-2.8285182,-2.1770728,-0.98914313,0.35468155,5.4819765,5.891644,3.7038581091536953,8.05539164062228,jump
05/08/2020, 15:32:18,-4.600833,-2.6896071,-0.66342044,0.35468155,5.4819765,5.891644,5.370454077483716,8.05539164062228,jump
05/08/2020, 15:32:19,-8.432864,-3.403323,1.0346485,-0.042380698,0.102699414,-0.028859649,9.15239329517986,0.11478751025941933,jump
05/08/2020, 15:32:19,-8.684341,-3.4823585,1.2334352,-0.042380698,0.102699414,-0.028859649,9.437476822597661,0.11478751025941933,jump
05/08/2020, 15:32:19,-8.684341,-3.4823585,1.2334352,-0.044824153,0.18577707,-0.059402898,9.437476822597661,0.2001275294407818,jump
05/08/2020, 15:32:19,-8.945398,-3.532654,1.3843213,-0.044824153,0.18577707,-0.059402898,9.716796872463975,0.2001275294407818,jump
05/08/2020, 15:32:19,-8.945398,-3.532654,1.3843213,-0.04360243,0.24564184,-0.078950584,9.716796872463975,0.2616759089528852,jump
05/08/2020, 15:32:19,-9.072334,-3.5015187,1.3651612,-0.04360243,0.24564184,-0.078950584,9.819956614011314,0.2616759089528852,jump
05/08/2020, 15:32:19,-9.072334,-3.5015187,1.3651612,-0.06925876,0.27618507,-0.093611345,9.819956614011314,0.2997299612609391,jump
05/08/2020, 15:32:19,-8.978929,-3.5087037,1.3843213,-0.06925876,0.27618507,-0.093611345,9.739019738054118,0.2997299612609391,jump
05/08/2020, 15:32:19,-8.978929,-3.5087037,1.3843213,-0.13401045,0.29084584,-0.100941725,9.739019738054118,0.33576678757994766,jump
05/08/2020, 15:32:19,-8.753797,-3.4967287,1.4274317,-0.13401045,0.29084584,-0.100941725,9.533814928845258,0.33576678757994766,jump
05/08/2020, 15:32:19,-8.753797,-3.4967287,1.4274317,-0.2170881,0.31894562,-0.10216345,9.533814928845258,0.39911266725492106,jump
05/08/2020, 15:32:19,-8.48316,-3.5661843,1.4849122,-0.2170881,0.31894562,-0.10216345,9.32130025029463,0.39911266725492106,jump
05/08/2020, 15:32:19,-8.48316,-3.5661843,1.4849122,-0.2903919,0.3678148,-0.09238961,9.32130025029463,0.4776515733212319,jump
05/08/2020, 15:32:19,-8.349038,-3.7003052,1.5998731,-0.2903919,0.3678148,-0.09238961,9.271369379512688,0.4776515733212319,jump
05/08/2020, 15:32:19,-8.349038,-3.7003052,1.5998731,-0.32582206,0.4276796,-0.07406366,9.271369379512688,0.5427294686277496,jump
05/08/2020, 15:32:19,-8.346643,-3.8775368,1.7818946,-0.32582206,0.4276796,-0.07406366,9.37426778562877,0.5427294686277496,jump
05/08/2020, 15:32:19,-8.346643,-3.8775368,1.7818946,-0.31238303,0.49120957,-0.048407327,9.37426778562877,0.5841346270492143,jump
05/08/2020, 15:32:19,-8.394544,-3.9877076,1.9255958,-0.31238303,0.49120957,-0.048407327,9.490948008941558,0.5841346270492143,jump
05/08/2020, 15:32:19,-8.394544,-3.9877076,1.9255958,-0.2586269,0.5535178,-0.008090238,9.490948008941558,0.6110117060005181,jump
05/08/2020, 15:32:19,-8.396939,-4.030818,2.0213966,-0.2586269,0.5535178,-0.008090238,9.531113640543685,0.6110117060005181,jump
05/08/2020, 15:32:20,-8.871153,-1.7315992,3.7985013,-0.37713474,0.16500765,0.3266638,9.80430522685748,0.5255162892922892,jump
05/08/2020, 15:32:20,-8.871153,-1.7315992,3.7985013,-0.22808367,0.20654647,0.28756845,9.80430522685748,0.42116412298551914,jump
05/08/2020, 15:32:20,-8.8879175,-1.7962648,3.8487966,-0.22808367,0.20654647,0.28756845,9.850628418941302,0.42116412298551914,jump
05/08/2020, 15:32:20,-8.8879175,-1.7962648,3.8487966,-0.068037026,0.23342453,0.24969481,9.850628418941302,0.3485162056460549,jump
05/08/2020, 15:32:20,-8.933423,-1.7651294,3.8176613,-0.068037026,0.23342453,0.24969481,9.874019794759485,0.3485162056460549,jump
05/08/2020, 15:32:20,-8.933423,-1.7651294,3.8176613,0.0956748,0.23831145,0.22403847,9.874019794759485,0.3407920934852656,jump
05/08/2020, 15:32:20,-8.986114,-1.7004639,3.9134622,0.0956748,0.23831145,0.22403847,9.947713317179977,0.3407920934852656,jump
05/08/2020, 15:32:20,-8.986114,-1.7004639,3.9134622,0.25083452,0.23098108,0.22281674,9.947713317179977,0.4073297392569728,jump
05/08/2020, 15:32:20,-9.0004835,-1.5136524,3.8823268,0.25083452,0.23098108,0.22281674,9.918281549219012,0.4073297392569728,jump
05/08/2020, 15:32:20,-9.0004835,-1.5136524,3.8823268,0.3730075,0.22487243,0.24725135,9.918281549219012,0.5008347389051431,jump
05/08/2020, 15:32:20,-8.842413,-1.22146,3.7697608,0.3730075,0.22487243,0.24725135,9.689753768409185,0.5008347389051431,jump
05/08/2020, 15:32:20,-8.842413,-1.22146,3.7697608,0.43898094,0.20532474,0.2692425,9.689753768409185,0.5543951955620917,jump
05/08/2020, 15:32:20,-8.674761,-0.90052736,3.6452198,0.43898094,0.20532474,0.2692425,9.452515654131624,0.5543951955620917,jump
05/08/2020, 15:32:20,-8.674761,-0.90052736,3.6452198,0.43531573,0.15889901,0.28023806,9.452515654131624,0.5415552140039596,jump
05/08/2020, 15:32:20,-8.6077,-0.76161623,3.4488282,0.43531573,0.15889901,0.28023806,9.304137824358765,0.5415552140039596,jump
05/08/2020, 15:32:20,-8.6077,-0.76161623,3.4488282,0.36567712,0.10514288,0.29856402,9.304137824358765,0.48364785895135626,jump
05/08/2020, 15:32:20,-8.528665,-0.60354495,3.3051271,0.36567712,0.10514288,0.29856402,9.166583421033907,0.48364785895135626,jump
05/08/2020, 15:32:20,-8.528665,-0.60354495,3.3051271,0.26427355,0.048943296,0.34376803,9.166583421033907,0.4363627119138892,jump
05/08/2020, 15:32:20,-8.485555,-0.52690434,3.276387,0.26427355,0.048943296,0.34376803,9.111365336240008,0.4363627119138892,jump
05/08/2020, 15:32:20,-8.485555,-0.52690434,3.276387,0.12743978,-0.013364935,0.3999676,9.111365336240008,0.4199923919018865,jump
05/08/2020, 15:32:21,-9.369317,-1.1999048,2.5195606,0.33146867,0.097812496,-0.0960548,9.776096311601663,0.3586994413146173,jump
05/08/2020, 15:32:21,-9.369317,-1.1999048,2.5195606,0.30581236,0.07459962,-0.11071556,9.776096311601663,0.33368284050085095,jump
05/08/2020, 15:32:21,-9.381292,-1.1352394,2.3998096,0.30581236,0.07459962,-0.11071556,9.749692331001715,0.33368284050085095,jump
05/08/2020, 15:32:21,-9.381292,-1.1352394,2.3998096,0.266717,0.044056375,-0.12781978,9.749692331001715,0.29902643781563587,jump
05/08/2020, 15:32:21,-9.422008,-1.1064991,2.3423293,0.266717,0.044056375,-0.12781978,9.771646384254934,0.29902643781563587,jump
05/08/2020, 15:32:21,-9.422008,-1.1064991,2.3423293,0.22762163,0.0135131255,-0.14370227,9.771646384254934,0.2695265347410219,jump
05/08/2020, 15:32:21,-9.412427,-1.0777588,2.2896388,0.22762163,0.0135131255,-0.14370227,9.746681009960783,0.2695265347410219,jump
05/08/2020, 15:32:21,-9.412427,-1.0777588,2.2896388,0.19219147,-0.013364935,-0.15958476,9.746681009960783,0.2501668986902724,jump
05/08/2020, 15:32:21,-9.376502,-1.0514137,2.327959,0.19219147,-0.013364935,-0.15958476,9.718212516375313,0.2501668986902724,jump
05/08/2020, 15:32:21,-9.376502,-1.0514137,2.327959,0.16286995,-0.031690888,-0.18035418,9.718212516375313,0.24506848212869384,jump
05/08/2020, 15:32:21,-9.357342,-1.1160791,2.304009,0.16286995,-0.031690888,-0.18035418,9.70123367222798,0.24506848212869384,jump
05/08/2020, 15:32:21,-9.357342,-1.1160791,2.304009,0.13843535,-0.045129918,-0.20356704,9.70123367222798,0.2502810345383197,jump
05/08/2020, 15:32:21,-9.414823,-1.1064991,2.3686745,0.13843535,-0.045129918,-0.20356704,9.771071760775387,0.2502810345383197,jump
05/08/2020, 15:32:21,-9.414823,-1.1064991,2.3686745,0.12499632,-0.058568947,-0.21700607,9.771071760775387,0.2571887184168232,jump
05/08/2020, 15:32:21,-9.486672,-1.1328443,2.3614893,0.12499632,-0.058568947,-0.21700607,9.841591396742063,0.2571887184168232,jump
05/08/2020, 15:32:21,-9.486672,-1.1328443,2.3614893,0.114000745,-0.06834279,-0.22800164,9.841591396742063,0.26391599862967086,jump
05/08/2020, 15:32:21,-9.575289,-1.2286451,2.315984,0.114000745,-0.06834279,-0.22800164,9.927714025102475,0.26391599862967086,jump
05/08/2020, 15:32:21,-9.575289,-1.2286451,2.315984,0.10911383,-0.08056009,-0.24021895,9.927714025102475,0.27586391602685645,jump
05/08/2020, 15:32:21,-9.632769,-1.2334352,2.2704787,0.10911383,-0.08056009,-0.24021895,9.973297720397845,0.27586391602685645,jump
05/08/2020, 15:32:21,-9.632769,-1.2334352,2.2704787,0.10911383,-0.09399912,-0.25365797,9.973297720397845,0.29169166182469775,jump
05/08/2020, 15:32:22,-8.473579,-2.4620802,3.3506324,1.4982208,0.5535178,-0.31718794,9.438756525454874,1.6283905339729428,jump
05/08/2020, 15:32:22,-8.62207,-2.3614893,3.3242872,1.4982208,0.5535178,-0.31718794,9.53769434391887,1.6283905339729428,jump
05/08/2020, 15:32:22,-8.62207,-2.3614893,3.3242872,1.5079947,0.5290832,-0.32696176,9.53769434391887,1.6312206729903447,jump
05/08/2020, 15:32:22,-8.665181,-2.304009,3.2165112,1.5079947,0.5290832,-0.32696176,9.525742304129437,1.6312206729903447,jump
05/08/2020, 15:32:22,-8.665181,-2.304009,3.2165112,1.4982208,0.49853995,-0.34284425,9.525742304129437,1.6157814932802832,jump
05/08/2020, 15:32:22,-8.689131,-2.2393434,3.1015503,1.4982208,0.49853995,-0.34284425,9.493959509370926,1.6157814932802832,jump
05/08/2020, 15:32:22,-8.689131,-2.2393434,3.1015503,1.4688994,0.46677497,-0.35872674,9.493959509370926,1.582475625010561,jump
05/08/2020, 15:32:22,-8.631651,-2.1459377,2.9770093,1.4688994,0.46677497,-0.35872674,9.3793939339445,1.582475625010561,jump
05/08/2020, 15:32:22,-8.631651,-2.1459377,2.9770093,1.4200301,0.43989688,-0.3770527,9.3793939339445,1.5336764763745256,jump
05/08/2020, 15:32:22,-8.653206,-2.066902,2.936294,1.4200301,0.43989688,-0.3770527,9.36866470365105,1.5336764763745256,jump
05/08/2020, 15:32:22,-8.653206,-2.066902,2.936294,1.366274,0.41790575,-0.39904383,9.36866470365105,1.4834371681713328,jump
05/08/2020, 15:32:22,-8.672366,-2.1291726,2.912344,1.366274,0.41790575,-0.39904383,9.39281947885499,1.4834371681713328,jump
05/08/2020, 15:32:22,-8.672366,-2.1291726,2.912344,1.3088527,0.3959146,-0.4222567,9.39281947885499,1.4311339657149083,jump
05/08/2020, 15:32:22,-8.792117,-2.1148024,2.9003687,1.3088527,0.3959146,-0.4222567,9.496623136474419,1.4311339657149083,jump
05/08/2020, 15:32:22,-8.792117,-2.1148024,2.9003687,1.25754,0.37270173,-0.44424784,9.496623136474419,1.3847994613124628,jump
05/08/2020, 15:32:22,-8.916658,-2.1219873,2.8261232,1.25754,0.37270173,-0.44424784,9.591485801801362,1.3847994613124628,jump
05/08/2020, 15:32:22,-8.916658,-2.1219873,2.8261232,1.2074491,0.34948888,-0.46746072,9.591485801801362,1.3411171775289787,jump
05/08/2020, 15:32:22,-9.072334,-2.1627028,2.7710378,1.2074491,0.34948888,-0.46746072,9.72950067787322,1.3411171775289787,jump
05/08/2020, 15:32:22,-9.072334,-2.1627028,2.7710378,1.1622452,0.32261083,-0.49800396,9.72950067787322,1.3049519099627198,jump
05/08/2020, 15:32:22,-9.10347,-2.2537134,2.672842,1.1622452,0.32261083,-0.49800396,9.751741984429934,1.3049519099627198,jump
05/08/2020, 15:32:23,-8.54064,-2.7255323,1.3579761,0.20074357,0.38125387,-0.011755427,9.067257293530774,0.43103443419828524,jump
05/08/2020, 15:32:23,-8.55501,-2.7399025,1.3986914,0.20074357,0.38125387,-0.011755427,9.09129235925037,0.43103443419828524,jump
05/08/2020, 15:32:23,-8.55501,-2.7399025,1.3986914,0.2386172,0.39347115,0.035892043,9.09129235925037,0.46156901158375724,jump
05/08/2020, 15:32:23,-8.600515,-2.7327175,1.4226416,0.2386172,0.39347115,0.035892043,9.135672869960382,0.46156901158375724,jump
05/08/2020, 15:32:23,-8.600515,-2.7327175,1.4226416,0.27282566,0.40202326,0.08109605,9.135672869960382,0.49257802213950613,jump
05/08/2020, 15:32:23,-8.703502,-2.7758276,1.4729371,0.27282566,0.40202326,0.08109605,9.25341584003641,0.49257802213950613,jump
05/08/2020, 15:32:23,-8.703502,-2.7758276,1.4729371,0.31069928,0.39835808,0.12263487,9.25341584003641,0.5198677856065275,jump
05/08/2020, 15:32:23,-8.828042,-2.818938,1.5328126,0.31069928,0.39835808,0.12263487,9.393095979757957,0.5198677856065275,jump
05/08/2020, 15:32:23,-8.828042,-2.818938,1.5328126,0.34735116,0.38125387,0.16295196,9.393095979757957,0.5408887913825269,jump
05/08/2020, 15:32:23,-8.954978,-2.938689,1.5735279,0.34735116,0.38125387,0.16295196,9.555287224388195,0.5408887913825269,jump
05/08/2020, 15:32:23,-8.954978,-2.938689,1.5735279,0.38400307,0.3592627,0.19716041,9.555287224388195,0.5616050904283527,jump
05/08/2020, 15:32:23,-9.163345,-2.9722195,1.6142433,0.38400307,0.3592627,0.19716041,9.767638796348487,0.5616050904283527,jump
05/08/2020, 15:32:23,-9.163345,-2.9722195,1.6142433,0.4133246,0.33238465,0.22403847,9.767638796348487,0.5757690577685524,jump
05/08/2020, 15:32:23,-9.362132,-2.9674294,1.5591577,0.4133246,0.33238465,0.22403847,9.944150391425982,0.5757690577685524,jump
05/08/2020, 15:32:23,-9.362132,-2.9674294,1.5591577,0.43287227,0.28840238,0.24236442,9.944150391425982,0.5738421760965727,jump
05/08/2020, 15:32:23,-9.565708,-2.9458742,1.5687379,0.43287227,0.28840238,0.24236442,10.13123319162946,0.5738421760965727,jump
05/08/2020, 15:32:23,-9.565708,-2.9458742,1.5687379,0.43531573,0.23098108,0.25702518,10.13123319162946,0.5558003127303183,jump
05/08/2020, 15:32:23,-9.6686945,-2.9482691,1.4873072,0.43531573,0.23098108,0.25702518,10.21704589379405,0.5558003127303183,jump
05/08/2020, 15:32:23,-9.6686945,-2.9482691,1.4873072,0.41088113,0.17600322,0.26802075,10.21704589379405,0.5211866835642869,jump
05/08/2020, 15:32:23,-9.735755,-2.8141482,1.3651612,0.41088113,0.17600322,0.26802075,10.225850568194211,0.5211866835642869,jump
05/08/2020, 15:32:24,-0.5508545,-5.1780324,1.1543995,-0.80596197,3.879067,4.204435,5.333675884428481,5.777024116151443,jump
05/08/2020, 15:32:24,-1.3867164,-6.8761015,1.5256275,-0.80596197,3.879067,4.204435,7.178530022418206,5.777024116151443,jump
05/08/2020, 15:32:24,-1.3867164,-6.8761015,1.5256275,-1.2030243,4.014679,4.3644814,7.178530022418206,6.050918345332488,jump
05/08/2020, 15:32:24,-2.2345533,-8.018526,1.7675245,-1.2030243,4.014679,4.3644814,8.509649338162895,6.050918345332488,jump
05/08/2020, 15:32:24,-2.2345533,-8.018526,1.7675245,-1.5805387,4.026896,4.5428543,8.509649338162895,6.2730789415494135,jump
05/08/2020, 15:32:24,-2.694397,-8.028106,2.4525,-1.5805387,4.026896,4.5428543,8.816179076882387,6.2730789415494135,jump
05/08/2020, 15:32:24,-2.694397,-8.028106,2.4525,-1.6404036,4.046444,4.7872,8.816179076882387,6.479345353405953,jump
05/08/2020, 15:32:24,-2.308799,-6.7874856,2.672842,-1.6404036,4.046444,4.7872,7.651444191251664,6.479345353405953,jump
05/08/2020, 15:32:24,-2.308799,-6.7874856,2.672842,-1.4327095,4.2333684,5.0889673,7.651444191251664,6.772861491583663,jump
05/08/2020, 15:32:24,-1.3627661,-5.230723,2.5842261,-1.4327095,4.2333684,5.0889673,5.991311907209769,6.772861491583663,jump
05/08/2020, 15:32:24,-1.3627661,-5.230723,2.5842261,-1.1431595,4.533914,5.3821826,5.991311907209769,7.129591864199288,jump
05/08/2020, 15:32:24,-0.6849756,-3.8224514,2.5099807,-1.1431595,4.533914,5.3821826,4.623886780505841,7.129591864199288,jump
05/08/2020, 15:32:24,-0.6849756,-3.8224514,2.5099807,-0.7546493,4.7587123,5.5874333,4.623886780505841,7.377957001897983,jump
05/08/2020, 15:32:24,-0.8310718,-3.3554225,3.3602126,-0.7546493,4.7587123,5.5874333,4.820847325652503,7.377957001897983,jump
05/08/2020, 15:32:24,-0.8310718,-3.3554225,3.3602126,-0.3184917,4.8124685,5.614311,4.820847325652503,7.401471526456167,jump
05/08/2020, 15:32:24,-1.8154249,-4.394861,3.5709743,-0.3184917,4.8124685,5.614311,5.946631870208628,7.401471526456167,jump
05/08/2020, 15:32:24,-1.8154249,-4.394861,3.5709743,0.013818884,4.8320165,5.499469,5.946631870208628,7.32070565100685,jump
05/08/2020, 15:32:24,-3.422483,-5.688172,3.5566041,0.013818884,4.8320165,5.499469,7.5311434636107775,7.32070565100685,jump
05/08/2020, 15:32:24,-3.422483,-5.688172,3.5566041,0.4414244,4.900433,5.398065,7.5311434636107775,7.30398565362106,jump
05/08/2020, 15:32:24,-5.022356,-6.7898808,4.296665,0.4414244,4.900433,5.398065,9.475646285539053,7.30398565362106,jump
05/08/2020, 15:32:25,-6.8952613,-3.3266823,2.4333398,0.5990276,0.49976167,0.7090653,8.033217679954817,1.0542150574995217,jump
05/08/2020, 15:32:25,-7.053333,-3.417693,2.42855,0.5990276,0.49976167,0.7090653,8.205363096798353,1.0542150574995217,jump
05/08/2020, 15:32:25,-7.053333,-3.417693,2.42855,0.6662227,0.5474092,0.83368176,8.205363096798353,1.1993893288865585,jump
05/08/2020, 15:32:25,-7.27128,-3.5110989,2.4165747,0.6662227,0.5474092,0.83368176,8.428473093016143,1.1993893288865585,jump
05/08/2020, 15:32:25,-7.27128,-3.5110989,2.4165747,0.71264845,0.5865045,0.95218956,8.428473093016143,1.3260921284376113,jump
05/08/2020, 15:32:25,-7.4101906,-3.5206788,2.430945,0.71264845,0.5865045,0.95218956,8.556611279537677,1.3260921284376113,jump
05/08/2020, 15:32:25,-7.4101906,-3.5206788,2.430945,0.74930036,0.62437814,1.0633669,8.556611279537677,1.4429304351889332,jump
05/08/2020, 15:32:25,-7.565867,-3.6548,2.4069948,0.74930036,0.62437814,1.0633669,8.74033919893278,1.4429304351889332,jump
05/08/2020, 15:32:25,-7.565867,-3.6548,2.4069948,0.7957261,0.6549214,1.1586618,8.74033919893278,1.5506770715463103,jump
05/08/2020, 15:32:25,-7.800579,-3.8080812,2.692002,0.7957261,0.6549214,1.1586618,9.08831067742851,1.5506770715463103,jump
05/08/2020, 15:32:25,-7.800579,-3.8080812,2.692002,0.8726951,0.6817995,1.2454047,9.08831067742851,1.6665773770897054,jump
05/08/2020, 15:32:25,-8.349038,-3.9781277,3.1614258,0.8726951,0.6817995,1.2454047,9.773768516276654,1.6665773770897054,jump
05/08/2020, 15:32:25,-8.349038,-3.9781277,3.1614258,0.95210755,0.7441077,1.3138216,9.773768516276654,1.785030017768756,jump
05/08/2020, 15:32:25,-9.13221,-4.133804,3.1350808,0.95210755,0.7441077,1.3138216,10.503062475455161,1.785030017768756,jump
05/08/2020, 15:32:25,-9.13221,-4.133804,3.1350808,1.0351852,0.8100811,1.3443649,10.503062475455161,1.8802012652583264,jump
05/08/2020, 15:32:25,-9.946517,-4.26553,2.9961696,1.0351852,0.8100811,1.3443649,11.229647342398176,1.8802012652583264,jump
05/08/2020, 15:32:25,-9.946517,-4.26553,2.9961696,1.1133759,0.8210767,1.3248172,11.229647342398176,1.9154407833182279,jump
05/08/2020, 15:32:25,-10.5620365,-4.282295,2.7566676,1.1133759,0.8210767,1.3248172,11.725778612724893,1.9154407833182279,jump
05/08/2020, 15:32:25,-10.5620365,-4.282295,2.7566676,1.1451409,0.78320307,1.2612872,11.725778612724893,1.8749933661826144,jump
05/08/2020, 15:32:25,-10.741663,-4.112249,2.6584718,1.1451409,0.78320307,1.2612872,11.80514239578848,1.8749933661826144,jump
05/08/2020, 15:32:26,-8.741821,-3.6859353,2.914739,0.9899812,0.29695448,0.33399418,9.924780148687764,1.0861845160488228,jump
05/08/2020, 15:32:26,-8.976534,-3.66438,2.9099488,0.9899812,0.29695448,0.33399418,10.122926660141069,1.0861845160488228,jump
05/08/2020, 15:32:26,-8.976534,-3.66438,2.9099488,0.909347,0.2578591,0.39385894,10.122926660141069,1.0239766342483936,jump
05/08/2020, 15:32:26,-9.163345,-3.671565,2.9817994,0.909347,0.2578591,0.39385894,10.312051937929231,1.0239766342483936,jump
05/08/2020, 15:32:26,-9.163345,-3.671565,2.9817994,0.832378,0.22120723,0.4402847,10.312051937929231,0.9672829683336396,jump
05/08/2020, 15:32:26,-9.374106,-3.8080812,3.1278956,0.832378,0.22120723,0.4402847,10.59051858140091,0.9672829683336396,jump
05/08/2020, 15:32:26,-9.374106,-3.8080812,3.1278956,0.7749567,0.19677263,0.47938004,10.59051858140091,0.9322459899330656,jump
05/08/2020, 15:32:26,-9.560919,-3.9709425,3.3530276,0.7749567,0.19677263,0.47938004,10.882203211488342,0.9322459899330656,jump
05/08/2020, 15:32:26,-9.560919,-3.9709425,3.3530276,0.75296557,0.19310744,0.51114506,10.882203211488342,0.9303316076506948,jump
05/08/2020, 15:32:26,-9.800421,-4.071533,3.6021094,0.75296557,0.19310744,0.51114506,11.207177257481272,0.9303316076506948,jump
05/08/2020, 15:32:26,-9.800421,-4.071533,3.6021094,0.7505221,0.20288129,0.52702755,11.207177257481272,0.9392562176050927,jump
05/08/2020, 15:32:26,-10.025552,-4.126619,3.7577858,0.7505221,0.20288129,0.52702755,11.474390011846644,0.9392562176050927,jump
05/08/2020, 15:32:26,-10.025552,-4.126619,3.7577858,0.75296557,0.21021166,0.5258058,11.474390011846644,0.9421347047521605,jump
05/08/2020, 15:32:26,-10.267449,-4.1314087,3.8727467,0.75296557,0.21021166,0.5258058,11.725494512982626,0.9421347047521605,jump
05/08/2020, 15:32:26,-10.267449,-4.1314087,3.8727467,0.7383048,0.20288129,0.49648428,11.725494512982626,0.9125521502718498,jump
05/08/2020, 15:32:26,-10.289004,-4.143384,3.9781277,0.7383048,0.20288129,0.49648428,11.783749019825592,0.9125521502718498,jump
05/08/2020, 15:32:26,-10.289004,-4.143384,3.9781277,0.69554424,0.16867284,0.43539777,11.783749019825592,0.8377371568241551,jump
05/08/2020, 15:32:26,-10.159674,-4.028423,4.038003,0.69554424,0.16867284,0.43539777,11.651292974988191,0.8377371568241551,jump
05/08/2020, 15:32:26,-10.159674,-4.028423,4.038003,0.619797,0.11491672,0.3462115,11.651292974988191,0.7191776976519911,jump
05/08/2020, 15:32:26,-9.800421,-3.9613624,4.0020776,0.619797,0.11491672,0.3462115,11.302975882900416,0.7191776976519911,jump
05/08/2020, 15:32:27,-8.155042,-3.5829494,2.9698243,-0.29772228,-0.25893268,0.049331076,9.38946685923363,0.39764084780421477,jump
05/08/2020, 15:32:27,-8.341853,-3.551814,2.8548634,-0.29772228,-0.25893268,0.049331076,9.505374382706638,0.39764084780421477,jump
05/08/2020, 15:32:27,-8.341853,-3.551814,2.8548634,-0.26840076,-0.2357198,0.055439726,9.505374382706638,0.36149184560845415,jump
05/08/2020, 15:32:27,-8.55501,-3.4967287,2.6896071,-0.26840076,-0.2357198,0.055439726,9.625450186540716,0.36149184560845415,jump
05/08/2020, 15:32:27,-8.55501,-3.4967287,2.6896071,-0.24640962,-0.20639828,0.07010048,9.625450186540716,0.32898636702868916,jump
05/08/2020, 15:32:27,-8.959768,-3.4727786,2.6057813,-0.24640962,-0.20639828,0.07010048,9.956291231879106,0.32898636702868916,jump
05/08/2020, 15:32:27,-8.959768,-3.4727786,2.6057813,-0.20975772,-0.17707676,0.10064373,9.956291231879106,0.2923758501845169,jump
05/08/2020, 15:32:27,-9.611214,-3.5709743,2.6225464,-0.20975772,-0.17707676,0.10064373,10.583243174465299,0.2923758501845169,jump
05/08/2020, 15:32:27,-9.611214,-3.5709743,2.6225464,-0.15966679,-0.14531177,0.14218256,10.583243174465299,0.2585050786103871,jump
05/08/2020, 15:32:27,-10.358459,-3.8416114,2.7830129,-0.15966679,-0.14531177,0.14218256,11.393016338986792,0.2585050786103871,jump
05/08/2020, 15:32:27,-10.358459,-3.8416114,2.7830129,-0.09858028,-0.12087718,0.17394753,11.393016338986792,0.23363883582070483,jump
05/08/2020, 15:32:27,-10.914104,-4.095484,2.8907888,-0.09858028,-0.12087718,0.17394753,12.010300722326681,0.23363883582070483,jump
05/08/2020, 15:32:27,-10.914104,-4.095484,2.8907888,-0.039937235,-0.11721199,0.19105175,12.010300722326681,0.2276717046309838,jump
05/08/2020, 15:32:27,-11.019485,-4.1864944,2.924319,-0.039937235,-0.11721199,0.19105175,12.145263967173982,0.2276717046309838,jump
05/08/2020, 15:32:27,-11.019485,-4.1864944,2.924319,-0.021611286,-0.12820755,0.19227348,12.145263967173982,0.23210625923362155,jump
05/08/2020, 15:32:27,-10.609937,-3.9972878,2.8093581,-0.021611286,-0.12820755,0.19227348,11.680820154561303,0.23210625923362155,jump
05/08/2020, 15:32:27,-10.609937,-3.9972878,2.8093581,-0.05704146,-0.15752907,0.1727258,11.680820154561303,0.24063112240025886,jump
05/08/2020, 15:32:27,-9.759705,-3.6212697,2.6464968,-0.05704146,-0.15752907,0.1727258,10.741013597910696,0.24063112240025886,jump
05/08/2020, 15:32:27,-9.759705,-3.6212697,2.6464968,-0.1560016,-0.18929406,0.12874353,10.741013597910696,0.277026414095585,jump
05/08/2020, 15:32:27,-8.873548,-3.2859669,2.454895,-0.1560016,-0.18929406,0.12874353,9.775680745700955,0.277026414095585,jump
05/08/2020, 15:32:28,-8.349038,-3.535049,2.8740237,-0.103467196,-0.009699745,0.0090139825,9.511205015577382,0.10431106187886406,jump
05/08/2020, 15:32:28,-8.349038,-3.535049,2.8740237,-0.061928377,0.0135131255,0.0053487928,9.511205015577382,0.06361083215188992,jump
05/08/2020, 15:32:28,-8.334668,-3.4584084,2.8955786,-0.061928377,0.0135131255,0.0053487928,9.476901246953885,0.06361083215188992,jump
05/08/2020, 15:32:28,-8.334668,-3.4584084,2.8955786,-0.020389555,0.039169453,0.0053487928,9.476901246953885,0.044481339828994555,jump
05/08/2020, 15:32:28,-8.356223,-3.523074,2.9171338,-0.020389555,0.039169453,0.0053487928,9.526184128249263,0.044481339828994555,jump
05/08/2020, 15:32:28,-8.356223,-3.523074,2.9171338,0.012597155,0.061160594,0.0077922526,9.526184128249263,0.062928735852151,jump
05/08/2020, 15:32:28,-8.408914,-3.5182838,2.9099488,0.012597155,0.061160594,0.0077922526,9.568487420492598,0.062928735852151,jump
05/08/2020, 15:32:28,-8.408914,-3.5182838,2.9099488,0.028479645,0.07215617,0.015122632,9.568487420492598,0.07903351707950097,jump
05/08/2020, 15:32:28,-8.52627,-3.4512234,2.9338992,0.028479645,0.07215617,0.015122632,9.654842603762887,0.07903351707950097,jump
05/08/2020, 15:32:28,-8.52627,-3.4512234,2.9338992,0.024814455,0.07826482,0.020009553,9.654842603762887,0.08450752070585794,jump
05/08/2020, 15:32:28,-8.619676,-3.420088,2.938689,0.024814455,0.07826482,0.020009553,9.727882779088453,0.08450752070585794,jump
05/08/2020, 15:32:28,-8.619676,-3.420088,2.938689,0.0028233137,0.07704309,0.028561661,9.727882779088453,0.08221542875640168,jump
05/08/2020, 15:32:28,-8.686736,-3.3123121,2.8141482,0.0028233137,0.07704309,0.028561661,9.713404440953246,0.08221542875640168,jump
05/08/2020, 15:32:28,-8.686736,-3.3123121,2.8141482,-0.032606855,0.06360406,0.032226853,9.713404440953246,0.0784044201567753,jump
05/08/2020, 15:32:28,-8.689131,-3.2644117,2.794988,-0.032606855,0.06360406,0.032226853,9.693778153493152,0.0784044201567753,jump
05/08/2020, 15:32:28,-8.689131,-3.2644117,2.794988,-0.07292394,0.047721565,0.035892043,9.693778153493152,0.09425225745152309,jump
05/08/2020, 15:32:28,-8.612491,-3.2620168,2.799778,-0.07292394,0.047721565,0.035892043,9.625721035696303,0.09425225745152309,jump
05/08/2020, 15:32:28,-8.612491,-3.2620168,2.799778,-0.103467196,0.036725994,0.033448584,9.625721035696303,0.11477398286072368,jump
05/08/2020, 15:32:28,-8.53585,-3.3769777,2.8404932,-0.103467196,0.036725994,0.033448584,9.609011801425034,0.11477398286072368,jump
05/08/2020, 15:32:28,-8.53585,-3.3769777,2.8404932,-0.11690623,0.033060804,0.031005124,9.609011801425034,0.12538501424874943,jump
05/08/2020, 15:32:29,-12.504397,-15.158079,11.000325,0.2105174,-1.3841461,-2.8156257,22.519646359375862,3.1445072569071892,jump
05/08/2020, 15:32:29,-12.504397,-15.158079,11.000325,0.21540433,-1.6859133,-3.1980274,22.519646359375862,3.621613154067524,jump
05/08/2020, 15:32:29,-12.4612875,-16.013102,11.64698,0.21540433,-1.6859133,-3.1980274,23.39562476262262,3.621613154067524,jump
05/08/2020, 15:32:29,-12.4612875,-16.013102,11.64698,0.44264612,-1.8288558,-3.579207,23.39562476262262,4.043682887367672,jump
05/08/2020, 15:32:29,-12.741505,-15.716119,11.967913,0.44264612,-1.8288558,-3.579207,23.506876983912797,4.043682887367672,jump
05/08/2020, 15:32:29,-12.741505,-15.716119,11.967913,0.7273092,-1.936368,-3.9249566,23.506876983912797,4.436641037748327,jump
05/08/2020, 15:32:29,-13.237273,-14.564115,11.862533,0.7273092,-1.936368,-3.9249566,22.979523830691072,4.436641037748327,jump
05/08/2020, 15:32:29,-13.237273,-14.564115,11.862533,0.8739168,-2.1526144,-4.2780366,22.979523830691072,4.868169701886992,jump
05/08/2020, 15:32:29,-13.807288,-13.244458,11.076965,0.8739168,-2.1526144,-4.2780366,22.10782758539766,4.868169701886992,jump
05/08/2020, 15:32:29,-13.807288,-13.244458,11.076965,0.7346396,-2.520355,-4.6176777,22.10782758539766,5.311763531264741,jump
05/08/2020, 15:32:29,-13.962964,-12.418177,10.241104,0.7346396,-2.520355,-4.6176777,21.308582551108174,5.311763531264741,jump
05/08/2020, 15:32:29,-13.962964,-12.418177,10.241104,0.3449077,-3.0029383,-4.9218884,21.308582551108174,5.775948798518888,jump
05/08/2020, 15:32:29,-13.766573,-12.444522,9.79563,0.3449077,-3.0029383,-4.9218884,20.98425677217026,5.775948798518888,jump
05/08/2020, 15:32:29,-13.766573,-12.444522,9.79563,-0.10591066,-3.4965172,-5.2065516,20.98425677217026,6.272561560415586,jump
05/08/2020, 15:32:29,-13.134288,-13.258829,9.80521,-0.10591066,-3.4965172,-5.2065516,21.081940418998638,6.272561560415586,jump
05/08/2020, 15:32:29,-13.134288,-13.258829,9.80521,-0.35514358,-3.9119055,-5.4545627,21.081940418998638,6.721710025663763,jump
05/08/2020, 15:32:29,-12.420572,-14.015655,10.217154,-0.35514358,-3.9119055,-5.4545627,21.333059210698096,6.721710025663763,jump
05/08/2020, 15:32:29,-12.420572,-14.015655,10.217154,-0.21586637,-4.1525865,-5.6194963,21.333059210698096,6.99065889430938,jump
05/08/2020, 15:32:29,-11.443404,-13.941409,10.545272,-0.21586637,-4.1525865,-5.6194963,20.892992761166912,6.99065889430938,jump
05/08/2020, 15:32:29,-11.443404,-13.941409,10.545272,0.23128682,-4.22589,-5.7147913,20.892992761166912,7.111292485519099,jump
05/08/2020, 15:32:30,-7.472461,-3.9829175,4.984036,-0.41745183,-0.5924649,-0.04962906,9.825574968638643,0.7264597433921088,jump
05/08/2020, 15:32:30,-7.8508744,-3.6164796,4.775669,-0.41745183,-0.5924649,-0.04962906,9.875331361825339,0.7264597433921088,jump
05/08/2020, 15:32:30,-7.8508744,-3.6164796,4.775669,-0.3844651,-0.6975337,-0.13515016,9.875331361825339,0.8078565953647635,jump
05/08/2020, 15:32:30,-8.231683,-3.276387,4.5553274,-0.3844651,-0.6975337,-0.13515016,9.962244768525322,0.8078565953647635,jump
05/08/2020, 15:32:30,-8.231683,-3.276387,4.5553274,-0.4198953,-0.82337195,-0.23166683,9.962244768525322,0.95284990426808,jump
05/08/2020, 15:32:30,-8.62207,-2.943479,4.3565407,-0.4198953,-0.82337195,-0.23166683,10.098693586443964,0.95284990426808,jump
05/08/2020, 15:32:30,-8.62207,-2.943479,4.3565407,-0.5188554,-0.9663143,-0.32574004,10.098693586443964,1.1441507107555673,jump
05/08/2020, 15:32:30,-8.892708,-2.6776319,4.026028,-0.5188554,-0.9663143,-0.32574004,10.122196773514075,1.1441507107555673,jump
05/08/2020, 15:32:30,-8.892708,-2.6776319,4.026028,-0.6740151,-1.1031481,-0.4185915,10.122196773514075,1.3588417646631499,jump
05/08/2020, 15:32:30,-9.079519,-2.4189699,3.8487966,-0.6740151,-1.1031481,-0.4185915,10.153931295456623,1.3588417646631499,jump
05/08/2020, 15:32:30,-9.079519,-2.4189699,3.8487966,-0.8462791,-1.2387602,-0.51632994,10.153931295456623,1.5866038620454663,jump
05/08/2020, 15:32:30,-9.275911,-2.2920337,3.6739602,-0.8462791,-1.2387602,-0.51632994,10.23689078751397,1.5866038620454663,jump
05/08/2020, 15:32:30,-9.275911,-2.2920337,3.6739602,-1.0063257,-1.3731505,-0.6226204,10.23689078751397,1.8127023563846063,jump
05/08/2020, 15:32:30,-9.546548,-2.2800586,3.6811452,-1.0063257,-1.3731505,-0.6226204,10.48265585863412,1.8127023563846063,jump
05/08/2020, 15:32:30,-9.546548,-2.2800586,3.6811452,-1.140716,-1.4965452,-0.7276892,10.48265585863412,2.0175262074275606,jump
05/08/2020, 15:32:30,-9.817185,-2.2920337,3.7362306,-1.140716,-1.4965452,-0.7276892,10.751277447599875,2.0175262074275606,jump
05/08/2020, 15:32:30,-9.817185,-2.2920337,3.7362306,-1.2433413,-1.5955054,-0.8254276,10.751277447599875,2.184688926955267,jump
05/08/2020, 15:32:30,-9.936936,-2.4022048,3.6284547,-1.2433413,-1.5955054,-0.8254276,10.847994084758245,2.184688926955267,jump
05/08/2020, 15:32:30,-9.936936,-2.4022048,3.6284547,-1.3117582,-1.6846917,-0.92072254,10.847994084758245,2.3252151491847637,jump
05/08/2020, 15:32:30,-10.123748,-2.42855,3.422483,-1.3117582,-1.6846917,-0.92072254,10.959083667230944,2.3252151491847637,jump
05/08/2020, 15:32:31,-9.072334,-3.2332766,3.1255007,-0.47853833,-0.33101475,-0.14614573,10.125713879240744,0.5999402291152761,jump
05/08/2020, 15:32:31,-8.962164,-3.2452517,3.0368848,-0.47853833,-0.33101475,-0.14614573,10.003734788827797,0.5999402291152761,jump
05/08/2020, 15:32:31,-8.962164,-3.2452517,3.0368848,-0.5103033,-0.3493407,-0.1571413,10.003734788827797,0.6380766364936147,jump
05/08/2020, 15:32:31,-8.789722,-3.2380664,3.0177248,-0.5103033,-0.3493407,-0.1571413,9.841288408353543,0.6380766364936147,jump
05/08/2020, 15:32:31,-8.789722,-3.2380664,3.0177248,-0.5237423,-0.35178417,-0.17302379,9.841288408353543,0.6542135353275029,jump
05/08/2020, 15:32:31,-8.705896,-3.2620168,2.9770093,-0.5237423,-0.35178417,-0.17302379,9.761965453566276,0.6542135353275029,jump
05/08/2020, 15:32:31,-8.705896,-3.2620168,2.9770093,-0.51396847,-0.3407886,-0.19134974,9.761965453566276,0.645689695174505,jump
05/08/2020, 15:32:31,-8.646021,-3.3745828,3.032095,-0.51396847,-0.3407886,-0.19134974,9.76396875718849,0.645689695174505,jump
05/08/2020, 15:32:31,-8.646021,-3.3745828,3.032095,-0.47609487,-0.3285713,-0.20723224,9.76396875718849,0.6144677529185198,jump
05/08/2020, 15:32:31,-8.590936,-3.3697927,3.1183155,-0.47609487,-0.3285713,-0.20723224,9.740819804337336,0.6144677529185198,jump
05/08/2020, 15:32:31,-8.590936,-3.3697927,3.1183155,-0.41867355,-0.31513226,-0.2182278,9.740819804337336,0.5676435969796482,jump
05/08/2020, 15:32:31,-8.629255,-3.4703834,3.182981,-0.41867355,-0.31513226,-0.2182278,9.83051250252875,0.5676435969796482,jump
05/08/2020, 15:32:31,-8.629255,-3.4703834,3.182981,-0.3527001,-0.29191938,-0.2304451,9.83051250252875,0.5125614501994838,jump
05/08/2020, 15:32:31,-8.696317,-3.4679885,3.2213013,-0.3527001,-0.29191938,-0.2304451,9.90099241634507,0.5125614501994838,jump
05/08/2020, 15:32:31,-8.696317,-3.4679885,3.2213013,-0.29283535,-0.26870653,-0.2426624,9.90099241634507,0.46566166349014537,jump
05/08/2020, 15:32:31,-8.789722,-3.432063,3.1111305,-0.29283535,-0.26870653,-0.2426624,9.935663571104344,0.46566166349014537,jump
05/08/2020, 15:32:31,-8.789722,-3.432063,3.1111305,-0.25129655,-0.26259786,-0.25243625,9.935663571104344,0.44252870200925853,jump
05/08/2020, 15:32:31,-8.861572,-3.3769777,3.04886,-0.25129655,-0.26259786,-0.25243625,9.961274468142507,0.44252870200925853,jump
05/08/2020, 15:32:31,-8.861572,-3.3769777,3.04886,-0.23419231,-0.26992825,-0.2585449,9.961274468142507,0.4410813513314561,jump
05/08/2020, 15:32:31,-8.863968,-3.293152,2.8907888,-0.23419231,-0.26992825,-0.2585449,9.887944043888092,0.4410813513314561,jump
05/08/2020, 15:32:32,-8.701106,-3.271597,2.8333082,-0.2170881,-0.0891122,-0.04596387,9.718036255755479,0.23912529343457084,jump
05/08/2020, 15:32:32,-8.638836,-3.2428565,2.8333082,-0.2170881,-0.0891122,-0.04596387,9.652628636428359,0.23912529343457084,jump
05/08/2020, 15:32:32,-8.638836,-3.2428565,2.8333082,-0.20487079,-0.07445144,-0.044742137,9.652628636428359,0.22252396796072058,jump
05/08/2020, 15:32:32,-8.655601,-3.3147073,2.7854078,-0.20487079,-0.07445144,-0.044742137,9.678078409453581,0.22252396796072058,jump
05/08/2020, 15:32:32,-8.655601,-3.3147073,2.7854078,-0.176771,-0.062234137,-0.044742137,9.678078409453581,0.1926731250729304,jump
05/08/2020, 15:32:32,-8.655601,-3.283572,2.8093581,-0.176771,-0.062234137,-0.044742137,9.674386734881194,0.1926731250729304,jump
05/08/2020, 15:32:32,-8.655601,-3.283572,2.8093581,-0.13889737,-0.047573376,-0.044742137,9.674386734881194,0.15348474050202762,jump
05/08/2020, 15:32:32,-8.693921,-3.3602126,2.806963,-0.13889737,-0.047573376,-0.044742137,9.734183760378759,0.15348474050202762,jump
05/08/2020, 15:32:32,-8.693921,-3.3602126,2.806963,-0.09858028,-0.032912616,-0.044742137,9.734183760378759,0.11315109549845125,jump
05/08/2020, 15:32:32,-8.669971,-3.4057178,2.8333082,-0.09858028,-0.032912616,-0.044742137,9.736270064216527,0.11315109549845125,jump
05/08/2020, 15:32:32,-8.669971,-3.4057178,2.8333082,-0.05704146,-0.015808396,-0.039855216,9.736270064216527,0.07135875296104688,jump
05/08/2020, 15:32:32,-8.669971,-3.410508,2.8261232,-0.05704146,-0.015808396,-0.039855216,9.735858566721623,0.07135875296104688,jump
05/08/2020, 15:32:32,-8.669971,-3.410508,2.8261232,-0.019167827,-0.003591095,-0.033746567,9.735858566721623,0.038976048179959866,jump
05/08/2020, 15:32:32,-8.720266,-3.403323,2.8524685,-0.019167827,-0.003591095,-0.033746567,9.785817726114614,0.038976048179959866,jump
05/08/2020, 15:32:32,-8.720266,-3.403323,2.8524685,0.010153694,0.0074044755,-0.02397273,9.785817726114614,0.027066871019149348,jump
05/08/2020, 15:32:32,-8.732242,-3.3266823,2.816543,0.010153694,0.0074044755,-0.02397273,9.759701545670403,0.027066871019149348,jump
05/08/2020, 15:32:32,-8.732242,-3.3266823,2.816543,0.033366565,0.0135131255,-0.014198888,9.759701545670403,0.03869806998540984,jump
05/08/2020, 15:32:32,-8.765772,-3.3458424,2.818938,0.033366565,0.0135131255,-0.014198888,9.796929572819518,0.03869806998540984,jump
05/08/2020, 15:32:32,-8.765772,-3.3458424,2.818938,0.050470784,0.015956586,-0.004425048,9.796929572819518,0.05311773490482117,jump
05/08/2020, 15:32:32,-8.820857,-3.297942,2.8524685,0.050470784,0.015956586,-0.004425048,9.839741687673827,0.05311773490482117,jump
05/08/2020, 15:32:33,-8.657996,-3.4631984,2.684817,-0.1682189,-0.10988161,-0.05695944,9.70375617286805,0.2088443026427805,jump
05/08/2020, 15:32:33,-8.56938,-3.5134938,2.7351124,-0.1682189,-0.10988161,-0.05695944,9.657108717522854,0.2088443026427805,jump
05/08/2020, 15:32:33,-8.56938,-3.5134938,2.7351124,-0.12179314,-0.08300355,-0.058181167,9.657108717522854,0.15845569533604664,jump
05/08/2020, 15:32:33,-8.538245,-3.5494192,2.7973828,-0.12179314,-0.08300355,-0.058181167,9.660505071015335,0.15845569533604664,jump
05/08/2020, 15:32:33,-8.538245,-3.5494192,2.7973828,-0.06315011,-0.054903757,-0.059402898,9.660505071015335,0.10262096726236755,jump
05/08/2020, 15:32:33,-8.47837,-3.6021094,2.804568,-0.06315011,-0.054903757,-0.059402898,9.629306688908288,0.10262096726236755,jump
05/08/2020, 15:32:33,-8.47837,-3.6021094,2.804568,-0.002063606,-0.026803965,-0.05695944,9.629306688908288,0.06298482908427828,jump
05/08/2020, 15:32:33,-8.475974,-3.5925295,2.8859987,-0.002063606,-0.026803965,-0.05695944,9.647662606174995,0.06298482908427828,jump
05/08/2020, 15:32:33,-8.475974,-3.5925295,2.8859987,0.05413598,-0.0011476349,-0.05695944,9.647662606174995,0.07859006873032325,jump
05/08/2020, 15:32:33,-8.57896,-3.5685792,2.8812087,0.05413598,-0.0011476349,-0.05695944,9.728035910840124,0.07859006873032325,jump
05/08/2020, 15:32:33,-8.57896,-3.5685792,2.8812087,0.09811826,0.018400045,-0.05695944,9.728035910840124,0.11493534009725873,jump
05/08/2020, 15:32:33,-8.626861,-3.4967287,2.8668385,0.09811826,0.018400045,-0.05695944,9.740051240790438,0.11493534009725873,jump
05/08/2020, 15:32:33,-8.626861,-3.4967287,2.8668385,0.12377459,0.019621776,-0.05695944,9.740051240790438,0.13765732988160914,jump
05/08/2020, 15:32:33,-8.667576,-3.408113,2.792593,0.12377459,0.019621776,-0.05695944,9.723203216649395,0.13765732988160914,jump
05/08/2020, 15:32:33,-8.667576,-3.408113,2.792593,0.12743978,0.009847935,-0.05695944,9.723203216649395,0.13993661983447128,jump
05/08/2020, 15:32:33,-8.586145,-3.3530276,2.7782228,0.12743978,0.009847935,-0.05695944,9.627211888001126,0.13993661983447128,jump
05/08/2020, 15:32:33,-8.586145,-3.3530276,2.7782228,0.11888767,-0.0011476349,-0.06062463,9.627211888001126,0.1334576370882341,jump
05/08/2020, 15:32:33,-8.442444,-3.2668068,2.7638526,0.11888767,-0.0011476349,-0.06062463,9.464975764920784,0.1334576370882341,jump
05/08/2020, 15:32:33,-8.442444,-3.2668068,2.7638526,0.10422691,-0.009699745,-0.061846357,9.464975764920784,0.12158250527717945,jump
05/08/2020, 15:32:33,-8.353828,-3.1973512,2.7470875,0.10422691,-0.009699745,-0.061846357,9.35713598611661,0.12158250527717945,jump
05/08/2020, 15:32:34,-8.57896,-3.2380664,2.9817994,0.12743978,-0.0072562853,-0.108272105,9.64234222323068,0.16738100411365975,jump
05/08/2020, 15:32:34,-8.586145,-3.2500417,2.9506643,0.12743978,-0.0072562853,-0.108272105,9.643188464100513,0.16738100411365975,jump
05/08/2020, 15:32:34,-8.586145,-3.2500417,2.9506643,0.11522248,-0.008478015,-0.10582864,9.643188464100513,0.15667736739302027,jump
05/08/2020, 15:32:34,-8.583751,-3.2404616,2.9530592,0.11522248,-0.008478015,-0.10582864,9.638564541773729,0.15667736739302027,jump
05/08/2020, 15:32:34,-8.583751,-3.2404616,2.9530592,0.10178345,-0.019473584,-0.10338518,9.638564541773729,0.14638164521886265,jump
05/08/2020, 15:32:34,-8.57417,-3.166216,2.9171338,0.10178345,-0.019473584,-0.10338518,9.594320501133238,0.14638164521886265,jump
05/08/2020, 15:32:34,-8.57417,-3.166216,2.9171338,0.085900955,-0.032912616,-0.10216345,9.594320501133238,0.13747576012399998,jump
05/08/2020, 15:32:34,-8.485555,-3.1207106,2.936294,0.085900955,-0.032912616,-0.10216345,9.506066280072828,0.13747576012399998,jump
05/08/2020, 15:32:34,-8.485555,-3.1207106,2.936294,0.07001846,-0.040242996,-0.09727653,9.506066280072828,0.12643103806009082,jump
05/08/2020, 15:32:34,-8.344249,-3.1470559,2.9482691,0.07001846,-0.040242996,-0.09727653,9.392696047064748,0.12643103806009082,jump
05/08/2020, 15:32:34,-8.344249,-3.1470559,2.9482691,0.06146636,-0.04635165,-0.09238961,9.392696047064748,0.12025984057383865,jump
05/08/2020, 15:32:34,-8.267608,-3.1997461,2.9458742,0.06146636,-0.04635165,-0.09238961,9.341835317106412,0.12025984057383865,jump
05/08/2020, 15:32:34,-8.267608,-3.1997461,2.9458742,0.065131545,-0.045129918,-0.08505923,9.341835317106412,0.11624930426529283,jump
05/08/2020, 15:32:34,-8.174202,-3.2284865,2.9746144,0.065131545,-0.045129918,-0.08505923,9.278417635351826,0.11624930426529283,jump
05/08/2020, 15:32:34,-8.174202,-3.2284865,2.9746144,0.07734884,-0.036577806,-0.078950584,9.278417635351826,0.11642153638133801,jump
05/08/2020, 15:32:34,-8.068821,-3.2428565,2.9961696,0.07734884,-0.036577806,-0.078950584,9.197772662357679,0.11642153638133801,jump
05/08/2020, 15:32:34,-8.068821,-3.2428565,2.9961696,0.093231335,-0.028025696,-0.07039847,9.197772662357679,0.12013936246254607,jump
05/08/2020, 15:32:34,-8.035291,-3.2620168,2.8644435,0.093231335,-0.028025696,-0.07039847,9.132999898717031,0.12013936246254607,jump
05/08/2020, 15:32:34,-8.035291,-3.2620168,2.8644435,0.10544864,-0.015808396,-0.05695944,9.132999898717031,0.12088713309747123,jump
05/08/2020, 15:32:34,-8.090376,-3.2332766,2.8740237,0.10544864,-0.015808396,-0.05695944,9.1743267821539,0.12088713309747123,jump
05/08/2020, 15:32:35,-4.519402,-2.198628,0.847837,1.2355489,-4.8159857,-4.4466352,5.096840891157493,6.670297148561575,jump
05/08/2020, 15:32:35,-3.8344264,-1.4346168,0.42152345,1.2355489,-4.8159857,-4.4466352,4.11565708429009,6.670297148561575,jump
05/08/2020, 15:32:35,-3.8344264,-1.4346168,0.42152345,1.2917485,-4.549649,-4.203511,4.11565708429009,6.32751332140965,jump
05/08/2020, 15:32:35,-3.1398706,-0.6658155,0.39757326,1.2917485,-4.549649,-4.203511,3.2342174325816044,6.32751332140965,jump
05/08/2020, 15:32:35,-3.1398706,-0.6658155,0.39757326,1.2831963,-4.3285155,-4.0031476,3.2342174325816044,6.033890141179731,jump
05/08/2020, 15:32:35,-2.5004005,-0.5245093,0.1101709,1.2831963,-4.3285155,-4.0031476,2.5571958315548726,6.033890141179731,jump
05/08/2020, 15:32:35,-2.5004005,-0.5245093,0.1101709,1.0999368,-4.1110473,-3.8198879,2.5571958315548726,5.718576228970265,jump
05/08/2020, 15:32:35,-2.0549269,-0.30416748,-0.63707525,1.0999368,-4.1110473,-3.8198879,2.1728108923777123,5.718576228970265,jump
05/08/2020, 15:32:35,-2.0549269,-0.30416748,-0.63707525,0.922786,-3.8935795,-3.5853157,2.1728108923777123,5.372707314520107,jump
05/08/2020, 15:32:35,-1.585503,0.1101709,-0.91250247,0.922786,-3.8935795,-3.5853157,1.8326532915956613,5.372707314520107,jump
05/08/2020, 15:32:35,-1.585503,0.1101709,-0.91250247,0.85436916,-3.665116,-3.307983,1.8326532915956613,5.010566185193355,jump
05/08/2020, 15:32:35,-0.8669971,0.48379397,-1.3603711,0.85436916,-3.665116,-3.307983,1.6841467230293892,5.010566185193355,jump
05/08/2020, 15:32:35,-0.8669971,0.48379397,-1.3603711,0.79939127,-3.4097745,-3.0159895,1.6841467230293892,4.621880758503678,jump
05/08/2020, 15:32:35,0.059875492,0.79035646,-1.695674,0.79939127,-3.4097745,-3.0159895,1.8717795071884527,4.621880758503678,jump
05/08/2020, 15:32:35,0.059875492,0.79035646,-1.695674,0.7309744,-3.1373286,-2.7203307,1.8717795071884527,4.21631991648322,jump
05/08/2020, 15:32:35,0.8334668,1.1232642,-1.7579445,0.7309744,-3.1373286,-2.7203307,2.246499085810559,4.21631991648322,jump
05/08/2020, 15:32:35,0.8334668,1.1232642,-1.7579445,0.68088347,-2.8477786,-2.4100113,2.246499085810559,3.7923079306205563,jump
05/08/2020, 15:32:35,1.5639478,1.4441968,-1.7004639,0.68088347,-2.8477786,-2.4100113,2.7245576909884477,3.7923079306205563,jump
05/08/2020, 15:32:35,1.5639478,1.4441968,-1.7004639,0.64300984,-2.5301287,-2.0960267,2.7245576909884477,3.347886010336328,jump
05/08/2020, 15:32:35,2.1028273,1.6046631,-1.9232007,0.64300984,-2.5301287,-2.0960267,3.2704017344806653,3.347886010336328,jump
05/08/2020, 15:32:36,-10.832674,-4.6128078,3.4057178,-1.520674,-2.0683148,-1.5792351,12.25657929363205,3.014027021491578,jump
05/08/2020, 15:32:36,-10.832674,-4.6128078,3.4057178,-1.1248335,-1.8972727,-1.6733083,12.25657929363205,2.768547372668656,jump
05/08/2020, 15:32:36,-10.844649,-4.528982,3.3482375,-1.1248335,-1.8972727,-1.6733083,12.220016065629157,2.768547372668656,jump
05/08/2020, 15:32:36,-10.844649,-4.528982,3.3482375,-0.75220585,-1.7250087,-1.7490556,12.220016065629157,2.5691758055598295,jump
05/08/2020, 15:32:36,-11.235037,-4.277505,3.2500417,-0.75220585,-1.7250087,-1.7490556,12.453347845941524,2.5691758055598295,jump
05/08/2020, 15:32:36,-11.235037,-4.277505,3.2500417,-0.4492168,-1.5551883,-1.7954813,12.453347845941524,2.417469663391788,jump
05/08/2020, 15:32:36,-11.747571,-3.9924977,2.8548634,-0.4492168,-1.5551883,-1.7954813,12.731681232600707,2.417469663391788,jump
05/08/2020, 15:32:36,-11.747571,-3.9924977,2.8548634,-0.23663577,-1.4281284,-1.8357984,12.731681232600707,2.3378842591865046,jump
05/08/2020, 15:32:36,-11.967913,-3.4967287,2.2896388,-0.23663577,-1.4281284,-1.8357984,12.676769727517057,2.3378842591865046,jump
05/08/2020, 15:32:36,-11.967913,-3.4967287,2.2896388,-0.13034527,-1.3682636,-1.8761154,12.676769727517057,2.325713723537345,jump
05/08/2020, 15:32:36,-11.864927,-2.9913795,1.7771046,-0.13034527,-1.3682636,-1.8761154,12.364584577243281,2.325713723537345,jump
05/08/2020, 15:32:36,-11.864927,-2.9913795,1.7771046,-0.1279018,-1.3548245,-1.9127674,12.364584577243281,2.3474640743745585,jump
05/08/2020, 15:32:36,-11.345208,-2.5411158,1.5040723,-0.1279018,-1.3548245,-1.9127674,11.72319287545207,2.3474640743745585,jump
05/08/2020, 15:32:36,-11.345208,-2.5411158,1.5040723,-0.20120561,-1.3487159,-1.9335368,11.72319287545207,2.3660267778837443,jump
05/08/2020, 15:32:36,-10.633887,-2.2848487,1.3100758,-0.20120561,-1.3487159,-1.9335368,10.95519926563256,2.3660267778837443,jump
05/08/2020, 15:32:36,-10.633887,-2.2848487,1.3100758,-0.28917018,-1.3206161,-1.9433106,10.95519926563256,2.367298566418334,jump
05/08/2020, 15:32:36,-9.872271,-2.201023,1.2933106,-0.28917018,-1.3206161,-1.9433106,10.19700355976389,2.367298566418334,jump
05/08/2020, 15:32:36,-9.872271,-2.201023,1.2933106,-0.35514358,-1.253421,-1.9323151,10.19700355976389,2.3304576212304555,jump
05/08/2020, 15:32:36,-9.21364,-2.2824538,1.3891114,-0.35514358,-1.253421,-1.9323151,9.593247192288354,2.3304576212304555,jump
05/08/2020, 15:32:36,-9.21364,-2.2824538,1.3891114,-0.3966824,-1.1349131,-1.9029936,9.593247192288354,2.250948497660257,jump
05/08/2020, 15:32:37,-9.352551,-3.0081446,2.6153615,-0.66668475,-0.7134162,-0.7289109,10.166576040110154,1.2185000559704429,jump
05/08/2020, 15:32:37,-9.352551,-3.0081446,2.6153615,-0.6605761,-0.71585965,-0.7386848,10.166576040110154,1.222485593335085,jump
05/08/2020, 15:32:37,-9.304651,-3.0057497,2.4644752,-0.6605761,-0.71585965,-0.7386848,10.083883385879709,1.222485593335085,jump
05/08/2020, 15:32:37,-9.304651,-3.0057497,2.4644752,-0.6617978,-0.7121945,-0.74112827,10.083883385879709,1.2224845488622633,jump
05/08/2020, 15:32:37,-9.182506,-3.0129347,2.4716604,-0.6617978,-0.7121945,-0.74112827,9.97523381483231,1.2224845488622633,jump
05/08/2020, 15:32:37,-9.182506,-3.0129347,2.4716604,-0.6593544,-0.6950903,-0.74235,9.97523381483231,1.2120157683513082,jump
05/08/2020, 15:32:37,-9.038804,-3.027305,2.3950195,-0.6593544,-0.6950903,-0.74235,9.828564095019498,1.2120157683513082,jump
05/08/2020, 15:32:37,-9.038804,-3.027305,2.3950195,-0.6422501,-0.6633253,-0.74235,9.828564095019498,1.1847232504619762,jump
05/08/2020, 15:32:37,-8.871153,-3.0752053,2.42376,-0.6422501,-0.6633253,-0.74235,9.696847601802434,1.1847232504619762,jump
05/08/2020, 15:32:37,-8.871153,-3.0752053,2.42376,-0.59460264,-0.6217865,-0.73501956,9.696847601802434,1.1315584323775634,jump
05/08/2020, 15:32:37,-8.811277,-3.1925611,2.5315359,-0.59460264,-0.6217865,-0.73501956,9.707714960750955,1.1315584323775634,jump
05/08/2020, 15:32:37,-8.811277,-3.1925611,2.5315359,-0.5176337,-0.5753607,-0.72035885,9.707714960750955,1.0573085862725915,jump
05/08/2020, 15:32:37,-8.873548,-3.2236965,2.6608667,-0.5176337,-0.5753607,-0.72035885,9.808785700573514,1.0573085862725915,jump
05/08/2020, 15:32:37,-8.873548,-3.2236965,2.6608667,-0.4284474,-0.5216046,-0.70447636,9.808785700573514,0.9756666766093292,jump
05/08/2020, 15:32:37,-9.101074,-3.2189064,2.6488917,-0.4284474,-0.5216046,-0.70447636,10.010371498368977,0.9756666766093292,jump
05/08/2020, 15:32:37,-9.101074,-3.2189064,2.6488917,-0.34781322,-0.4764006,-0.6898156,10.010371498368977,0.9076216808699374,jump
05/08/2020, 15:32:37,-9.192085,-3.2356715,2.5387208,-0.34781322,-0.4764006,-0.6898156,10.07020879928287,0.9076216808699374,jump
05/08/2020, 15:32:37,-9.192085,-3.2356715,2.5387208,-0.2830615,-0.45807466,-0.6775983,10.07020879928287,0.8655031262079406,jump
05/08/2020, 15:32:37,-9.148975,-3.1350808,2.4189699,-0.2830615,-0.45807466,-0.6775983,9.969147270749543,0.8655031262079406,jump
05/08/2020, 15:32:37,-9.148975,-3.1350808,2.4189699,-0.24763134,-0.45563123,-0.6629375,9.969147270749543,0.8416693255211884,jump
05/08/2020, 15:32:38,-8.768167,-3.0153298,2.189048,-0.21342291,-0.38721433,-0.17302379,9.527060927334391,0.47478575140384516,jump
05/08/2020, 15:32:38,-8.703502,-3.0608351,2.179468,-0.21342291,-0.38721433,-0.17302379,9.479964868872838,0.47478575140384516,jump
05/08/2020, 15:32:38,-8.703502,-3.0608351,2.179468,-0.2170881,-0.3652232,-0.14736746,9.479964868872838,0.4497025670178019,jump
05/08/2020, 15:32:38,-8.698711,-3.1255007,2.193838,-0.2170881,-0.3652232,-0.14736746,9.499961004189336,0.4497025670178019,jump
05/08/2020, 15:32:38,-8.698711,-3.1255007,2.193838,-0.20853598,-0.33467993,-0.11926767,9.499961004189336,0.4119741385430491,jump
05/08/2020, 15:32:38,-8.756192,-3.1494508,2.191443,-0.20853598,-0.33467993,-0.11926767,9.559935379288426,0.4119741385430491,jump
05/08/2020, 15:32:38,-8.756192,-3.1494508,2.191443,-0.19754042,-0.29924977,-0.08872442,9.559935379288426,0.3693841670747129,jump
05/08/2020, 15:32:38,-8.878338,-3.178191,2.1746778,-0.19754042,-0.29924977,-0.08872442,9.677551580708007,0.3693841670747129,jump
05/08/2020, 15:32:38,-8.878338,-3.178191,2.1746778,-0.18532312,-0.26626307,-0.058181167,9.677551580708007,0.3295841741983643,jump
05/08/2020, 15:32:38,-8.981323,-3.2332766,2.1028273,-0.18532312,-0.26626307,-0.058181167,9.774463028067728,0.3295841741983643,jump
05/08/2020, 15:32:38,-8.981323,-3.2332766,2.1028273,-0.176771,-0.24671537,-0.025194459,9.774463028067728,0.304550848682609,jump
05/08/2020, 15:32:38,-8.931028,-3.2428565,2.1339624,-0.176771,-0.24671537,-0.025194459,9.73823297450923,0.304550848682609,jump
05/08/2020, 15:32:38,-8.931028,-3.2428565,2.1339624,-0.16577543,-0.23449807,0.0041270624,9.73823297450923,0.2872070178640856,jump
05/08/2020, 15:32:38,-8.715476,-3.319497,2.2201831,-0.16577543,-0.23449807,0.0041270624,9.58685541443392,0.2872070178640856,jump
05/08/2020, 15:32:38,-8.715476,-3.319497,2.2201831,-0.14134084,-0.21495038,0.032226853,9.58685541443392,0.2592671773607274,jump
05/08/2020, 15:32:38,-8.5598,-3.412903,2.315984,-0.14134084,-0.21495038,0.032226853,9.501677108803671,0.2592671773607274,jump
05/08/2020, 15:32:38,-8.5598,-3.412903,2.315984,-0.09369335,-0.18074194,0.06154838,9.501677108803671,0.21268355538640427,jump
05/08/2020, 15:32:38,-8.384964,-3.5039136,2.4333398,-0.09369335,-0.18074194,0.06154838,9.407772034511499,0.21268355538640427,jump
05/08/2020, 15:32:38,-8.384964,-3.5039136,2.4333398,-0.015502637,-0.13675967,0.0872047,9.407772034511499,0.16293618014356986,jump
05/08/2020, 15:32:38,-8.329878,-3.5997145,2.5770411,-0.015502637,-0.13675967,0.0872047,9.433236493642397,0.16293618014356986,jump
05/08/2020, 15:32:39,-8.856783,-2.548301,3.535049,-0.027719935,-0.10255123,-0.2585449,9.870816208668113,0.27951853367197904,jump
