DATE,TIME,ax,ay,az,gx,gy,gz,ma,mg,label
23/10/2020, 15:44:09,-0.05269043,4.87147,8.48316,-0.06879917,-0.013673522,-0.021220656,9.782535453593601,0.07328442493447575,jump
23/10/2020, 15:44:09,-0.038320314,4.8594947,8.53585,-0.06879917,-0.013673522,-0.021220656,9.822264756847229,0.07328442493447575,jump
23/10/2020, 15:44:09,-0.038320314,4.8594947,8.53585,-0.07124263,-0.025890823,-0.018777195,9.822264756847229,0.07809244651571912,jump
23/10/2020, 15:44:09,-0.023950197,4.758904,8.650811,-0.07124263,-0.025890823,-0.018777195,9.87341253281838,0.07809244651571912,jump
23/10/2020, 15:44:09,-0.023950197,4.758904,8.650811,-0.06269052,-0.036886394,-0.015112006,9.87341253281838,0.07429051042754714,jump
23/10/2020, 15:44:09,0.05269043,4.6583133,8.679551,-0.06269052,-0.036886394,-0.015112006,9.850749543458061,0.07429051042754714,jump
23/10/2020, 15:44:09,0.05269043,4.6583133,8.679551,-0.06513398,-0.016116982,-0.024885846,9.850749543458061,0.07156464210308791,jump
23/10/2020, 15:44:09,0.24908204,4.5696974,8.926238,-0.06513398,-0.016116982,-0.024885846,10.031046900182325,0.07156464210308791,jump
23/10/2020, 15:44:09,0.24908204,4.5696974,8.926238,-0.07246436,-0.051547155,-0.009003356,10.031046900182325,0.08938262312423279,jump
23/10/2020, 15:44:09,0.5125342,4.591253,8.634046,-0.07246436,-0.051547155,-0.009003356,9.792294779776338,0.08938262312423279,jump
23/10/2020, 15:44:09,0.5125342,4.591253,8.634046,0.0069480953,-0.2250328,0.006879134,9.792294779776338,0.2252451164148139,jump
23/10/2020, 15:44:09,1.7339942,4.9624805,9.7142,0.0069480953,-0.2250328,0.006879134,11.045299055655214,0.2252451164148139,jump
23/10/2020, 15:44:09,1.7339942,4.9624805,9.7142,0.086360544,0.05352163,-0.011446816,11.045299055655214,0.10224352285029029,jump
23/10/2020, 15:44:09,-1.8968556,4.528982,7.4006104,0.086360544,0.05352163,-0.011446816,8.8813723914096,0.10224352285029029,jump
23/10/2020, 15:44:09,-1.8968556,4.528982,7.4006104,0.016721934,-0.008786602,-0.033437956,8.8813723914096,0.03840474401581326,jump
23/10/2020, 15:44:09,-0.86939216,4.90979,13.148658,0.016721934,-0.008786602,-0.033437956,14.062328500597445,0.03840474401581326,jump
23/10/2020, 15:44:09,-0.86939216,4.90979,13.148658,-0.17753313,-0.08575559,-0.006559896,14.062328500597445,0.1972690214623605,jump
23/10/2020, 15:44:09,-0.93405765,5.132527,14.154566,-0.17753313,-0.08575559,-0.006559896,15.085324959022737,0.1972690214623605,jump
23/10/2020, 15:44:09,-0.93405765,5.132527,14.154566,-0.32536247,0.10605603,-0.016333736,15.085324959022737,0.34260095029632154,jump
23/10/2020, 15:44:09,-3.0799952,4.768484,11.417059,-0.32536247,0.10605603,-0.016333736,12.750452770957676,0.34260095029632154,jump
23/10/2020, 15:44:09,-3.0799952,4.768484,11.417059,-0.07246436,0.15859042,-0.0077816257,12.750452770957676,0.17453526602558606,jump
23/10/2020, 15:44:09,-3.2739918,4.514612,3.056045,-0.07246436,0.15859042,-0.0077816257,6.359257593157989,0.17453526602558606,jump
23/10/2020, 15:44:09,-3.2739918,4.514612,3.056045,-0.037034184,0.13049063,0.033757195,6.359257593157989,0.139781557134145,jump
23/10/2020, 15:44:09,2.9458742,5.1636624,1.8705103,-0.037034184,0.13049063,0.033757195,6.2322061539402664,0.139781557134145,jump
23/10/2020, 15:44:09,2.9458742,5.1636624,1.8705103,-0.06635571,-0.21770243,0.034978926,6.2322061539402664,0.2302627964386316,jump
23/10/2020, 15:44:09,3.3554225,5.0606766,14.458734,-0.06635571,-0.21770243,0.034978926,15.681973206390863,0.2302627964386316,jump
23/10/2020, 15:44:09,3.3554225,5.0606766,14.458734,-0.28748885,0.022978378,-0.006559896,15.681973206390863,0.2884802867050813,jump
23/10/2020, 15:44:09,-3.163821,4.1553593,12.985797,-0.28748885,0.022978378,-0.006559896,13.99670303033987,0.2884802867050813,jump
23/10/2020, 15:44:09,-3.163821,4.1553593,12.985797,0.22197258,0.19402058,-4.512458E-4,13.99670303033987,0.29481522873706634,jump
23/10/2020, 15:44:09,-0.85741705,4.3254056,0.46942386,0.22197258,0.19402058,-4.512458E-4,4.43448490105184,0.29481522873706634,jump
23/10/2020, 15:44:10,-2.299219,8.078402,-0.54366946,-1.9649242,-0.4034054,1.5083853,8.416801996994202,2.509758814329063,jump
23/10/2020, 15:44:10,2.6896071,7.824529,8.657996,-1.9649242,-0.4034054,1.5083853,11.975731340762412,2.509758814329063,jump
23/10/2020, 15:44:10,2.6896071,7.824529,8.657996,-2.0394497,-0.79802424,1.6024586,11.975731340762412,2.713682236554062,jump
23/10/2020, 15:44:10,-1.4465919,6.3970976,17.16271,-2.0394497,-0.79802424,1.6024586,18.37318988627602,2.713682236554062,jump
23/10/2020, 15:44:10,-1.4465919,6.3970976,17.16271,-2.3583212,-0.5145829,1.663545,18.37318988627602,2.9315279933379457,jump
23/10/2020, 15:44:10,-5.2666483,4.9289503,9.163345,-2.3583212,-0.5145829,1.663545,11.661862336560715,2.9315279933379457,jump
23/10/2020, 15:44:10,-5.2666483,4.9289503,9.163345,-2.1078665,-0.5475696,1.7783877,11.661862336560715,2.811689246135948,jump
23/10/2020, 15:44:10,-0.5748047,4.550537,1.7459693,-2.1078665,-0.5475696,1.7783877,4.907769068988365,2.811689246135948,jump
23/10/2020, 15:44:10,-0.5748047,4.550537,1.7459693,-2.5843413,-0.7906938,1.867574,4.907769068988365,3.285095000887328,jump
23/10/2020, 15:44:10,4.1002736,4.636758,11.381133,-2.5843413,-0.7906938,1.867574,12.955383329313976,3.285095000887328,jump
23/10/2020, 15:44:10,4.1002736,4.636758,11.381133,-2.5428023,-1.1914213,1.9372126,12.955383329313976,3.411469032154533,jump
23/10/2020, 15:44:10,0.23950197,3.7194655,18.920654,-2.5428023,-1.1914213,1.9372126,19.284266742003936,3.411469032154533,jump
23/10/2020, 15:44:10,0.23950197,3.7194655,18.920654,-2.68941,-1.0216008,1.9188867,19.284266742003936,3.458138270013711,jump
23/10/2020, 15:44:10,-3.0105398,2.6656568,10.621912,-2.68941,-1.0216008,1.9188867,11.357556537387882,3.458138270013711,jump
23/10/2020, 15:44:10,-3.0105398,2.6656568,10.621912,-2.3277779,-1.1596563,1.9005606,11.357556537387882,3.2210996787087494,jump
23/10/2020, 15:44:10,1.5567628,1.7124391,3.2021413,-2.3277779,-1.1596563,1.9005606,3.9509070862713003,3.2210996787087494,jump
23/10/2020, 15:44:10,1.5567628,1.7124391,3.2021413,-2.8628957,-1.4516498,1.7930484,3.9509070862713003,3.676748773370866,jump
23/10/2020, 15:44:10,5.951624,0.46942386,11.809842,-2.8628957,-1.4516498,1.7930484,13.233085681773513,3.676748773370866,jump
23/10/2020, 15:44:10,5.951624,0.46942386,11.809842,-2.97896,-1.8609294,1.5572546,13.233085681773513,3.842174223746425,jump
23/10/2020, 15:44:10,2.5938063,-1.5232325,18.721869,-2.97896,-1.8609294,1.5572546,18.96197322987175,3.842174223746425,jump
23/10/2020, 15:44:10,2.5938063,-1.5232325,18.721869,-3.3894613,-1.6459049,1.2127267,18.96197322987175,3.9583022592007917,jump
23/10/2020, 15:44:10,-1.3986914,-3.4416432,10.660233,-3.3894613,-1.6459049,1.2127267,11.289012523056341,3.9583022592007917,jump
23/10/2020, 15:44:10,-1.3986914,-3.4416432,10.660233,-3.3430355,-1.590927,0.8608684,11.289012523056341,3.801056328269559,jump
23/10/2020, 15:44:10,1.6357985,-4.6271777,1.2885206,-3.3430355,-1.590927,0.8608684,5.074139874216367,3.801056328269559,jump
23/10/2020, 15:44:10,1.6357985,-4.6271777,1.2885206,-3.8268406,-1.7192086,0.5786488,5.074139874216367,4.234999636520489,jump
23/10/2020, 15:44:10,7.391031,-4.643943,7.0102224,-3.8268406,-1.7192086,0.5786488,11.195390111077742,4.234999636520489,jump
23/10/2020, 15:44:10,7.391031,-4.643943,7.0102224,-3.9917743,-1.9745502,0.3110899,11.195390111077742,4.464290294450984,jump
23/10/2020, 15:44:10,5.8055277,-4.773274,15.407162,-3.9917743,-1.9745502,0.3110899,17.142605633848,4.464290294450984,jump
23/10/2020, 15:44:10,5.8055277,-4.773274,15.407162,-4.0870695,-1.7253172,0.025205085,17.142605633848,4.436382768118268,jump
23/10/2020, 15:44:10,1.343606,-5.0894165,10.336905,-4.0870695,-1.7253172,0.025205085,11.599958301439033,4.436382768118268,jump
23/10/2020, 15:44:11,2.3854396,0.059875492,9.958491,0.16699474,0.10605603,0.023983356,10.24038362568414,0.1992744939808242,jump
23/10/2020, 15:44:11,2.572251,0.21794678,9.7142,0.16699474,0.10605603,0.023983356,10.051351075929512,0.1992744939808242,jump
23/10/2020, 15:44:11,2.572251,0.21794678,9.7142,0.13156456,0.1011691,0.020318165,10.051351075929512,0.1672042099591273,jump
23/10/2020, 15:44:11,2.5387208,0.17962648,9.632769,0.13156456,0.1011691,0.020318165,9.963312737491233,0.1672042099591273,jump
23/10/2020, 15:44:11,2.5387208,0.17962648,9.632769,0.072921515,0.097503915,0.023983356,9.963312737491233,0.12409577812718907,jump
23/10/2020, 15:44:11,2.4884255,0.122146,9.666299,0.072921515,0.097503915,0.023983356,9.98220991832648,0.12409577812718907,jump
23/10/2020, 15:44:11,2.4884255,0.122146,9.666299,0.013056746,0.097503915,0.027648546,9.98220991832648,0.1021857828594755,jump
23/10/2020, 15:44:11,2.43813,0.047900394,9.632769,0.013056746,0.097503915,0.027648546,9.936649503942375,0.1021857828594755,jump
23/10/2020, 15:44:11,2.43813,0.047900394,9.632769,-0.038255915,0.08773007,0.034978926,9.936649503942375,0.10189997999470163,jump
23/10/2020, 15:44:11,2.3064039,0.102985844,9.74294,-0.038255915,0.08773007,0.034978926,10.01274107179529,0.10189997999470163,jump
23/10/2020, 15:44:11,2.3064039,0.102985844,9.74294,-0.043142837,0.05963028,0.037422385,10.01274107179529,0.08256821036345159,jump
23/10/2020, 15:44:11,2.2537134,0.023950197,9.865086,-0.043142837,0.05963028,0.037422385,10.119274257286163,0.08256821036345159,jump
23/10/2020, 15:44:11,2.2537134,0.023950197,9.865086,-0.035812456,0.04741298,0.032535464,10.119274257286163,0.06774274213191618,jump
23/10/2020, 15:44:11,2.308799,-0.06466553,10.020762,-0.035812456,0.04741298,0.032535464,10.283502055947315,0.06774274213191618,jump
23/10/2020, 15:44:11,2.308799,-0.06466553,10.020762,-0.023595154,0.0400826,0.033757195,10.283502055947315,0.0574708128693769,jump
23/10/2020, 15:44:11,2.3614893,-0.100590825,9.992022,-0.023595154,0.0400826,0.033757195,10.267777027083062,0.0574708128693769,jump
23/10/2020, 15:44:11,2.3614893,-0.100590825,9.992022,0.013056746,0.013204537,0.044752765,10.267777027083062,0.04845253792062417,jump
23/10/2020, 15:44:11,2.3447242,-0.119750984,10.015972,0.013056746,0.013204537,0.044752765,10.287456907746517,0.04845253792062417,jump
23/10/2020, 15:44:11,2.3447242,-0.119750984,10.015972,0.080251895,-0.008786602,0.053304877,10.287456907746517,0.09674182618427199,jump
23/10/2020, 15:44:11,2.3566992,-0.18681154,9.927357,0.080251895,-0.008786602,0.053304877,10.2049664991289,0.09674182618427199,jump
23/10/2020, 15:44:11,2.3566992,-0.18681154,9.927357,0.12789936,-0.016116982,0.059413526,10.2049664991289,0.14194355016840474,jump
23/10/2020, 15:44:11,2.4189699,-0.07424561,9.814791,0.12789936,-0.016116982,0.059413526,10.108760786073104,0.14194355016840474,jump
23/10/2020, 15:44:11,2.4189699,-0.07424561,9.814791,0.14378186,9.872383E-4,0.053304877,10.108760786073104,0.15334799181817135,jump
23/10/2020, 15:44:11,2.4213648,0.3065625,9.637559,0.14378186,9.872383E-4,0.053304877,9.941807192777288,0.15334799181817135,jump
23/10/2020, 15:44:11,2.4213648,0.3065625,9.637559,0.13889495,0.0034306985,0.044752765,9.941807192777288,0.14596707012382468,jump
23/10/2020, 15:44:11,2.327959,0.43589357,9.477093,0.13889495,0.0034306985,0.044752765,9.768555852654345,0.14596707012382468,jump
23/10/2020, 15:44:11,2.327959,0.43589357,9.477093,0.07903016,-0.002677952,0.033757195,9.768555852654345,0.08597956960222171,jump
23/10/2020, 15:44:11,2.3064039,0.23710695,9.366921,0.07903016,-0.002677952,0.033757195,9.649608050130825,0.08597956960222171,jump
23/10/2020, 15:44:11,2.3064039,0.23710695,9.366921,0.008169825,-2.3449166E-4,0.020318165,9.649608050130825,0.021900430955761854,jump
23/10/2020, 15:44:11,2.3064039,0.014370117,9.400452,0.008169825,-2.3449166E-4,0.020318165,9.679266333325092,0.021900430955761854,jump
23/10/2020, 15:44:12,-1.3244458,-0.8334668,3.2356715,-3.164663,-0.32399297,3.8919806,3.5942167342679574,5.0266865025497705,jump
23/10/2020, 15:44:12,-1.3244458,-0.8334668,3.2356715,-3.3124924,-0.24213703,4.13144,3.5942167342679574,5.300946506439498,jump
23/10/2020, 15:44:12,-1.453777,-0.9987232,3.1470559,-3.3124924,-0.24213703,4.13144,3.6076136292417136,5.300946506439498,jump
23/10/2020, 15:44:12,-1.453777,-0.9987232,3.1470559,-3.4505477,-0.1395117,4.3684554,3.6076136292417136,5.568585599722856,jump
23/10/2020, 15:44:12,-1.453777,-0.9987232,3.1470559,-3.5666122,-0.018560443,4.6079144,3.6076136292417136,5.827001196560571,jump
23/10/2020, 15:44:12,-1.6142433,-1.1400293,3.1925611,-3.5666122,-0.018560443,4.6079144,3.754716348230744,5.827001196560571,jump
23/10/2020, 15:44:12,-1.7938697,-1.334026,3.2692018,-3.5666122,-0.018560443,4.6079144,3.9604638684072495,5.827001196560571,jump
23/10/2020, 15:44:12,-1.7938697,-1.334026,3.2692018,-3.6557984,0.112164676,4.8608127,3.9604638684072495,6.083168818000278,jump
23/10/2020, 15:44:12,-2.0285816,-1.587898,3.3554225,-3.6557984,0.112164676,4.8608127,4.230298290564533,6.083168818000278,jump
23/10/2020, 15:44:12,-2.0285816,-1.587898,3.3554225,-3.7156632,0.24655499,5.1332583,4.230298290564533,6.34170982861948,jump
23/10/2020, 15:44:12,-2.4668703,-1.8154249,3.3745828,-3.7156632,0.24655499,5.1332583,4.557304642847429,6.34170982861948,jump
23/10/2020, 15:44:12,-2.4668703,-1.8154249,3.3745828,-3.735211,0.36872795,5.419143,4.557304642847429,6.592031079884182,jump
23/10/2020, 15:44:12,-2.9961696,-2.0022364,3.4919386,-3.735211,0.36872795,5.419143,5.01792961933764,6.592031079884182,jump
23/10/2020, 15:44:12,-2.9961696,-2.0022364,3.4919386,-3.6863418,0.47868368,5.7172456,5.01792961933764,6.819468503040845,jump
23/10/2020, 15:44:12,-3.647615,-2.2249732,3.796106,-3.6863418,0.47868368,5.7172456,5.715419681713383,6.819468503040845,jump
23/10/2020, 15:44:12,-3.647615,-2.2249732,3.796106,-3.5592818,0.5605396,6.012904,5.715419681713383,7.009829405018227,jump
23/10/2020, 15:44:12,-4.232,-2.5075855,3.9469924,-3.5592818,0.5605396,6.012904,6.306865868771904,7.009829405018227,jump
23/10/2020, 15:44:12,-4.232,-2.5075855,3.9469924,-3.4163394,0.6301782,6.2963457,6.306865868771904,7.191138210885743,jump
23/10/2020, 15:44:12,-4.799619,-2.907554,4.1146436,-3.4163394,0.6301782,6.2963457,6.958484456403323,7.191138210885743,jump
23/10/2020, 15:44:12,-4.799619,-2.907554,4.1146436,-3.2269711,0.6558345,6.533361,6.958484456403323,7.316301462784062,jump
23/10/2020, 15:44:12,-5.4486694,-3.7242556,4.687053,-3.2269711,0.6558345,6.533361,8.094846868199895,7.316301462784062,jump
23/10/2020, 15:44:12,-5.4486694,-3.7242556,4.687053,-3.0595942,0.658278,6.6946297,8.094846868199895,7.390027923291581,jump
23/10/2020, 15:44:12,-6.0570045,-5.000801,4.3493557,-3.0595942,0.658278,6.6946297,8.9784302313411,7.390027923291581,jump
23/10/2020, 15:44:12,-6.0570045,-5.000801,4.3493557,-3.151224,0.748686,6.7899246,8.9784302313411,7.522886359080527,jump
23/10/2020, 15:44:12,-6.4186525,-6.0282645,3.7458107,-3.151224,0.748686,6.7899246,9.569230463613726,7.522886359080527,jump
23/10/2020, 15:44:12,-6.4186525,-6.0282645,3.7458107,-3.6276987,0.9527149,6.858341,9.569230463613726,7.816950014887865,jump
23/10/2020, 15:44:12,-6.710845,-6.330037,3.051255,-3.6276987,0.9527149,6.858341,9.716736459878323,7.816950014887865,jump
23/10/2020, 15:44:12,-6.710845,-6.330037,3.051255,-4.4474797,1.1237571,6.8937716,9.716736459878323,8.280518915940982,jump
23/10/2020, 15:44:12,-7.2353544,-5.8103175,2.8141482,-4.4474797,1.1237571,6.8937716,9.696884721213861,8.280518915940982,jump
23/10/2020, 15:44:12,-7.2353544,-5.8103175,2.8141482,-5.2819214,1.1213137,6.92798,9.696884721213861,8.783674860984002,jump
23/10/2020, 15:44:13,2.047742,-0.119750984,0.50534916,-3.263623,-0.76015055,0.037422385,2.1125730564380967,3.3511885021809946,jump
23/10/2020, 15:44:13,2.5842261,0.55324954,1.2837305,-3.263623,-0.76015055,0.037422385,2.9380731379574856,3.3511885021809946,jump
23/10/2020, 15:44:13,2.5842261,0.55324954,1.2837305,-3.087694,-0.5805563,0.2170167,2.9380731379574856,3.1492849405437098,jump
23/10/2020, 15:44:13,2.9171338,0.61552006,1.5495777,-3.087694,-0.5805563,0.2170167,3.3600187034561055,3.1492849405437098,jump
23/10/2020, 15:44:13,2.9171338,0.61552006,1.5495777,-2.9423082,-0.45471808,0.18769518,3.3600187034561055,2.9831485856640017,jump
23/10/2020, 15:44:13,2.6704469,0.098195806,1.6405884,-2.9423082,-0.45471808,0.18769518,3.135675242041037,2.9831485856640017,jump
23/10/2020, 15:44:13,2.6704469,0.098195806,1.6405884,-2.7737093,-0.4229531,0.11561311,3.135675242041037,2.8081522359935964,jump
23/10/2020, 15:44:13,2.2201831,-0.79035646,1.9184108,-2.7737093,-0.4229531,0.11561311,3.0387787664884507,2.8081522359935964,jump
23/10/2020, 15:44:13,2.2201831,-0.79035646,1.9184108,-2.4951549,-0.47915268,0.11561311,3.0387787664884507,2.5433740277607013,jump
23/10/2020, 15:44:13,2.0860622,-1.710044,2.1818628,-2.4951549,-0.47915268,0.11561311,3.469356058213347,2.5433740277607013,jump
23/10/2020, 15:44:13,2.0860622,-1.710044,2.1818628,-2.0492234,-0.550013,0.14126943,3.469356058213347,2.126449622225685,jump
23/10/2020, 15:44:13,2.308799,-2.5339308,2.2800586,-2.0492234,-0.550013,0.14126943,4.117040862703609,2.126449622225685,jump
23/10/2020, 15:44:13,2.308799,-2.5339308,2.2800586,-1.4530194,-0.568339,0.16081712,4.117040862703609,1.5684822833121514,jump
23/10/2020, 15:44:13,2.3998096,-3.0296998,2.2848487,-1.4530194,-0.568339,0.16081712,4.489844155433639,1.5684822833121514,jump
23/10/2020, 15:44:13,2.3998096,-3.0296998,2.2848487,-0.78717643,-0.5341305,0.21090804,4.489844155433639,0.9743840820953802,jump
23/10/2020, 15:44:13,2.4093897,-3.3266823,2.0453467,-0.78717643,-0.5341305,0.21090804,4.588618254446667,0.9743840820953802,jump
23/10/2020, 15:44:13,2.4093897,-3.3266823,2.0453467,-0.16287237,-0.4840396,0.28787702,4.588618254446667,0.5862550039124557,jump
23/10/2020, 15:44:13,2.2800586,-3.2548318,1.7363893,-0.16287237,-0.4840396,0.28787702,4.336778186408063,0.5862550039124557,jump
23/10/2020, 15:44:13,2.2800586,-3.2548318,1.7363893,0.3600281,-0.44494423,0.34896353,4.336778186408063,0.6703515039986365,jump
23/10/2020, 15:44:13,1.9902613,-3.0033545,1.3939015,0.3600281,-0.44494423,0.34896353,3.863190385835717,0.6703515039986365,jump
23/10/2020, 15:44:13,1.9902613,-3.0033545,1.3939015,0.7387644,-0.42417482,0.3843937,3.863190385835717,0.9345884821464656,jump
23/10/2020, 15:44:13,1.6525636,-2.5938063,1.0609937,0.7387644,-0.42417482,0.3843937,3.2533836047519293,0.9345884821464656,jump
23/10/2020, 15:44:13,1.6525636,-2.5938063,1.0609937,0.99777114,-0.42906174,0.41005003,3.2533836047519293,1.1609402498477766,jump
23/10/2020, 15:44:13,1.3172607,-2.069297,0.977168,0.99777114,-0.42906174,0.41005003,2.6404589742988795,1.1609402498477766,jump
23/10/2020, 15:44:13,1.3172607,-2.069297,0.977168,1.1761436,-0.46937883,0.4332629,2.6404589742988795,1.3384121617491063,jump
23/10/2020, 15:44:13,1.0681788,-1.5735279,0.86220706,1.1761436,-0.46937883,0.4332629,2.0881563758709496,1.3384121617491063,jump
23/10/2020, 15:44:13,1.0681788,-1.5735279,0.86220706,1.2579995,-0.5316871,0.45036712,2.0881563758709496,1.4380836340077647,jump
23/10/2020, 15:44:13,0.9364527,-1.1328443,0.68737066,1.2579995,-0.5316871,0.45036712,1.6225776805554621,1.4380836340077647,jump
23/10/2020, 15:44:13,0.9364527,-1.1328443,0.68737066,1.2555561,-0.5842215,0.46380615,1.6225776805554621,1.4604287124144049,jump
23/10/2020, 15:44:13,0.80712163,-0.7496411,0.62031007,1.2555561,-0.5842215,0.46380615,1.2641960777191035,1.4604287124144049,jump
23/10/2020, 15:44:14,-12.2433405,-6.365962,1.695674,-3.8696012,-0.703951,-0.13484156,13.903243113639961,3.9354215899116465,jump
23/10/2020, 15:44:14,-9.208851,-5.384004,1.719624,-3.8696012,-0.703951,-0.13484156,10.804977618764848,3.9354215899116465,jump
23/10/2020, 15:44:14,-9.208851,-5.384004,1.719624,-3.264845,-0.77603304,0.096065424,10.804977618764848,3.357181561291597,jump
23/10/2020, 15:44:14,-6.11688,-4.2296047,2.1124072,-3.264845,-0.77603304,0.096065424,7.730979272221674,3.357181561291597,jump
23/10/2020, 15:44:14,-6.11688,-4.2296047,2.1124072,-2.6307669,-0.81146324,0.26466417,7.730979272221674,2.765764636787896,jump
23/10/2020, 15:44:14,-3.159031,-3.0368848,2.3926246,-2.6307669,-0.81146324,0.26466417,4.992674440532671,2.765764636787896,jump
23/10/2020, 15:44:14,-3.159031,-3.0368848,2.3926246,-2.0626626,-0.82856745,0.37339813,4.992674440532671,2.2540024797598153,jump
23/10/2020, 15:44:14,-0.31374758,-1.9016455,2.5004005,-2.0626626,-0.82856745,0.37339813,3.15700747351215,2.2540024797598153,jump
23/10/2020, 15:44:14,-0.31374758,-1.9016455,2.5004005,-1.6692655,-0.7723679,0.428376,3.15700747351215,1.8885193912643818,jump
23/10/2020, 15:44:14,2.0237916,-0.80712163,2.327959,-1.6692655,-0.7723679,0.428376,3.1885060710760165,1.8885193912643818,jump
23/10/2020, 15:44:14,2.0237916,-0.80712163,2.327959,-1.5202144,-0.5988822,0.49923635,3.1885060710760165,1.708493124006454,jump
23/10/2020, 15:44:14,3.3769777,0.1580713,2.064507,-1.5202144,-0.5988822,0.49923635,3.9612061274364825,1.708493124006454,jump
23/10/2020, 15:44:14,3.3769777,0.1580713,2.064507,-1.6167312,-0.3337668,0.6641699,3.9612061274364825,1.7794217040619695,jump
23/10/2020, 15:44:14,3.403323,0.85023195,1.4849122,-1.6167312,-0.3337668,0.6641699,3.8092604893813533,1.7794217040619695,jump
23/10/2020, 15:44:14,3.403323,0.85023195,1.4849122,-1.9111681,-0.057655804,0.89385515,3.8092604893813533,2.1106550474917327,jump
23/10/2020, 15:44:14,2.3566992,1.1472144,0.5029541,-1.9111681,-0.057655804,0.89385515,2.668912702497112,2.1106550474917327,jump
23/10/2020, 15:44:14,2.3566992,1.1472144,0.5029541,-2.3607647,0.13049063,1.1027709,2.668912702497112,2.608896640996589,jump
23/10/2020, 15:44:14,0.7448511,1.1328443,-0.32572266,-2.3607647,0.13049063,1.1027709,1.3943581703778172,2.608896640996589,jump
23/10/2020, 15:44:14,0.7448511,1.1328443,-0.32572266,-2.8091395,0.1292689,1.2420481,1.3943581703778172,3.074192368126515,jump
23/10/2020, 15:44:14,-0.6514453,0.56522465,-0.30416748,-2.8091395,0.1292689,1.2420481,0.9145369180839066,3.074192368126515,jump
23/10/2020, 15:44:14,-0.6514453,0.56522465,-0.30416748,-3.0766985,-0.07964694,1.283587,0.9145369180839066,3.334668361806253,jump
23/10/2020, 15:44:14,-1.1424243,-0.76880133,0.3520679,-3.0766985,-0.07964694,1.283587,1.4213165266897447,3.334668361806253,jump
23/10/2020, 15:44:14,-1.1424243,-0.76880133,0.3520679,-3.129233,-0.35209274,1.2298309,1.4213165266897447,3.380614098857795,jump
23/10/2020, 15:44:14,-0.60833496,-2.4620802,0.7041358,-3.129233,-0.35209274,1.2298309,2.632055797595832,3.380614098857795,jump
23/10/2020, 15:44:14,-0.60833496,-2.4620802,0.7041358,-2.961856,-0.50358725,1.2041745,2.632055797595832,3.236699968940125,jump
23/10/2020, 15:44:14,0.38080812,-3.8368216,1.3555812,-2.961856,-0.50358725,1.2041745,4.087030066797736,3.236699968940125,jump
23/10/2020, 15:44:14,0.38080812,-3.8368216,1.3555812,-2.4927115,-0.47915268,1.2444917,4.087030066797736,2.8270050785762195,jump
23/10/2020, 15:44:14,1.3603711,-4.8283596,2.3016138,-2.4927115,-0.47915268,1.2444917,5.519156833131091,2.8270050785762195,jump
23/10/2020, 15:44:14,1.3603711,-4.8283596,2.3016138,-1.8341991,-0.34964928,1.3067999,5.519156833131091,2.2790934162286147,jump
23/10/2020, 15:44:14,2.074087,-5.1876125,2.5099807,-1.8341991,-0.34964928,1.3067999,6.124799041005928,2.2790934162286147,jump
23/10/2020, 15:44:15,-31.844181,-2.0237916,7.9155397,-3.5067475,-0.03810812,-0.6846201,32.875574049379715,3.5731547411385858,jump
23/10/2020, 15:44:15,-26.29492,1.6693287,9.271121,-3.5067475,-0.03810812,-0.6846201,27.931400957359998,3.5731547411385858,jump
23/10/2020, 15:44:15,-26.29492,1.6693287,9.271121,-3.6973374,-0.3630883,-0.52457345,27.931400957359998,3.7519747051737173,jump
23/10/2020, 15:44:15,-20.237915,1.9782863,8.737032,-3.6973374,-0.3630883,-0.52457345,22.131935042869912,3.7519747051737173,jump
23/10/2020, 15:44:15,-20.237915,1.9782863,8.737032,-3.9942176,-0.5781128,-0.2948882,22.131935042869912,4.046597082304432,jump
23/10/2020, 15:44:15,-15.29699,0.38320315,7.1251836,-3.9942176,-0.5781128,-0.2948882,16.87936612752661,4.046597082304432,jump
23/10/2020, 15:44:15,-15.29699,0.38320315,7.1251836,-4.056526,-0.5976605,-0.13850674,16.87936612752661,4.102656072707163,jump
23/10/2020, 15:44:15,-11.601475,-1.839375,4.636758,-4.056526,-0.5976605,-0.13850674,12.628421931452474,4.102656072707163,jump
23/10/2020, 15:44:15,-11.601475,-1.839375,4.636758,-3.8720446,-0.54268265,-0.11407214,12.628421931452474,3.9115528896583713,jump
23/10/2020, 15:44:15,-8.849598,-4.4403663,1.9663111,-3.8720446,-0.54268265,-0.11407214,10.094484408075813,3.9115528896583713,jump
23/10/2020, 15:44:15,-8.849598,-4.4403663,1.9663111,-3.616703,-0.39363158,-0.1531675,10.094484408075813,3.6412836931961317,jump
23/10/2020, 15:44:15,-6.375542,-7.065308,-0.14130616,-3.616703,-0.39363158,-0.1531675,9.51767218272885,3.6412836931961317,jump
23/10/2020, 15:44:15,-6.375542,-7.065308,-0.14130616,-3.6069293,-0.19082437,-0.37430063,9.51767218272885,3.631315724899388,jump
23/10/2020, 15:44:15,-3.3458424,-10.559642,-1.1903248,-3.6069293,-0.19082437,-0.37430063,11.14080652133722,3.631315724899388,jump
23/10/2020, 15:44:15,-3.3458424,-10.559642,-1.1903248,-3.7791932,0.076734506,-0.7176068,11.14080652133722,3.847486015813262,jump
23/10/2020, 15:44:15,-1.8465601,-12.159514,1.4010864,-3.7791932,0.076734506,-0.7176068,12.378474002200958,3.847486015813262,jump
23/10/2020, 15:44:15,-1.8465601,-12.159514,1.4010864,-3.096246,0.32718915,-0.7261589,12.378474002200958,3.1970453279276194,jump
23/10/2020, 15:44:15,-0.77359134,-10.887759,3.7314405,-3.096246,0.32718915,-0.7261589,11.535397378557441,3.1970453279276194,jump
23/10/2020, 15:44:15,-0.77359134,-10.887759,3.7314405,-1.6460527,0.3785018,-0.4818129,11.535397378557441,1.7563874375435855,jump
23/10/2020, 15:44:15,0.081430666,-9.010064,3.4919386,-1.6460527,0.3785018,-0.4818129,9.663411489450308,1.7563874375435855,jump
23/10/2020, 15:44:15,0.081430666,-9.010064,3.4919386,-0.20318946,0.4310362,-0.1568327,9.663411489450308,0.5016718659719515,jump
23/10/2020, 15:44:15,0.5963599,-5.391189,1.4897022,-0.20318946,0.4310362,-0.1568327,5.624924688668116,0.5016718659719515,jump
23/10/2020, 15:44:15,0.5963599,-5.391189,1.4897022,1.0771835,0.47624022,0.23289919,5.624924688668116,1.2005711297544288,jump
23/10/2020, 15:44:15,0.6825806,-1.8872755,2.083667,1.0771835,0.47624022,0.23289919,2.8929903641848393,1.2005711297544288,jump
23/10/2020, 15:44:15,0.6825806,-1.8872755,2.083667,1.9006295,0.35162374,0.5395534,2.8929903641848393,2.006775948299454,jump
23/10/2020, 15:44:15,1.1232642,0.16765137,3.410508,1.9006295,0.35162374,0.5395534,3.5946340126740552,2.006775948299454,jump
23/10/2020, 15:44:15,1.1232642,0.16765137,3.410508,2.031355,0.04252606,0.5395534,3.5946340126740552,2.1022200379616325,jump
23/10/2020, 15:44:15,1.6429834,1.9351759,2.047742,2.031355,0.04252606,0.5395534,3.2615252824445293,2.1022200379616325,jump
23/10/2020, 15:44:15,1.6429834,1.9351759,2.047742,1.7576872,-0.20181994,0.47358,3.2615252824445293,1.8315222192555545,jump
23/10/2020, 15:44:15,2.0261867,2.44771,0.7759864,1.7576872,-0.20181994,0.47358,3.2709129979481677,1.8315222192555545,jump
23/10/2020, 15:44:16,-25.214767,-4.0356083,4.361331,-0.06391225,-1.5335057,2.297623,25.905440357500176,2.7631133742587575,jump
23/10/2020, 15:44:16,-18.491947,-1.5974782,6.0354495,-0.06391225,-1.5335057,2.297623,19.517445976824177,2.7631133742587575,jump
23/10/2020, 15:44:16,-18.491947,-1.5974782,6.0354495,-1.209895,-0.060099263,1.5071636,19.517445976824177,1.933649429817724,jump
23/10/2020, 15:44:16,-18.664389,-1.463357,5.606741,-1.209895,-0.060099263,1.5071636,19.543192207252638,1.933649429817724,jump
23/10/2020, 15:44:16,-18.664389,-1.463357,5.606741,-1.9417113,0.85253304,0.38683715,19.543192207252638,2.1556201823850216,jump
23/10/2020, 15:44:16,-24.472311,-3.3338673,6.1073003,-1.9417113,0.85253304,0.38683715,25.442244292393806,2.1556201823850216,jump
23/10/2020, 15:44:16,-24.472311,-3.3338673,6.1073003,-1.8048776,1.1567439,-0.43538713,25.442244292393806,2.1875103797253637,jump
23/10/2020, 15:44:16,-31.71485,-5.5660257,6.109695,-1.8048776,1.1567439,-0.43538713,32.77408567728547,2.1875103797253637,jump
23/10/2020, 15:44:16,-31.71485,-5.5660257,6.109695,-1.2367731,1.0431229,-0.54045594,32.77408567728547,1.7058152778399083,jump
23/10/2020, 15:44:16,-34.584084,-4.7876444,5.4678297,-1.2367731,1.0431229,-0.54045594,35.33946145502391,1.7058152778399083,jump
23/10/2020, 15:44:16,-34.584084,-4.7876444,5.4678297,-0.83971083,0.66805184,-0.29855338,35.33946145502391,1.11379605824051,jump
23/10/2020, 15:44:16,-31.887291,-1.2358302,5.5324955,-0.83971083,0.66805184,-0.29855338,32.387267669848306,1.11379605824051,jump
23/10/2020, 15:44:16,-31.887291,-1.2358302,5.5324955,-0.87391925,0.2770982,-0.14583713,32.387267669848306,0.9283246944020908,jump
23/10/2020, 15:44:16,-26.69489,1.3771362,6.6821046,-0.87391925,0.2770982,-0.14583713,27.552933206853673,0.9283246944020908,jump
23/10/2020, 15:44:16,-26.69489,1.3771362,6.6821046,-1.1353695,0.069404125,-0.059094287,27.552933206853673,1.1390228523115413,jump
23/10/2020, 15:44:16,-22.137167,1.1520045,7.563472,-1.1353695,0.069404125,-0.059094287,23.421942312023848,1.1390228523115413,jump
23/10/2020, 15:44:16,-22.137167,1.1520045,7.563472,-1.4053719,0.048634708,0.116834834,23.421942312023848,1.411058433553846,jump
23/10/2020, 15:44:16,-18.626068,-0.7807764,7.0174074,-1.4053719,0.048634708,0.116834834,19.919438547599363,1.411058433553846,jump
23/10/2020, 15:44:16,-18.626068,-0.7807764,7.0174074,-1.7010305,0.06207374,0.2170167,19.919438547599363,1.7159411800693325,jump
23/10/2020, 15:44:16,-15.507752,-3.056045,5.7696023,-1.7010305,0.06207374,0.2170167,16.826113845454906,1.7159411800693325,jump
23/10/2020, 15:44:16,-15.507752,-3.056045,5.7696023,-2.0870972,0.033973947,0.033757195,16.826113845454906,2.087646609422977,jump
23/10/2020, 15:44:16,-12.9187355,-5.3959794,3.7434156,-2.0870972,0.033973947,0.033757195,14.492186897414648,2.087646609422977,jump
23/10/2020, 15:44:16,-12.9187355,-5.3959794,3.7434156,-2.4853811,-0.011230063,-0.2338017,14.492186897414648,2.496379115701995,jump
23/10/2020, 15:44:16,-11.108101,-7.1874537,2.7830129,-2.4853811,-0.011230063,-0.2338017,13.520153748653183,2.496379115701995,jump
23/10/2020, 15:44:16,-11.108101,-7.1874537,2.7830129,-2.6454277,-0.10408154,-0.34131393,13.520153748653183,2.6693849293933103,jump
23/10/2020, 15:44:16,-9.534574,-7.6113725,2.5267458,-2.6454277,-0.10408154,-0.34131393,12.458953731525714,2.6693849293933103,jump
23/10/2020, 15:44:16,-9.534574,-7.6113725,2.5267458,-2.4609466,-0.20670687,-0.21669747,12.458953731525714,2.479101347796448,jump
23/10/2020, 15:44:16,-7.6305327,-6.5096636,2.2465284,-2.4609466,-0.20670687,-0.21669747,10.278503765751372,2.479101347796448,jump
23/10/2020, 15:44:16,-7.6305327,-6.5096636,2.2465284,-2.1274142,-0.28734106,7.704842E-4,10.278503765751372,2.1467316480303875,jump
23/10/2020, 15:44:16,-5.374424,-4.670288,1.5591577,-2.1274142,-0.28734106,7.704842E-4,7.2888268434965715,2.1467316480303875,jump
23/10/2020, 15:44:17,0.1820215,-0.035925295,1.5950831,-0.10911626,-0.68073815,0.043531034,1.6058370417022578,0.6908007963671612,jump
23/10/2020, 15:44:17,0.026345216,0.12693603,0.92926764,-0.10911626,-0.68073815,0.043531034,0.9382671169685192,0.6908007963671612,jump
23/10/2020, 15:44:17,0.026345216,0.12693603,0.92926764,-0.13355085,-0.65996873,0.10217407,0.9382671169685192,0.681053669748184,jump
23/10/2020, 15:44:17,-0.26105714,-0.07424561,0.244292,-0.13355085,-0.65996873,0.10217407,0.3651599980607598,0.681053669748184,jump
23/10/2020, 15:44:17,-0.26105714,-0.07424561,0.244292,-0.17264621,-0.48770478,0.21457323,0.3651599980607598,0.5600931552851576,jump
23/10/2020, 15:44:17,-1.336421,-0.5412744,0.25147706,-0.17264621,-0.48770478,0.21457323,1.463639246376299,0.5600931552851576,jump
23/10/2020, 15:44:17,-1.336421,-0.5412744,0.25147706,-0.061468784,-0.15050729,0.40027618,1.463639246376299,0.4320322651348193,jump
23/10/2020, 15:44:17,-3.7314405,-1.8154249,0.5508545,-0.061468784,-0.15050729,0.40027618,4.186031158036733,0.4320322651348193,jump
23/10/2020, 15:44:17,-3.7314405,-1.8154249,0.5508545,0.1535557,0.38338873,0.6434005,4.186031158036733,0.7645459191377592,jump
23/10/2020, 15:44:17,-7.32397,-3.9589674,0.52690434,0.1535557,0.38338873,0.6434005,8.342157135230204,0.7645459191377592,jump
23/10/2020, 15:44:17,-7.32397,-3.9589674,0.52690434,0.47364897,0.993032,0.8303252,8.342157135230204,1.3783670657148228,jump
23/10/2020, 15:44:17,-13.464801,-6.330037,1.9639161,0.47364897,0.993032,0.8303252,15.007571346601082,1.3783670657148228,jump
23/10/2020, 15:44:17,-13.464801,-6.330037,1.9639161,1.1993566,1.649101,1.071006,15.007571346601082,2.303268122316816,jump
23/10/2020, 15:44:17,-21.787493,-8.456815,2.6009912,1.1993566,1.649101,1.071006,23.5154781343012,2.303268122316816,jump
23/10/2020, 15:44:17,-21.787493,-8.456815,2.6009912,1.7051528,2.3577046,1.071006,23.5154781343012,3.1005436284866352,jump
23/10/2020, 15:44:17,-31.662159,-8.935819,1.4920973,1.7051528,2.3577046,1.071006,32.93277273421485,3.1005436284866352,jump
23/10/2020, 15:44:17,-31.662159,-8.935819,1.4920973,1.7295873,2.3100572,-0.3278749,32.93277273421485,2.904365392337552,jump
23/10/2020, 15:44:17,-48.489567,-8.861572,-2.4740553,1.7295873,2.3100572,-0.3278749,49.354700904153866,2.904365392337552,jump
23/10/2020, 15:44:17,-48.489567,-8.861572,-2.4740553,1.8542038,-0.006343142,0.47968864,49.354700904153866,1.9152580082008375,jump
23/10/2020, 15:44:17,-40.21238,-7.7526784,0.6849756,1.8542038,-0.006343142,0.47968864,40.958621502313385,1.9152580082008375,jump
23/10/2020, 15:44:17,-40.21238,-7.7526784,0.6849756,1.2579995,-1.6569004,1.600015,40.958621502313385,2.624486604612827,jump
23/10/2020, 15:44:17,-25.133335,-1.6741188,6.133645,1.2579995,-1.6569004,1.600015,25.925061412380842,2.624486604612827,jump
23/10/2020, 15:44:17,-25.133335,-1.6741188,6.133645,0.3038285,-1.6752263,1.4497423,25.925061412380842,2.236168108083473,jump
23/10/2020, 15:44:17,-16.530426,2.1363575,8.454419,0.3038285,-1.6752263,1.4497423,18.689467918391824,2.236168108083473,jump
23/10/2020, 15:44:17,-16.530426,2.1363575,8.454419,-0.6564513,-1.0814656,0.70204353,18.689467918391824,1.4468452786148052,jump
23/10/2020, 15:44:17,-12.291241,3.3817677,8.873548,-0.6564513,-1.0814656,0.70204353,15.532250225223843,1.4468452786148052,jump
23/10/2020, 15:44:17,-12.291241,3.3817677,8.873548,-1.4383585,-0.48159614,-0.21303228,15.532250225223843,1.5317287290073567,jump
23/10/2020, 15:44:17,-11.984678,2.189048,9.206455,-1.4383585,-0.48159614,-0.21303228,15.270339304881228,1.5317287290073567,jump
23/10/2020, 15:44:17,-11.984678,2.189048,9.206455,-1.8244252,0.084064886,-0.9399617,15.270339304881228,2.05405020258025,jump
23/10/2020, 15:44:17,-15.2538805,-0.31135255,9.448353,-1.8244252,0.084064886,-0.9399617,17.94572878531364,2.05405020258025,jump
23/10/2020, 15:44:18,-14.257552,2.543511,5.1947975,-5.405316,-1.2891597,0.107061,15.38613538942293,5.55795235625532,jump
23/10/2020, 15:44:18,-13.428875,-0.30177248,5.2858086,-5.405316,-1.2891597,0.107061,14.434871725787755,5.55795235625532,jump
23/10/2020, 15:44:18,-13.428875,-0.30177248,5.2858086,-5.7755003,-1.3832328,0.15959539,14.434871725787755,5.9409769770073755,jump
23/10/2020, 15:44:18,-12.034974,-1.698069,5.367239,-5.7755003,-1.3832328,0.15959539,13.286507978366064,5.9409769770073755,jump
23/10/2020, 15:44:18,-12.034974,-1.698069,5.367239,-5.7803874,-1.3881198,0.2011342,13.286507978366064,5.94812660477719,jump
23/10/2020, 15:44:18,-10.418335,-2.3064039,4.9481106,-5.7803874,-1.3881198,0.2011342,11.762015155186276,5.94812660477719,jump
23/10/2020, 15:44:18,-10.418335,-2.3064039,4.9481106,-5.7779436,-1.3795677,0.17914306,11.762015155186276,5.943057442420435,jump
23/10/2020, 15:44:18,-8.947793,-2.5914114,4.24158,-5.7779436,-1.3795677,0.17914306,10.235693111217243,5.943057442420435,jump
23/10/2020, 15:44:18,-8.947793,-2.5914114,4.24158,-5.87446,-1.4076675,0.13882597,10.235693111217243,6.042357434806983,jump
23/10/2020, 15:44:18,-7.7215433,-2.7638526,3.4799635,-5.87446,-1.4076675,0.13882597,8.909054862391393,6.042357434806983,jump
23/10/2020, 15:44:18,-7.7215433,-2.7638526,3.4799635,-6.0283985,-1.4760844,0.07773948,8.909054862391393,6.206968429135265,jump
23/10/2020, 15:44:18,-6.5072684,-3.1111305,2.7542725,-6.0283985,-1.4760844,0.07773948,7.720731314600413,6.206968429135265,jump
23/10/2020, 15:44:18,-6.5072684,-3.1111305,2.7542725,-6.165232,-1.5652707,-0.046876986,7.720731314600413,6.361002873011982,jump
23/10/2020, 15:44:18,-5.2283278,-3.7314405,2.0621119,-6.165232,-1.5652707,-0.046876986,6.746211152091271,6.361002873011982,jump
23/10/2020, 15:44:18,-5.2283278,-3.7314405,2.0621119,-6.1469064,-1.6434613,-0.23502342,6.746211152091271,6.3671547178934595,jump
23/10/2020, 15:44:18,-3.9637575,-4.4475513,1.5950831,-6.1469064,-1.6434613,-0.23502342,6.167363773484216,6.3671547178934595,jump
23/10/2020, 15:44:18,-3.9637575,-4.4475513,1.5950831,-5.87446,-1.6715611,-0.43172196,6.167363773484216,6.122890111017636,jump
23/10/2020, 15:44:18,-2.5842261,-5.1564775,1.477727,-5.87446,-1.6715611,-0.43172196,5.954087810499123,6.122890111017636,jump
23/10/2020, 15:44:18,-2.5842261,-5.1564775,1.477727,-5.3405643,-1.6263572,-0.59421206,5.954087810499123,5.614245471988746,jump
23/10/2020, 15:44:18,-1.336421,-5.5229154,1.5974782,-5.3405643,-1.6263572,-0.59421206,5.902588557397289,5.614245471988746,jump
23/10/2020, 15:44:18,-1.336421,-5.5229154,1.5974782,-4.591644,-1.5017407,-0.7237154,5.902588557397289,4.88489324430726,jump
23/10/2020, 15:44:18,-0.23471193,-5.48699,1.8130299,-4.591644,-1.5017407,-0.7237154,5.783530586121434,4.88489324430726,jump
23/10/2020, 15:44:18,-0.23471193,-5.48699,1.8130299,-3.6863418,-1.319703,-0.8385581,5.783530586121434,4.004236656744018,jump
23/10/2020, 15:44:18,0.53169435,-5.2043777,1.8058448,-3.6863418,-1.319703,-0.8385581,5.53437629766836,4.004236656744018,jump
23/10/2020, 15:44:18,0.53169435,-5.2043777,1.8058448,-2.7419443,-1.1193392,-0.9436268,5.53437629766836,3.108313127705575,jump
23/10/2020, 15:44:18,0.91250247,-4.775669,1.6789087,-2.7419443,-1.1193392,-0.9436268,5.1437739577268715,3.108313127705575,jump
23/10/2020, 15:44:18,0.91250247,-4.775669,1.6789087,-1.8537468,-0.9421884,-1.0279262,5.1437739577268715,2.3196396978093454,jump
23/10/2020, 15:44:18,1.0035132,-4.3062453,1.5328126,-1.8537468,-0.9421884,-1.0279262,4.679775854186697,2.3196396978093454,jump
23/10/2020, 15:44:18,1.0035132,-4.3062453,1.5328126,-1.060844,-0.8102415,-1.0816823,4.679775854186697,1.7181146198712367,jump
23/10/2020, 15:44:18,0.9484278,-3.9422023,1.331631,-1.060844,-0.8102415,-1.0816823,4.267752976324831,1.7181146198712367,jump
23/10/2020, 15:44:19,1.4753321,-4.3397756,0.4766089,-3.4652085,-1.179204,0.23534264,4.608406764026874,3.6679119890247818,jump
23/10/2020, 15:44:19,2.1124072,-4.423601,0.91010743,-3.4652085,-1.179204,0.23534264,4.985860697023071,3.6679119890247818,jump
23/10/2020, 15:44:19,2.1124072,-4.423601,0.91010743,-2.7969222,-0.8786584,0.11316965,4.985860697023071,2.9338748795403764,jump
23/10/2020, 15:44:19,1.9184108,-4.378096,1.3172607,-2.7969222,-0.8786584,0.11316965,4.958144942333259,2.9338748795403764,jump
23/10/2020, 15:44:19,1.9184108,-4.378096,1.3172607,-2.0773232,-0.6379776,0.030092005,4.958144942333259,2.173290734633668,jump
23/10/2020, 15:44:19,1.2094849,-4.038003,1.3867164,-2.0773232,-0.6379776,0.030092005,4.4374884850534135,2.173290734633668,jump
23/10/2020, 15:44:19,1.2094849,-4.038003,1.3867164,-1.3907111,-0.52680016,-0.021220656,4.4374884850534135,1.4872948591199608,jump
23/10/2020, 15:44:19,0.56522465,-3.542234,1.1687696,-1.3907111,-0.52680016,-0.021220656,3.772654581191787,1.4872948591199608,jump
23/10/2020, 15:44:19,0.56522465,-3.542234,1.1687696,-0.82505006,-0.5304653,-0.048098717,3.772654581191787,0.9820460890869251,jump
23/10/2020, 15:44:19,0.31374758,-3.06323,0.80233157,-0.82505006,-0.5304653,-0.048098717,3.1820672139165214,0.9820460890869251,jump
23/10/2020, 15:44:19,0.31374758,-3.06323,0.80233157,-0.4047749,-0.5866649,-0.04932045,3.1820672139165214,0.7144585028625855,jump
23/10/2020, 15:44:19,0.50534916,-2.6129665,0.46463382,-0.4047749,-0.5866649,-0.04932045,2.7016395924824406,0.7144585028625855,jump
23/10/2020, 15:44:19,0.50534916,-2.6129665,0.46463382,-0.0944555,-0.62820375,-0.030994497,2.7016395924824406,0.636020795237934,jump
23/10/2020, 15:44:19,0.9316626,-2.2106032,0.22752686,-0.0944555,-0.62820375,-0.030994497,2.4096743305428676,0.636020795237934,jump
23/10/2020, 15:44:19,0.9316626,-2.2106032,0.22752686,0.12667763,-0.62820375,-0.0028947059,2.4096743305428676,0.6408553291796267,jump
23/10/2020, 15:44:19,1.3962965,-1.8776954,-0.043110352,0.12667763,-0.62820375,-0.0028947059,2.3403509548093955,0.6408553291796267,jump
23/10/2020, 15:44:19,1.3962965,-1.8776954,-0.043110352,0.27206352,-0.59155184,0.034978926,2.3403509548093955,0.6520549561820179,jump
23/10/2020, 15:44:19,1.7292042,-1.6286134,-0.22273682,0.27206352,-0.59155184,0.034978926,2.385820662329114,0.6520549561820179,jump
23/10/2020, 15:44:19,1.7292042,-1.6286134,-0.22273682,0.36369327,-0.54146093,0.076517746,2.385820662329114,0.6567402059374673,jump
23/10/2020, 15:44:19,1.8441651,-1.5280225,-0.28261232,0.36369327,-0.54146093,0.076517746,2.4115694967920307,0.6567402059374673,jump
23/10/2020, 15:44:19,1.8441651,-1.5280225,-0.28261232,0.40889728,-0.49747863,0.11439138,2.4115694967920307,0.6540392688256474,jump
23/10/2020, 15:44:19,1.7579445,-1.5136524,-0.34009278,0.40889728,-0.49747863,0.11439138,2.3446056298620297,0.6540392688256474,jump
23/10/2020, 15:44:19,1.7579445,-1.5136524,-0.34009278,0.41256246,-0.47548747,0.14737809,2.3446056298620297,0.6465418922417053,jump
23/10/2020, 15:44:19,1.5112574,-1.5687379,-0.43589357,0.41256246,-0.47548747,0.14737809,2.2214501226223633,0.6465418922417053,jump
23/10/2020, 15:44:19,1.5112574,-1.5687379,-0.43589357,0.3856844,-0.46937883,0.18036479,2.2214501226223633,0.6337194953068506,jump
23/10/2020, 15:44:19,1.1591895,-1.6693287,-0.43349856,0.3856844,-0.46937883,0.18036479,2.0780518489453956,0.6337194953068506,jump
23/10/2020, 15:44:19,1.1591895,-1.6693287,-0.43349856,0.3453673,-0.4840396,0.2170167,2.0780518489453956,0.6329843332386328,jump
23/10/2020, 15:44:19,0.76880133,-1.6477735,-0.366438,0.3453673,-0.4840396,0.2170167,1.8548557403595938,0.6329843332386328,jump
23/10/2020, 15:44:19,0.76880133,-1.6477735,-0.366438,0.30505022,-0.51091766,0.24755993,1.8548557403595938,0.6444985799052544,jump
23/10/2020, 15:44:19,0.5508545,-1.587898,-0.36164796,0.30505022,-0.51091766,0.24755993,1.7192004081426537,0.6444985799052544,jump
23/10/2020, 15:44:20,-8.672366,-4.033213,1.951941,-3.5116343,-1.9049116,-0.6821766,9.761496629431525,4.052854432705279,jump
23/10/2020, 15:44:20,-6.109695,-3.66438,1.9926564,-3.5116343,-1.9049116,-0.6821766,7.39775189700881,4.052854432705279,jump
23/10/2020, 15:44:20,-6.109695,-3.66438,1.9926564,-3.5812728,-1.9611112,-0.7848019,7.39775189700881,4.157810273737385,jump
23/10/2020, 15:44:20,-3.4847536,-3.171006,1.9447559,-3.5812728,-1.9611112,-0.7848019,5.097142542194927,4.157810273737385,jump
23/10/2020, 15:44:20,-3.4847536,-3.171006,1.9447559,-3.5238516,-1.9378983,-0.9045315,5.097142542194927,4.122033147002001,jump
23/10/2020, 15:44:20,-1.0657837,-2.787803,1.7531544,-3.5238516,-1.9378983,-0.9045315,3.461400080991958,4.122033147002001,jump
23/10/2020, 15:44:20,-1.0657837,-2.787803,1.7531544,-3.354031,-1.8242774,-1.0230393,3.461400080991958,3.952736021354019,jump
23/10/2020, 15:44:20,0.85741705,-2.5459058,1.5232325,-3.354031,-1.8242774,-1.0230393,3.088209450030775,3.952736021354019,jump
23/10/2020, 15:44:20,0.85741705,-2.5459058,1.5232325,-3.1109068,-1.6031443,-1.069465,3.088209450030775,3.65944919979187,jump
23/10/2020, 15:44:20,1.8657203,-2.3495142,1.3172607,-3.1109068,-1.6031443,-1.069465,3.2766301574323706,3.65944919979187,jump
23/10/2020, 15:44:20,1.8657203,-2.3495142,1.3172607,-2.811583,-1.3111508,-1.0218176,3.2766301574323706,3.2662251500968233,jump
23/10/2020, 15:44:20,2.064507,-2.315984,1.1424243,-2.811583,-1.3111508,-1.0218176,3.306222089683728,3.2662251500968233,jump
23/10/2020, 15:44:20,2.064507,-2.315984,1.1424243,-2.5073721,-1.0154922,-0.9216357,3.306222089683728,2.8578928956615375,jump
23/10/2020, 15:44:20,1.4178516,-2.3686745,0.7568262,-2.5073721,-1.0154922,-0.9216357,2.8624653645039655,2.8578928956615375,jump
23/10/2020, 15:44:20,1.4178516,-2.3686745,0.7568262,-2.219044,-0.8016894,-0.81778866,2.8624653645039655,2.4971264098505213,jump
23/10/2020, 15:44:20,0.51971924,-2.562671,0.54366946,-2.219044,-0.8016894,-0.81778866,2.6707614932492647,2.4971264098505213,jump
23/10/2020, 15:44:20,0.51971924,-2.562671,0.54366946,-1.9356027,-0.72594213,-0.7383762,2.6707614932492647,2.195164930644939,jump
23/10/2020, 15:44:20,-0.14130616,-2.668052,0.3161426,-1.9356027,-0.72594213,-0.7383762,2.69043022933304,2.195164930644939,jump
23/10/2020, 15:44:20,-0.14130616,-2.668052,0.3161426,-1.6338354,-0.78091997,-0.657742,2.69043022933304,1.9266236778172514,jump
23/10/2020, 15:44:20,-0.19160157,-2.6105714,0.117355965,-1.6338354,-0.78091997,-0.657742,2.6202226125015313,1.9266236778172514,jump
23/10/2020, 15:44:20,-0.19160157,-2.6105714,0.117355965,-1.3442854,-0.889654,-0.5758861,2.6202226125015313,1.7117920799506599,jump
23/10/2020, 15:44:20,0.62749517,-2.4501052,-0.13891114,-1.3442854,-0.889654,-0.5758861,2.5329946579055718,1.7117920799506599,jump
23/10/2020, 15:44:20,0.62749517,-2.4501052,-0.13891114,-1.0999393,-0.9592926,-0.50991267,2.5329946579055718,1.546001219489102,jump
23/10/2020, 15:44:20,1.7675245,-2.3375392,-0.3281177,-1.0999393,-0.9592926,-0.50991267,2.9488800428678497,1.546001219489102,jump
23/10/2020, 15:44:20,1.7675245,-2.3375392,-0.3281177,-0.87025404,-0.94585353,-0.45493484,2.9488800428678497,1.3634319568665525,jump
23/10/2020, 15:44:20,2.7159522,-2.2656887,-0.43589357,-0.87025404,-0.94585353,-0.45493484,3.563670077136972,1.3634319568665525,jump
23/10/2020, 15:44:20,2.7159522,-2.2656887,-0.43589357,-0.6491209,-0.8505586,-0.39873526,3.563670077136972,1.141839602361959,jump
23/10/2020, 15:44:20,3.293152,-2.311194,-0.5340894,-0.6491209,-0.8505586,-0.39873526,4.058536636335374,1.141839602361959,jump
23/10/2020, 15:44:20,3.293152,-2.311194,-0.5340894,-0.43898335,-0.70639443,-0.34620085,4.058536636335374,0.900863202613652,jump
23/10/2020, 15:44:20,3.3338673,-2.3902297,-0.5987549,-0.43898335,-0.70639443,-0.34620085,4.1456455092704525,0.900863202613652,jump
23/10/2020, 15:44:21,-12.372671,-2.3806496,0.94603276,-2.0052412,-1.0374833,-0.12140252,12.63508849085631,2.260995871908064,jump
23/10/2020, 15:44:21,-9.508228,-1.949546,0.91729254,-2.0052412,-1.0374833,-0.12140252,9.749285130946841,2.260995871908064,jump
23/10/2020, 15:44:21,-9.508228,-1.949546,0.91729254,-2.4084122,-1.1230044,-0.24357553,9.749285130946841,2.668504715119637,jump
23/10/2020, 15:44:21,-6.6461797,-1.5112574,0.6490503,-2.4084122,-1.1230044,-0.24357553,6.846668498747817,2.668504715119637,jump
23/10/2020, 15:44:21,-6.6461797,-1.5112574,0.6490503,-2.8091395,-1.174317,-0.29855338,6.846668498747817,3.059316789093209,jump
23/10/2020, 15:44:21,-3.8368216,-1.2094849,0.38320315,-2.8091395,-1.174317,-0.29855338,4.041150592850248,3.059316789093209,jump
23/10/2020, 15:44:21,-3.8368216,-1.2094849,0.38320315,-3.151224,-1.1938647,-0.29733166,4.041150592850248,3.382887982335511,jump
23/10/2020, 15:44:21,-1.0035132,-1.0825489,0.21315674,-3.151224,-1.1938647,-0.29733166,1.491437763276356,3.382887982335511,jump
23/10/2020, 15:44:21,-1.0035132,-1.0825489,0.21315674,-3.3967917,-1.1498824,-0.291223,1.491437763276356,3.597948620470641,jump
23/10/2020, 15:44:21,1.4274317,-1.3579761,0.3520679,-3.3967917,-1.1498824,-0.291223,2.001402531810199,3.597948620470641,jump
23/10/2020, 15:44:21,1.4274317,-1.3579761,0.3520679,-3.544621,-0.98372716,-0.2948882,2.001402531810199,3.690395119398014,jump
23/10/2020, 15:44:21,3.04886,-2.0573218,0.28979737,-3.544621,-0.98372716,-0.2948882,3.6894583875143097,3.690395119398014,jump
23/10/2020, 15:44:21,3.04886,-2.0573218,0.28979737,-3.567834,-0.7161683,-0.27656224,3.6894583875143097,3.6494961881684627,jump
23/10/2020, 15:44:21,3.4464333,-3.0225148,0.22273682,-3.567834,-0.7161683,-0.27656224,4.589456401348116,3.6494961881684627,jump
23/10/2020, 15:44:21,3.4464333,-3.0225148,0.22273682,-3.4444392,-0.4034054,-0.2057019,4.589456401348116,3.474076913753496,jump
23/10/2020, 15:44:21,2.7614577,-3.999683,0.14130616,-3.4444392,-0.4034054,-0.2057019,4.862414964380392,3.474076913753496,jump
23/10/2020, 15:44:21,2.7614577,-3.999683,0.14130616,-3.1658847,-0.13706826,-0.11162868,4.862414964380392,3.1708161115759683,jump
23/10/2020, 15:44:21,1.3891114,-4.8307548,0.0,-3.1658847,-0.13706826,-0.11162868,5.026511912073496,3.1708161115759683,jump
23/10/2020, 15:44:21,1.3891114,-4.8307548,0.0,-2.7492747,9.872383E-4,-0.054207366,5.026511912073496,2.749809258463632,jump
23/10/2020, 15:44:21,0.21076173,-5.52052,-0.06945557,-2.7492747,9.872383E-4,-0.054207366,5.524978549593711,2.749809258463632,jump
23/10/2020, 15:44:21,0.21076173,-5.52052,-0.06945557,-2.2569175,-0.002677952,-0.05665083,5.524978549593711,2.257629948470468,jump
23/10/2020, 15:44:21,-0.4382886,-5.9156985,-0.15088624,-2.2569175,-0.002677952,-0.05665083,5.933831193297333,2.257629948470468,jump
23/10/2020, 15:44:21,-0.4382886,-5.9156985,-0.15088624,-1.7327955,-0.06742964,-0.11162868,5.933831193297333,1.7376961424820674,jump
23/10/2020, 15:44:21,-0.4382886,-6.119275,-0.043110352,-1.7327955,-0.06742964,-0.11162868,6.135102530802363,1.7376961424820674,jump
23/10/2020, 15:44:21,-0.4382886,-6.119275,-0.043110352,-1.1842388,-0.11141192,-0.1934846,6.135102530802363,1.205101831227776,jump
23/10/2020, 15:44:21,0.07424561,-5.965994,0.15567628,-1.1842388,-0.11141192,-0.1934846,5.968486450020543,1.205101831227776,jump
23/10/2020, 15:44:21,0.07424561,-5.965994,0.15567628,-0.61857766,-0.10408154,-0.28144917,5.968486450020543,0.6875208522657809,jump
23/10/2020, 15:44:21,0.7711963,-5.7312818,0.31135255,-0.61857766,-0.10408154,-0.28144917,5.791310277924703,0.6875208522657809,jump
23/10/2020, 15:44:21,0.7711963,-5.7312818,0.31135255,-0.056581866,-0.050325423,-0.37185717,5.791310277924703,0.37948900897047233,jump
23/10/2020, 15:44:21,1.3076807,-5.326524,0.51971924,-0.056581866,-0.050325423,-0.37185717,5.509264248568273,0.37948900897047233,jump
23/10/2020, 15:44:22,-25.789572,-9.3381815,4.974456,-1.2086734,-0.49381343,-0.9057532,27.875596068183626,1.589066340978355,jump
23/10/2020, 15:44:22,-25.466244,-9.766891,4.7157936,-1.2086734,-0.49381343,-0.9057532,27.679603146276907,1.589066340978355,jump
23/10/2020, 15:44:22,-25.466244,-9.766891,4.7157936,-1.1756866,-0.889654,-0.902088,27.679603146276907,1.728434527851029,jump
23/10/2020, 15:44:22,-22.546715,-9.980047,5.015171,-1.1756866,-0.889654,-0.902088,25.16163012994926,1.728434527851029,jump
23/10/2020, 15:44:22,-22.546715,-9.980047,5.015171,-0.9679925,-1.1767606,-0.93507475,25.16163012994926,1.7877750513185684,jump
23/10/2020, 15:44:22,-18.599722,-9.841136,5.125342,-0.9679925,-1.1767606,-0.93507475,21.657948701105745,1.7877750513185684,jump
23/10/2020, 15:44:22,-18.599722,-9.841136,5.125342,-0.7260899,-1.3184812,-0.98027873,21.657948701105745,1.7962587835503252,jump
23/10/2020, 15:44:22,-15.038328,-9.043594,5.000801,-0.7260899,-1.3184812,-0.98027873,18.246805874797538,1.7962587835503252,jump
23/10/2020, 15:44:22,-15.038328,-9.043594,5.000801,-0.57215196,-1.3734591,-1.0364783,18.246805874797538,1.813293961968025,jump
23/10/2020, 15:44:22,-11.8002615,-7.8987746,4.509822,-0.57215196,-1.3734591,-1.0364783,14.898835708324649,1.813293961968025,jump
23/10/2020, 15:44:22,-11.8002615,-7.8987746,4.509822,-0.53305656,-1.391785,-1.1720903,14.898835708324649,1.8960512923369282,jump
23/10/2020, 15:44:22,-8.971744,-6.502478,3.8679566,-0.53305656,-1.391785,-1.1720903,11.736076568584382,1.8960512923369282,jump
23/10/2020, 15:44:22,-8.971744,-6.502478,3.8679566,-0.540387,-1.3930067,-1.3358022,11.736076568584382,2.0042088739637274,jump
23/10/2020, 15:44:22,-6.4114676,-5.039121,3.0704153,-0.540387,-1.3930067,-1.3358022,8.71361624160382,2.0042088739637274,jump
23/10/2020, 15:44:22,-6.4114676,-5.039121,3.0704153,-0.60513866,-1.3673505,-1.4750794,8.71361624160382,2.100404571106101,jump
23/10/2020, 15:44:22,-3.9374123,-3.8440065,1.9998415,-0.60513866,-1.3673505,-1.4750794,5.854824285968498,2.100404571106101,jump
23/10/2020, 15:44:22,-3.9374123,-3.8440065,1.9998415,-0.7260899,-1.3038205,-1.6326826,5.854824285968498,2.211968977057501,jump
23/10/2020, 15:44:22,-1.6908839,-2.8620484,1.4489869,-0.7260899,-1.3038205,-1.6326826,3.626289046990149,2.211968977057501,jump
23/10/2020, 15:44:22,-1.6908839,-2.8620484,1.4489869,-0.77129394,-1.1889778,-1.7572991,3.626289046990149,2.257578933986666,jump
23/10/2020, 15:44:22,0.047900394,-2.0046315,1.5016773,-0.77129394,-1.1889778,-1.7572991,2.5051699769300293,2.257578933986666,jump
23/10/2020, 15:44:22,0.047900394,-2.0046315,1.5016773,-0.6955467,-1.0313747,-1.7988379,2.5051699769300293,2.187084072813967,jump
23/10/2020, 15:44:22,1.3939015,-1.5256275,1.5064673,-0.6955467,-1.0313747,-1.7988379,2.5573315006604194,2.187084072813967,jump
23/10/2020, 15:44:22,1.3939015,-1.5256275,1.5064673,-0.55260426,-0.8371196,-1.7585207,2.5573315006604194,2.0244840792586363,jump
23/10/2020, 15:44:22,2.193838,-1.1903248,1.3939015,-0.55260426,-0.8371196,-1.7585207,2.858803777614344,2.0244840792586363,jump
23/10/2020, 15:44:22,2.193838,-1.1903248,1.3939015,-0.36445782,-0.64408624,-1.648565,2.858803777614344,1.8070537688202222,jump
23/10/2020, 15:44:22,2.6417067,-1.0418335,1.1304493,-0.36445782,-0.64408624,-1.648565,3.056459881572489,1.8070537688202222,jump
23/10/2020, 15:44:22,2.6417067,-1.0418335,1.1304493,-0.1640941,-0.47670922,-1.512953,3.056459881572489,1.5947430711882906,jump
23/10/2020, 15:44:22,2.8644435,-1.0681788,0.728086,-0.1640941,-0.47670922,-1.512953,3.142634548236488,1.5947430711882906,jump
23/10/2020, 15:44:22,2.8644435,-1.0681788,0.728086,0.016721934,-0.3337668,-1.3932235,3.142634548236488,1.4327427124582166,jump
23/10/2020, 15:44:22,3.027305,-0.84065187,0.45026368,0.016721934,-0.3337668,-1.3932235,3.1739577549695874,1.4327427124582166,jump
23/10/2020, 15:44:23,-5.7719975,-2.1315675,0.9029224,-1.3809372,-1.4333239,-0.721272,6.218906925111028,2.1169879962057383,jump
23/10/2020, 15:44:23,-1.839375,-0.58677983,1.5495777,-1.3809372,-1.4333239,-0.721272,2.4756417595615368,2.1169879962057383,jump
23/10/2020, 15:44:23,-1.839375,-0.58677983,1.5495777,-1.2673163,-1.3368071,-0.61131626,2.4756417595615368,1.9408378579773482,jump
23/10/2020, 15:44:23,1.9279908,0.63707525,2.2968237,-1.2673163,-1.3368071,-0.61131626,3.0656830663620758,1.9408378579773482,jump
23/10/2020, 15:44:23,1.9279908,0.63707525,2.2968237,-1.1646911,-1.2036386,-0.47570422,3.0656830663620758,1.7411334273816712,jump
23/10/2020, 15:44:23,5.5564456,1.5471827,2.3590944,-1.1646911,-1.2036386,-0.47570422,6.231628056375328,1.7411334273816712,jump
23/10/2020, 15:44:23,5.5564456,1.5471827,2.3590944,-1.174465,-0.980062,-0.34131393,6.231628056375328,1.5672857540122336,jump
23/10/2020, 15:44:23,8.205338,1.8705103,2.2585034,-1.174465,-0.980062,-0.34131393,8.713622128354654,1.5672857540122336,jump
23/10/2020, 15:44:23,8.205338,1.8705103,2.2585034,-1.2929727,-0.6672991,-0.18493249,8.713622128354654,1.4667196267036169,jump
23/10/2020, 15:44:23,9.072334,1.4920973,1.8729054,-1.2929727,-0.6672991,-0.18493249,9.383036727453655,1.4667196267036169,jump
23/10/2020, 15:44:23,9.072334,1.4920973,1.8729054,-1.4114805,-0.28367588,0.022761624,9.383036727453655,1.43988451888803,jump
23/10/2020, 15:44:23,7.6353226,0.9580079,1.5567628,-1.4114805,-0.28367588,0.022761624,7.851078926101311,1.43988451888803,jump
23/10/2020, 15:44:23,7.6353226,0.9580079,1.5567628,-1.395598,0.03519568,0.27565974,7.851078926101311,1.4229971736315659,jump
23/10/2020, 15:44:23,4.926555,0.4622388,1.214275,-1.395598,0.03519568,0.27565974,5.095004827418847,1.4229971736315659,jump
23/10/2020, 15:44:23,4.926555,0.4622388,1.214275,-1.2404383,0.15981214,0.50045806,5.095004827418847,1.3471026209390853,jump
23/10/2020, 15:44:23,2.6153615,0.17483643,0.7568262,-1.2404383,0.15981214,0.50045806,2.728272206280325,1.3471026209390853,jump
23/10/2020, 15:44:23,2.6153615,0.17483643,0.7568262,-1.042518,0.090173535,0.62996143,2.728272206280325,1.2214034928530921,jump
23/10/2020, 15:44:23,1.3531861,-0.023950197,0.34488282,-1.042518,0.090173535,0.62996143,1.396649731533731,1.2214034928530921,jump
23/10/2020, 15:44:23,1.3531861,-0.023950197,0.34488282,-0.84093255,-0.04177331,0.6800524,1.396649731533731,1.0823048674894238,jump
23/10/2020, 15:44:23,1.094524,-0.28500733,0.15088624,-0.84093255,-0.04177331,0.6800524,1.1410428024005281,1.0823048674894238,jump
23/10/2020, 15:44:23,1.094524,-0.28500733,0.15088624,-0.6161342,-0.10285981,0.69960004,1.1410428024005281,0.9378921806917468,jump
23/10/2020, 15:44:23,1.1400293,-0.728086,0.21794678,-0.6161342,-0.10285981,0.69960004,1.3701375281885861,0.9378921806917468,jump
23/10/2020, 15:44:23,1.1400293,-0.728086,0.21794678,-0.35834917,-0.07598175,0.71670425,1.3701375281885861,0.8048927495472247,jump
23/10/2020, 15:44:23,1.1448194,-1.1687696,0.41194338,-0.35834917,-0.07598175,0.71670425,1.6871073257223983,0.8048927495472247,jump
23/10/2020, 15:44:23,1.1448194,-1.1687696,0.41194338,-0.06391225,-0.0038996818,0.7264781,1.6871073257223983,0.7292944623086008,jump
23/10/2020, 15:44:23,0.8167017,-1.5040723,0.72569096,-0.06391225,-0.0038996818,0.7264781,1.8589950412816638,0.7292944623086008,jump
23/10/2020, 15:44:23,0.8167017,-1.5040723,0.72569096,0.24029854,0.058408547,0.7338085,1.8589950412816638,0.774357725288545,jump
23/10/2020, 15:44:23,0.20597169,-1.7028589,1.0083033,0.24029854,0.058408547,0.7338085,1.9896804688420995,0.774357725288545,jump
23/10/2020, 15:44:23,0.20597169,-1.7028589,1.0083033,0.49441838,0.08039969,0.7448041,1.9896804688420995,0.8975782815841247,jump
23/10/2020, 15:44:23,-0.52690434,-1.6070582,1.0681788,0.49441838,0.08039969,0.7448041,2.0003174830104764,0.8975782815841247,jump
23/10/2020, 15:44:24,-24.912994,-3.300337,2.926714,-1.3418419,-0.0820904,-0.37063545,25.300497397062923,1.3945068131845342,jump
23/10/2020, 15:44:24,-26.570349,-3.908672,2.3327491,-1.3418419,-0.0820904,-0.37063545,26.957426957744516,1.3945068131845342,jump
23/10/2020, 15:44:24,-26.570349,-3.908672,2.3327491,-1.5837444,-0.3007801,-0.3730789,26.957426957744516,1.6546609567721333,jump
23/10/2020, 15:44:24,-26.596693,-3.9948928,2.3016138,-1.5837444,-0.3007801,-0.3730789,26.993345022345448,1.6546609567721333,jump
23/10/2020, 15:44:24,-26.596693,-3.9948928,2.3016138,-1.8268688,-0.6514166,-0.2753405,26.993345022345448,1.9589807267941197,jump
23/10/2020, 15:44:24,-24.481892,-3.5997145,2.8452833,-1.8268688,-0.6514166,-0.2753405,24.90816330801925,1.9589807267941197,jump
23/10/2020, 15:44:24,-24.481892,-3.5997145,2.8452833,-2.0687711,-0.9641795,-0.2057019,24.90816330801925,2.291673924118243,jump
23/10/2020, 15:44:24,-20.934866,-3.3242872,3.6021094,-2.0687711,-0.9641795,-0.2057019,21.50103927720605,2.291673924118243,jump
23/10/2020, 15:44:24,-20.934866,-3.3242872,3.6021094,-2.3338866,-1.1168958,-0.22524957,21.50103927720605,2.5971562058914937,jump
23/10/2020, 15:44:24,-17.517174,-3.2596216,3.642825,-2.3338866,-1.1168958,-0.22524957,18.186442287029568,2.5971562058914937,jump
23/10/2020, 15:44:24,-17.517174,-3.2596216,3.642825,-2.6148844,-1.142552,-0.26923186,18.186442287029568,2.8662747964960054,jump
23/10/2020, 15:44:24,-14.782062,-3.551814,3.3985329,-2.6148844,-1.142552,-0.26923186,15.578021484335032,2.8662747964960054,jump
23/10/2020, 15:44:24,-14.782062,-3.551814,3.3985329,-2.8531218,-1.1535476,-0.32420972,15.578021484335032,3.0945254683124106,jump
23/10/2020, 15:44:24,-12.389437,-3.9517825,2.794988,-2.8531218,-1.1535476,-0.32420972,13.30137904090919,3.0945254683124106,jump
23/10/2020, 15:44:24,-12.389437,-3.9517825,2.794988,-3.029051,-1.2231863,-0.3962918,13.30137904090919,3.2906507190815666,jump
23/10/2020, 15:44:24,-10.279425,-4.3373804,2.543511,-3.029051,-1.2231863,-0.3962918,11.443290089621511,3.2906507190815666,jump
23/10/2020, 15:44:24,-10.279425,-4.3373804,2.543511,-3.1573327,-1.3270333,-0.44516098,11.443290089621511,3.453684286443778,jump
23/10/2020, 15:44:24,-8.111932,-4.521797,2.3327491,-3.1573327,-1.3270333,-0.44516098,9.575583834729914,3.453684286443778,jump
23/10/2020, 15:44:24,-8.111932,-4.521797,2.3327491,-3.2404103,-1.4113327,-0.46348694,9.575583834729914,3.5646794107335356,jump
23/10/2020, 15:44:24,-5.7624173,-4.375701,2.320774,-3.2404103,-1.4113327,-0.46348694,7.598565947656151,3.5646794107335356,jump
23/10/2020, 15:44:24,-5.7624173,-4.375701,2.320774,-3.2465189,-1.4357673,-0.48547807,7.598565947656151,3.5828761246822616,jump
23/10/2020, 15:44:24,-3.3865578,-3.906277,2.1339624,-3.2465189,-1.4357673,-0.48547807,5.592992838099803,3.5828761246822616,jump
23/10/2020, 15:44:24,-3.3865578,-3.906277,2.1339624,-3.1561108,-1.4015589,-0.5135779,5.592992838099803,3.4912984220850816,jump
23/10/2020, 15:44:24,-1.2382251,-3.3626075,1.7699195,-3.1561108,-1.4015589,-0.5135779,3.996616763101455,3.4912984220850816,jump
23/10/2020, 15:44:24,-1.2382251,-3.3626075,1.7699195,-2.9997294,-1.3111508,-0.52457345,3.996616763101455,3.3155195873977052,jump
23/10/2020, 15:44:24,0.46702883,-3.0033545,1.3507911,-2.9997294,-1.3111508,-0.52457345,3.3260924612971836,3.3155195873977052,jump
23/10/2020, 15:44:24,0.46702883,-3.0033545,1.3507911,-2.803031,-1.1449956,-0.49525192,3.3260924612971836,3.068105592987321,jump
23/10/2020, 15:44:24,1.575923,-2.7255323,1.1088941,-2.803031,-1.1449956,-0.49525192,3.3379193554204507,3.068105592987321,jump
23/10/2020, 15:44:24,1.575923,-2.7255323,1.1088941,-2.5782325,-0.91408855,-0.4378306,3.3379193554204507,2.770295375249759,jump
23/10/2020, 15:44:24,1.9279908,-2.6177564,0.93405765,-2.5782325,-0.91408855,-0.4378306,3.3826410683131796,2.770295375249759,jump
23/10/2020, 15:44:25,-6.959927,3.3889527,0.16525635,-2.603889,-0.19448957,0.82299477,7.742925498127559,2.7377699767921277,jump
23/10/2020, 15:44:25,-7.549102,2.5890162,0.39996827,-2.603889,-0.19448957,0.82299477,7.9907395105869865,2.7377699767921277,jump
23/10/2020, 15:44:25,-7.549102,2.5890162,0.39996827,-2.969186,-0.22625454,0.94394606,7.9907395105869865,3.1238263701077975,jump
23/10/2020, 15:44:25,-8.361013,1.8896705,0.4406836,-2.969186,-0.22625454,0.94394606,8.583216290364856,3.1238263701077975,jump
23/10/2020, 15:44:25,-8.361013,1.8896705,0.4406836,-3.2514057,-0.25801954,1.1101013,8.583216290364856,3.44536474135265,jump
23/10/2020, 15:44:25,-9.311836,1.2885206,0.35925296,-3.2514057,-0.25801954,1.1101013,9.407424842665597,3.44536474135265,jump
23/10/2020, 15:44:25,-9.311836,1.2885206,0.35925296,-3.4969735,-0.27145857,1.3544474,9.407424842665597,3.7599256879229133,jump
23/10/2020, 15:44:25,-10.233919,0.852627,0.28740236,-3.4969735,-0.27145857,1.3544474,10.273396416117807,3.7599256879229133,jump
23/10/2020, 15:44:25,-10.233919,0.852627,0.28740236,-3.6729026,-0.2848976,1.5902412,10.273396416117807,4.012511319171913,jump
23/10/2020, 15:44:25,-11.115286,0.48379397,0.33769777,-3.6729026,-0.2848976,1.5902412,11.130933314128741,4.012511319171913,jump
23/10/2020, 15:44:25,-11.115286,0.48379397,0.33769777,-3.7633107,-0.28611934,1.7820529,11.130933314128741,4.173737405597071,jump
23/10/2020, 15:44:25,-12.166699,0.12693603,0.33530274,-3.7633107,-0.28611934,1.7820529,12.171980742878416,4.173737405597071,jump
23/10/2020, 15:44:25,-12.166699,0.12693603,0.33530274,-3.7400978,-0.25557607,1.939656,12.171980742878416,4.220890411455329,jump
23/10/2020, 15:44:25,-13.510305,-0.43110353,0.6322852,-3.7400978,-0.25557607,1.939656,13.531961680579794,4.220890411455329,jump
23/10/2020, 15:44:25,-13.510305,-0.43110353,0.6322852,-3.5519514,-0.2042634,2.066716,13.531961680579794,4.114534868905832,jump
23/10/2020, 15:44:25,-15.114969,-1.1184741,1.2406201,-3.5519514,-0.2042634,2.066716,15.206985836390457,4.114534868905832,jump
23/10/2020, 15:44:25,-15.114969,-1.1184741,1.2406201,-3.2037582,-0.16150285,2.1766717,15.206985836390457,3.8766028825203405,jump
23/10/2020, 15:44:25,-16.870518,-1.7459693,1.7028589,-3.2037582,-0.16150285,2.1766717,17.04589410389281,3.8766028825203405,jump
23/10/2020, 15:44:25,-16.870518,-1.7459693,1.7028589,-2.7859266,-0.16394632,2.2731884,17.04589410389281,3.599395864903245,jump
23/10/2020, 15:44:25,-18.343456,-2.0237916,2.1339624,-2.7859266,-0.16394632,2.2731884,18.577726330356548,3.599395864903245,jump
23/10/2020, 15:44:25,-18.343456,-2.0237916,2.1339624,-2.377869,-0.24824569,2.3269444,18.577726330356548,3.336248851027527,jump
23/10/2020, 15:44:25,-18.968555,-2.1148024,2.3734643,-2.377869,-0.24824569,2.3269444,19.23309174058944,3.336248851027527,jump
23/10/2020, 15:44:25,-18.968555,-2.1148024,2.3734643,-2.0675495,-0.37408388,2.3684833,19.23309174058944,3.1661352958373468,jump
23/10/2020, 15:44:25,-18.86557,-2.0285816,2.5818312,-2.0675495,-0.37408388,2.3684833,19.14917047347726,3.1661352958373468,jump
23/10/2020, 15:44:25,-18.86557,-2.0285816,2.5818312,-1.8769597,-0.43272692,2.428348,19.14917047347726,3.099532957558814,jump
23/10/2020, 15:44:25,-18.329084,-1.9758912,2.5195606,-1.8769597,-0.43272692,2.428348,18.606656509570563,3.099532957558814,jump
23/10/2020, 15:44:25,-18.329084,-1.9758912,2.5195606,-1.7498997,-0.34720582,2.4625564,18.606656509570563,3.0408690919089874,jump
23/10/2020, 15:44:25,-18.372196,-2.1243825,2.4022048,-1.7498997,-0.34720582,2.4625564,18.649964658920233,3.0408690919089874,jump
23/10/2020, 15:44:25,-18.372196,-2.1243825,2.4022048,-1.581301,-0.12851614,2.4491174,18.649964658920233,2.918082472259622,jump
23/10/2020, 15:44:25,-19.660717,-2.7830129,2.208208,-1.581301,-0.12851614,2.4491174,19.97911752123558,2.918082472259622,jump
23/10/2020, 15:44:26,-5.815108,1.9902613,1.3795313,0.8560505,0.1659208,-0.10796349,6.299184518864544,0.8786400106021158,jump
23/10/2020, 15:44:26,-5.815108,1.9902613,1.3795313,0.42722324,0.09261699,-0.070089854,6.299184518864544,0.4427303777583227,jump
23/10/2020, 15:44:26,-5.728887,1.7938697,0.87418216,0.42722324,0.09261699,-0.070089854,6.066490770406793,0.4427303777583227,jump
23/10/2020, 15:44:26,-5.728887,1.7938697,0.87418216,-0.048029754,0.05352163,0.0019922145,6.066490770406793,0.07194019067073489,jump
23/10/2020, 15:44:26,-5.728887,1.7938697,0.87418216,-0.48785257,0.04741298,0.1278304,6.066490770406793,0.5065458868743196,jump
23/10/2020, 15:44:26,-6.0378447,1.4106666,0.61552006,-0.48785257,0.04741298,0.1278304,6.23092395004087,0.5065458868743196,jump
23/10/2020, 15:44:26,-6.8904715,0.7113208,0.55803955,-0.48785257,0.04741298,0.1278304,6.949531089202306,0.5065458868743196,jump
23/10/2020, 15:44:26,-6.8904715,0.7113208,0.55803955,-0.7578549,0.07917796,0.31597683,6.949531089202306,0.8248966741301778,jump
23/10/2020, 15:44:26,-8.3179035,-0.17723145,1.2286451,-0.7578549,0.07917796,0.31597683,8.4100237026714,0.8248966741301778,jump
23/10/2020, 15:44:26,-8.3179035,-0.17723145,1.2286451,-0.73219854,0.10972121,0.53588825,8.4100237026714,0.913963709823066,jump
23/10/2020, 15:44:26,-10.375225,-1.3076807,2.2608986,-0.73219854,0.10972121,0.53588825,10.698924549211954,0.913963709823066,jump
23/10/2020, 15:44:26,-10.375225,-1.3076807,2.2608986,-0.37300995,0.15859042,0.77046037,10.698924549211954,0.8705725253130612,jump
23/10/2020, 15:44:26,-12.945081,-2.2824538,2.7135572,-0.37300995,0.15859042,0.77046037,13.42192623875916,0.8705725253130612,jump
23/10/2020, 15:44:26,-12.945081,-2.2824538,2.7135572,0.1291211,0.27221128,1.012363,13.42192623875916,1.056243341612756,jump
23/10/2020, 15:44:26,-15.354471,-2.5890162,2.7662477,0.1291211,0.27221128,1.012363,15.815021894586026,1.056243341612756,jump
23/10/2020, 15:44:26,-15.354471,-2.5890162,2.7662477,0.5469528,0.40415815,1.1992877,15.815021894586026,1.3786921443455575,jump
23/10/2020, 15:44:26,-17.315992,-1.9591261,2.6057813,0.5469528,0.40415815,1.1992877,17.620211765329447,1.3786921443455575,jump
23/10/2020, 15:44:26,-17.315992,-1.9591261,2.6057813,0.7008908,0.3662845,1.2725915,17.620211765329447,1.4982994580185294,jump
23/10/2020, 15:44:26,-18.95179,-0.5724097,2.5051906,0.7008908,0.3662845,1.2725915,19.125218210357094,1.4982994580185294,jump
23/10/2020, 15:44:26,-18.95179,-0.5724097,2.5051906,0.6190348,0.063295476,1.2493786,19.125218210357094,1.3957640291807933,jump
23/10/2020, 15:44:26,-19.67748,0.8286768,2.663262,0.6190348,0.063295476,1.2493786,19.87417710936146,1.3957640291807933,jump
23/10/2020, 15:44:26,-19.67748,0.8286768,2.663262,0.319711,-0.3545362,1.2273874,19.87417710936146,1.316962772248016,jump
23/10/2020, 15:44:26,-19.167341,1.3795313,3.1422658,0.319711,-0.3545362,1.2273874,19.47213164400558,1.316962772248016,jump
23/10/2020, 15:44:26,-19.167341,1.3795313,3.1422658,-0.12866393,-0.60743433,1.2762567,19.47213164400558,1.4192822090151778,jump
23/10/2020, 15:44:26,-18.285975,1.1232642,3.9733377,-0.12866393,-0.60743433,1.2762567,18.746359594336262,1.4192822090151778,jump
23/10/2020, 15:44:26,-18.285975,1.1232642,3.9733377,-0.55138254,-0.55612165,1.3617778,18.746359594336262,1.5709018819300569,jump
23/10/2020, 15:44:26,-18.614092,0.16286133,4.536167,-0.55138254,-0.55612165,1.3617778,19.15953424386072,1.5709018819300569,jump
23/10/2020, 15:44:26,-18.614092,0.16286133,4.536167,-0.8482629,-0.30322355,1.4106469,19.15953424386072,1.673744066253552,jump
23/10/2020, 15:44:26,-20.314556,-1.1879297,4.533772,-0.8482629,-0.30322355,1.4106469,20.84820030577073,1.673744066253552,jump
23/10/2020, 15:44:26,-20.314556,-1.1879297,4.533772,-1.0351877,-0.07720348,1.3642212,20.84820030577073,1.7142559669016482,jump
23/10/2020, 15:44:27,-8.971744,2.0573218,2.8380983,-0.60513866,-0.20548514,0.8840813,9.632214582121817,1.0908788613966693,jump
23/10/2020, 15:44:27,-9.105865,1.5256275,3.3865578,-0.60513866,-0.20548514,0.8840813,9.834280952147608,1.0908788613966693,jump
23/10/2020, 15:44:27,-9.105865,1.5256275,3.3865578,-0.45975277,-0.2079286,0.95616335,9.834280952147608,1.0811360947988036,jump
23/10/2020, 15:44:27,-9.582474,1.2406201,3.7314405,-0.45975277,-0.2079286,0.95616335,10.357924025589275,1.0811360947988036,jump
23/10/2020, 15:44:27,-9.582474,1.2406201,3.7314405,-0.24595001,-0.14684209,1.089332,10.357924025589275,1.1263650303756336,jump
23/10/2020, 15:44:27,-10.454261,1.3819263,3.7410207,-0.24595001,-0.14684209,1.089332,11.189125320511067,1.1263650303756336,jump
23/10/2020, 15:44:27,-10.454261,1.3819263,3.7410207,-0.030925535,-0.030777743,1.2591524,11.189125320511067,1.2599081140516624,jump
23/10/2020, 15:44:27,-11.673326,1.8465601,3.6021094,-0.030925535,-0.030777743,1.2591524,12.355221801795853,1.2599081140516624,jump
23/10/2020, 15:44:27,-11.673326,1.8465601,3.6021094,0.12545592,0.088951804,1.4179773,12.355221801795853,1.426292861696934,jump
23/10/2020, 15:44:27,-13.428875,2.2417383,3.535049,0.12545592,0.088951804,1.4179773,14.066152451890748,1.426292861696934,jump
23/10/2020, 15:44:27,-13.428875,2.2417383,3.535049,0.20975529,0.18546848,1.5621414,14.066152451890748,1.5870354906475772,jump
23/10/2020, 15:44:27,-15.608343,2.4740553,3.3817677,0.20975529,0.18546848,1.5621414,16.16099247513138,1.5870354906475772,jump
23/10/2020, 15:44:27,-15.608343,2.4740553,3.3817677,0.18287723,0.2233421,1.6659884,16.16099247513138,1.6908114254435125,jump
23/10/2020, 15:44:27,-17.759071,2.7375073,3.0991554,0.18287723,0.2233421,1.6659884,18.23412531565748,1.6908114254435125,jump
23/10/2020, 15:44:27,-17.759071,2.7375073,3.0991554,0.010613285,0.13171235,1.6769841,18.23412531565748,1.6821820237664862,jump
23/10/2020, 15:44:27,-19.4284,3.0225148,2.6321266,0.010613285,0.13171235,1.6769841,19.83750020084311,1.6821820237664862,jump
23/10/2020, 15:44:27,-19.4284,3.0225148,2.6321266,-0.30947998,-0.15295075,1.6330018,19.83750020084311,1.6690915743672992,jump
23/10/2020, 15:44:27,-19.976858,3.2692018,2.2561085,-0.30947998,-0.15295075,1.6330018,20.367929862666106,1.6690915743672992,jump
23/10/2020, 15:44:27,-19.976858,3.2692018,2.2561085,-0.7444159,-0.5829997,1.636667,20.367929862666106,1.890164694089171,jump
23/10/2020, 15:44:27,-18.604513,3.532654,2.1243825,-0.7444159,-0.5829997,1.636667,19.055722390804906,1.890164694089171,jump
23/10/2020, 15:44:27,-18.604513,3.532654,2.1243825,-1.2343297,-0.95074046,1.6892014,19.055722390804906,2.298016197268898,jump
23/10/2020, 15:44:27,-15.955621,3.5805542,2.3998096,-1.2343297,-0.95074046,1.6892014,16.52759174364143,2.298016197268898,jump
23/10/2020, 15:44:27,-15.955621,3.5805542,2.3998096,-1.7340173,-1.0619179,1.7136359,16.52759174364143,2.659141503071881,jump
23/10/2020, 15:44:27,-13.941409,3.2260914,2.6345215,-1.7340173,-1.0619179,1.7136359,14.55030092734146,2.659141503071881,jump
23/10/2020, 15:44:27,-13.941409,3.2260914,2.6345215,-2.1408532,-0.87743664,1.7441792,14.55030092734146,2.8974658904509334,jump
23/10/2020, 15:44:27,-13.941409,2.3710694,2.675237,-2.1408532,-0.87743664,1.7441792,14.392419912446172,2.8974658904509334,jump
23/10/2020, 15:44:27,-13.941409,2.3710694,2.675237,-2.394973,-0.47548747,1.8382524,14.392419912446172,3.05633050797758,jump
23/10/2020, 15:44:27,-16.43702,1.2334352,2.4884255,-2.394973,-0.47548747,1.8382524,16.670009860996288,3.05633050797758,jump
23/10/2020, 15:44:27,-16.43702,1.2334352,2.4884255,-2.500042,-0.09064251,1.8724608,16.670009860996288,3.124825671998952,jump
23/10/2020, 15:44:27,-20.585194,0.44786867,1.8824854,-2.500042,-0.09064251,1.8724608,20.675940959074904,3.124825671998952,jump
23/10/2020, 15:44:28,-5.4271145,0.2562671,2.327959,-0.028482076,0.11949506,0.09484369,5.910891461249651,0.15519543582828393,jump
23/10/2020, 15:44:28,-5.4438796,-0.67539555,2.318379,-0.028482076,0.11949506,0.09484369,5.9554063786320395,0.15519543582828393,jump
23/10/2020, 15:44:28,-5.4438796,-0.67539555,2.318379,-0.09079031,0.21479,0.2219036,5.9554063786320395,0.3218987975591996,jump
23/10/2020, 15:44:28,-5.910908,-1.1711646,2.5004005,-0.09079031,0.21479,0.2219036,6.52399152993275,0.3218987975591996,jump
23/10/2020, 15:44:28,-5.910908,-1.1711646,2.5004005,-0.039477646,0.3259674,0.37706333,6.52399152993275,0.4999899889876457,jump
23/10/2020, 15:44:28,-6.7946706,-1.1927198,2.6417067,-0.039477646,0.3259674,0.37706333,7.387065939424335,0.4999899889876457,jump
23/10/2020, 15:44:28,-6.7946706,-1.1927198,2.6417067,0.061925948,0.40537986,0.5346665,7.387065939424335,0.6738218596591139,jump
23/10/2020, 15:44:28,-7.793394,-1.0849439,2.435735,0.061925948,0.40537986,0.5346665,8.236922944664054,0.6738218596591139,jump
23/10/2020, 15:44:28,-7.793394,-1.0849439,2.435735,0.13156456,0.42859274,0.6653916,8.236922944664054,0.802338447362398,jump
23/10/2020, 15:44:28,-8.823253,-0.96040285,2.1579127,0.13156456,0.42859274,0.6653916,9.133933917046772,0.802338447362398,jump
23/10/2020, 15:44:28,-8.823253,-0.96040285,2.1579127,0.13400802,0.4102668,0.76801693,9.133933917046772,0.8809807020290541,jump
23/10/2020, 15:44:28,-9.862691,-0.9244776,1.9136207,0.13400802,0.4102668,0.76801693,10.089067117816555,0.8809807020290541,jump
23/10/2020, 15:44:28,-9.862691,-0.9244776,1.9136207,0.11934725,0.35284546,0.8462077,10.089067117816555,0.9245599602837797,jump
23/10/2020, 15:44:28,-10.595567,-0.9915381,1.7292042,0.11934725,0.35284546,0.8462077,10.781434489518762,0.9245599602837797,jump
23/10/2020, 15:44:28,-10.595567,-0.9915381,1.7292042,0.101021305,0.26610264,0.89385515,10.781434489518762,0.9380793981559007,jump
23/10/2020, 15:44:28,-11.194322,-1.1280543,1.6597486,0.101021305,0.26610264,0.89385515,11.372779277238468,0.9380793981559007,jump
23/10/2020, 15:44:28,-11.194322,-1.1280543,1.6597486,0.07903016,0.15981214,0.9353939,11.372779277238468,0.9522328965934154,jump
23/10/2020, 15:44:28,-11.55597,-1.2070899,1.7555494,0.07903016,0.15981214,0.9353939,11.750721974012416,0.9522328965934154,jump
23/10/2020, 15:44:28,-11.55597,-1.2070899,1.7555494,0.041156538,0.07062586,0.98915005,11.750721974012416,0.9925218830299222,jump
23/10/2020, 15:44:28,-11.711646,-1.343606,1.9902613,0.041156538,0.07062586,0.98915005,11.955294688171284,0.9925218830299222,jump
23/10/2020, 15:44:28,-11.711646,-1.343606,1.9902613,-0.001604015,0.026643569,1.057567,11.955294688171284,1.0579037824521391,jump
23/10/2020, 15:44:28,-12.135565,-1.710044,2.6776319,-0.001604015,0.026643569,1.057567,12.544556430462809,1.0579037824521391,jump
23/10/2020, 15:44:28,-12.135565,-1.710044,2.6776319,0.032604426,0.084064886,1.161414,12.544556430462809,1.1649087931111386,jump
23/10/2020, 15:44:28,-13.342654,-1.9902613,3.5542092,0.032604426,0.084064886,1.161414,13.95062597978751,1.1649087931111386,jump
23/10/2020, 15:44:28,-13.342654,-1.9902613,3.5542092,0.2916112,0.22456384,1.3263476,13.95062597978751,1.3764679196722378,jump
23/10/2020, 15:44:28,-15.627503,-2.4908204,4.608018,0.2916112,0.22456384,1.3263476,16.482016801104383,1.3764679196722378,jump
23/10/2020, 15:44:28,-15.627503,-2.4908204,4.608018,0.74487305,0.43470138,1.5132723,16.482016801104383,1.7417790211124937,jump
23/10/2020, 15:44:28,-19.081121,-3.1973512,4.9289503,0.74487305,0.43470138,1.5132723,19.965139657665002,1.7417790211124937,jump
23/10/2020, 15:44:28,-19.081121,-3.1973512,4.9289503,1.0771835,0.75357294,1.6598798,19.965139657665002,2.117403457104891,jump
23/10/2020, 15:44:28,-23.2269,-3.3314724,3.9924977,1.0771835,0.75357294,1.6598798,23.801840986877153,2.117403457104891,jump
23/10/2020, 15:44:29,-9.24717,2.047742,4.543352,-0.19830254,0.90506744,0.8449859,10.504544573585374,1.2539825155382642,jump
23/10/2020, 15:44:29,-10.403965,1.9734962,5.716912,-0.19830254,0.90506744,0.8449859,12.034128773503681,1.2539825155382642,jump
23/10/2020, 15:44:29,-10.403965,1.9734962,5.716912,-0.16898103,0.9466063,0.930507,12.034128773503681,1.3380812083050264,jump
23/10/2020, 15:44:29,-12.147539,1.6286134,6.255791,-0.16898103,0.9466063,0.930507,13.76045100860795,1.3380812083050264,jump
23/10/2020, 15:44:29,-12.147539,1.6286134,6.255791,-0.14698988,0.8830763,1.0416845,13.76045100860795,1.3735124352737107,jump
23/10/2020, 15:44:29,-13.673167,1.5495777,6.0378447,-0.14698988,0.8830763,1.0416845,15.027050983660546,1.3735124352737107,jump
23/10/2020, 15:44:29,-13.673167,1.5495777,6.0378447,-0.20807639,0.7291383,1.1504184,15.027050983660546,1.3778247210406982,jump
23/10/2020, 15:44:29,-14.362933,1.9926564,5.1876125,-0.20807639,0.7291383,1.1504184,15.40051466849336,1.3778247210406982,jump
23/10/2020, 15:44:29,-14.362933,1.9926564,5.1876125,-0.39377934,0.5165573,1.2041745,15.40051466849336,1.3681848769167342,jump
23/10/2020, 15:44:29,-14.216837,2.7806177,3.896697,-0.39377934,0.5165573,1.2041745,15.00115112254879,1.3681848769167342,jump
23/10/2020, 15:44:29,-14.216837,2.7806177,3.896697,-0.75663316,0.24166806,1.2127267,15.00115112254879,1.449690750666891,jump
23/10/2020, 15:44:29,-13.277988,3.391348,2.7854078,-0.75663316,0.24166806,1.2127267,13.984445424718283,1.449690750666891,jump
23/10/2020, 15:44:29,-13.277988,3.391348,2.7854078,-1.2856423,-0.06254272,1.2286092,13.984445424718283,1.779401080624992,jump
23/10/2020, 15:44:29,-11.824212,3.547024,2.327959,-1.2856423,-0.06254272,1.2286092,12.562355030194224,1.779401080624992,jump
23/10/2020, 15:44:29,-11.824212,3.547024,2.327959,-1.8268688,-0.32032776,1.2640393,12.562355030194224,2.2445165807840706,jump
23/10/2020, 15:44:29,-10.375225,3.173401,2.3423293,-1.8268688,-0.32032776,1.2640393,11.099652076743046,2.2445165807840706,jump
23/10/2020, 15:44:29,-10.375225,3.173401,2.3423293,-2.2202656,-0.45105287,1.3080215,11.099652076743046,2.6160941330009204,jump
23/10/2020, 15:44:29,-9.237591,2.0980372,2.215393,-2.2202656,-0.45105287,1.3080215,9.728453644384386,2.6160941330009204,jump
23/10/2020, 15:44:29,-9.237591,2.0980372,2.215393,-2.5110373,-0.42539656,1.347117,9.728453644384386,2.88114471618435,jump
23/10/2020, 15:44:29,-8.449629,1.2166699,2.0022364,-2.5110373,-0.42539656,1.347117,8.76843563685329,2.88114471618435,jump
23/10/2020, 15:44:29,-8.449629,1.2166699,2.0022364,-2.6784143,-0.38019255,1.4631813,8.76843563685329,3.0756054960784773,jump
23/10/2020, 15:44:29,-8.466394,0.62510014,2.9482691,-2.6784143,-0.38019255,1.4631813,8.986816766006523,3.0756054960784773,jump
23/10/2020, 15:44:29,-8.466394,0.62510014,2.9482691,-2.5757892,-0.36675352,1.5694718,8.986816766006523,3.0384930571599233,jump
23/10/2020, 15:44:29,-8.571775,-0.5292993,3.0728102,-2.5757892,-0.36675352,1.5694718,9.121274815532706,3.0384930571599233,jump
23/10/2020, 15:44:29,-8.571775,-0.5292993,3.0728102,-2.3693168,-0.3288799,1.6427757,9.121274815532706,2.9018159852115155,jump
23/10/2020, 15:44:29,-9.323812,-1.6932789,3.2093263,-2.3693168,-0.3288799,1.6427757,10.005020240819935,2.9018159852115155,jump
23/10/2020, 15:44:29,-9.323812,-1.6932789,3.2093263,-2.0308976,-0.28856277,1.8260351,10.005020240819935,2.7463098781189577,jump
23/10/2020, 15:44:29,-10.37283,-2.2225783,3.657195,-2.0308976,-0.28856277,1.8260351,11.220986609779363,2.7463098781189577,jump
23/10/2020, 15:44:29,-10.37283,-2.2225783,3.657195,-1.5519794,-0.28856277,2.0679376,11.220986609779363,2.6015907772607014,jump
23/10/2020, 15:44:29,-11.208692,-1.9687061,3.9541774,-1.5519794,-0.28856277,2.0679376,12.047659104402308,2.6015907772607014,jump
23/10/2020, 15:44:30,-6.5336137,-2.071692,2.3998096,-0.7932851,0.16958599,-0.52457345,7.262169204515101,0.9660423966138791,jump
23/10/2020, 15:44:30,-8.277188,-3.168611,3.5015187,-0.7932851,0.16958599,-0.52457345,9.529563240075131,0.9660423966138791,jump
23/10/2020, 15:44:30,-8.277188,-3.168611,3.5015187,-0.1677593,0.22212037,-0.3975135,9.529563240075131,0.4852809834642869,jump
23/10/2020, 15:44:30,-10.212363,-3.8607717,3.9661524,-0.1677593,0.22212037,-0.3975135,11.615863544472466,0.4852809834642869,jump
23/10/2020, 15:44:30,-10.212363,-3.8607717,3.9661524,0.5445093,0.29786763,-0.22891477,11.615863544472466,0.6615266147808271,jump
23/10/2020, 15:44:30,-11.709251,-3.9469924,3.652405,0.5445093,0.29786763,-0.22891477,12.885083619373143,0.6615266147808271,jump
23/10/2020, 15:44:30,-11.709251,-3.9469924,3.652405,1.1480439,0.35651067,-0.070089854,12.885083619373143,1.2041665891196967,jump
23/10/2020, 15:44:30,-12.458892,-3.1470559,3.0919704,1.1480439,0.35651067,-0.070089854,13.216967444590416,1.2041665891196967,jump
23/10/2020, 15:44:30,-12.458892,-3.1470559,3.0919704,1.5402192,0.29175898,0.009322595,13.216967444590416,1.567636871849532,jump
23/10/2020, 15:44:30,-12.379856,-1.8082398,2.5387208,1.5402192,0.29175898,0.009322595,12.766192543891371,1.567636871849532,jump
23/10/2020, 15:44:30,-12.379856,-1.8082398,2.5387208,1.7418047,0.068182394,0.025205085,12.766192543891371,1.7433209154318658,jump
23/10/2020, 15:44:30,-11.649376,-0.41912845,2.5530908,1.7418047,0.068182394,0.025205085,11.93322674573257,1.7433209154318658,jump
23/10/2020, 15:44:30,-11.649376,-0.41912845,2.5530908,1.8212172,-0.21525897,0.049639687,11.93322674573257,1.8345660351226403,jump
23/10/2020, 15:44:30,-10.176438,0.58677983,2.5985963,1.8212172,-0.21525897,0.049639687,10.519358849218065,1.8345660351226403,jump
23/10/2020, 15:44:30,-10.176438,0.58677983,2.5985963,1.7185918,-0.37286216,0.12905213,10.519358849218065,1.7633032780215536,jump
23/10/2020, 15:44:30,-8.48316,1.1927198,2.5315359,1.7185918,-0.37286216,0.12905213,8.932819168602936,1.7633032780215536,jump
23/10/2020, 15:44:30,-8.48316,1.1927198,2.5315359,1.4742458,-0.34842756,0.2341209,8.932819168602936,1.532845395054338,jump
23/10/2020, 15:44:30,-7.3622904,1.463357,2.4141798,1.4742458,-0.34842756,0.2341209,7.884985568623704,1.532845395054338,jump
23/10/2020, 15:44:30,-7.3622904,1.463357,2.4141798,1.2042434,-0.20059821,0.32575065,7.884985568623704,1.2635487111936707,jump
23/10/2020, 15:44:30,-7.084468,1.1064991,2.4668703,1.2042434,-0.20059821,0.32575065,7.582840798502496,1.2635487111936707,jump
23/10/2020, 15:44:30,-7.084468,1.1064991,2.4668703,0.9770017,-0.018560443,0.40760657,7.582840798502496,1.058782310650487,jump
23/10/2020, 15:44:30,-7.7790236,0.5939649,2.5123756,0.9770017,-0.018560443,0.40760657,8.196220732694213,1.058782310650487,jump
23/10/2020, 15:44:30,-7.7790236,0.5939649,2.5123756,0.8389462,0.118273325,0.5102319,8.196220732694213,0.9890176687762675,jump
23/10/2020, 15:44:30,-8.911868,0.30416748,2.2704787,0.8389462,0.118273325,0.5102319,9.201575106897016,0.9890176687762675,jump
23/10/2020, 15:44:30,-8.911868,0.30416748,2.2704787,0.7827467,0.1659208,0.6238528,9.201575106897016,1.0146005944426855,jump
23/10/2020, 15:44:30,-9.754915,0.3784131,1.8489552,0.7827467,0.1659208,0.6238528,9.935804091012876,1.0146005944426855,jump
23/10/2020, 15:44:30,-9.754915,0.3784131,1.8489552,0.75709033,0.12193851,0.71548253,9.935804091012876,1.0487945573879365,jump
23/10/2020, 15:44:30,-10.106983,0.728086,1.6214283,0.75709033,0.12193851,0.71548253,10.262078146644336,1.0487945573879365,jump
23/10/2020, 15:44:30,-10.106983,0.728086,1.6214283,0.6972256,0.044969518,0.80466884,10.262078146644336,1.0656630339979105,jump
23/10/2020, 15:44:30,-9.977652,1.1376343,1.3196558,0.6972256,0.044969518,0.80466884,10.128634384196399,1.0656630339979105,jump
23/10/2020, 15:44:31,-6.6437845,-2.0429518,2.1124072,1.2934297,0.43347967,-1.2221813,7.264694704294387,1.83155460560959,jump
23/10/2020, 15:44:31,-7.0413575,-1.9854712,1.8345851,1.2934297,0.43347967,-1.2221813,7.542447490440691,1.83155460560959,jump
23/10/2020, 15:44:31,-7.0413575,-1.9854712,1.8345851,1.6575053,0.4310362,-1.1024517,7.542447490440691,2.0367905276014717,jump
23/10/2020, 15:44:31,-7.2688847,-1.4801221,1.575923,1.6575053,0.4310362,-1.1024517,7.583599328643309,2.0367905276014717,jump
23/10/2020, 15:44:31,-7.2688847,-1.4801221,1.575923,1.961716,0.43592313,-1.0010481,7.583599328643309,2.2450960186973536,jump
23/10/2020, 15:44:31,-7.664063,-0.8143067,1.6238233,1.961716,0.43592313,-1.0010481,7.876405191289867,2.2450960186973536,jump
23/10/2020, 15:44:31,-7.664063,-0.8143067,1.6238233,2.1584148,0.42859274,-0.90086627,7.876405191289867,2.377815467849683,jump
23/10/2020, 15:44:31,-8.372989,-0.038320314,1.7771046,2.1584148,0.42859274,-0.90086627,8.559585798863907,2.377815467849683,jump
23/10/2020, 15:44:31,-8.372989,-0.038320314,1.7771046,2.2317185,0.38827565,-0.77747154,8.559585798863907,2.394950443040744,jump
23/10/2020, 15:44:31,-9.029224,0.68018556,1.6693287,2.2317185,0.38827565,-0.77747154,9.207399407749845,2.394950443040744,jump
23/10/2020, 15:44:31,-9.029224,0.68018556,1.6693287,2.1242063,0.3174153,-0.6614072,9.207399407749845,2.2473238180450648,jump
23/10/2020, 15:44:31,-9.393267,1.5495777,1.3939015,2.1242063,0.3174153,-0.6614072,9.62172600267748,2.2473238180450648,jump
23/10/2020, 15:44:31,-9.393267,1.5495777,1.3939015,1.8505386,0.2306725,-0.5600036,9.62172600267748,1.9471278745205947,jump
23/10/2020, 15:44:31,-9.532178,2.2561085,1.2166699,1.8505386,0.2306725,-0.5600036,9.870801758117643,1.9471278745205947,jump
23/10/2020, 15:44:31,-9.532178,2.2561085,1.2166699,1.4510329,0.14392966,-0.46715212,9.870801758117643,1.531157489990152,jump
23/10/2020, 15:44:31,-9.510623,2.787803,1.104104,1.4510329,0.14392966,-0.46715212,9.97210310675572,1.531157489990152,jump
23/10/2020, 15:44:31,-9.510623,2.787803,1.104104,0.96234095,0.07795623,-0.35353124,9.97210310675572,1.0281836500710912,jump
23/10/2020, 15:44:31,-9.357342,3.0201197,1.1663746,0.96234095,0.07795623,-0.35353124,9.901585598260686,1.0281836500710912,jump
23/10/2020, 15:44:31,-9.357342,3.0201197,1.1663746,0.45654476,0.03275222,-0.20936708,9.901585598260686,0.5033293134285899,jump
23/10/2020, 15:44:31,-9.144185,2.9770093,1.2382251,0.45654476,0.03275222,-0.20936708,9.695973714927629,0.5033293134285899,jump
23/10/2020, 15:44:31,-9.144185,2.9770093,1.2382251,0.024052314,-0.0051214118,-0.06642467,9.695973714927629,0.07083063734210421,jump
23/10/2020, 15:44:31,-8.758587,2.7207422,1.5998731,0.024052314,-0.0051214118,-0.06642467,9.30993427915423,0.07083063734210421,jump
23/10/2020, 15:44:31,-8.758587,2.7207422,1.5998731,-0.26427597,-0.027112553,0.06307872,9.30993427915423,0.2730490840283981,jump
23/10/2020, 15:44:31,-8.514295,2.2704787,2.0932472,-0.26427597,-0.027112553,0.06307872,9.057039821545954,0.2730490840283981,jump
23/10/2020, 15:44:31,-8.514295,2.2704787,2.0932472,-0.42310086,-0.017338712,0.19746901,9.057039821545954,0.46723546316133785,jump
23/10/2020, 15:44:31,-8.293953,1.7220191,2.2632935,-0.42310086,-0.017338712,0.19746901,8.767981671408197,0.46723546316133785,jump
23/10/2020, 15:44:31,-8.293953,1.7220191,2.2632935,-0.5098437,0.04985644,0.34041142,8.767981671408197,0.6150660193914831,jump
23/10/2020, 15:44:31,-8.375383,1.3507911,2.308799,-0.5098437,0.04985644,0.34041142,8.792169030074566,0.6150660193914831,jump
23/10/2020, 15:44:31,-8.375383,1.3507911,2.308799,-0.51228714,0.16103387,0.5114536,8.792169030074566,0.7415893976746565,jump
23/10/2020, 15:44:31,-8.679551,1.2046949,2.3566992,-0.51228714,0.16103387,0.5114536,9.074135148849102,0.7415893976746565,jump
23/10/2020, 15:44:32,0.39996827,-6.310877,2.6464968,0.9244673,1.0675576,-1.4897401,6.8550044749652566,2.0527164130617748,jump
23/10/2020, 15:44:32,1.1879297,-6.210286,2.1627028,0.9244673,1.0675576,-1.4897401,6.682523058846133,2.0527164130617748,jump
23/10/2020, 15:44:32,1.1879297,-6.210286,2.1627028,2.111989,1.3925377,-1.5105096,6.682523058846133,2.946404281628758,jump
23/10/2020, 15:44:32,1.2430152,-5.479805,1.5064673,2.111989,1.3925377,-1.5105096,5.8174559151311245,2.946404281628758,jump
23/10/2020, 15:44:32,1.2430152,-5.479805,1.5064673,3.1492379,1.6784226,-1.5019574,5.8174559151311245,3.871779639203023,jump
23/10/2020, 15:44:32,0.7664063,-4.4331813,0.8095166,3.1492379,1.6784226,-1.5019574,4.571191536809385,3.871779639203023,jump
23/10/2020, 15:44:32,0.7664063,-4.4331813,0.8095166,3.8969367,1.8812298,-1.4958488,4.571191536809385,4.578504587111649,jump
23/10/2020, 15:44:32,0.031135255,-3.1087356,0.5221143,3.8969367,1.8812298,-1.4958488,3.152429144769656,4.578504587111649,jump
23/10/2020, 15:44:32,0.031135255,-3.1087356,0.5221143,4.410063,1.9496466,-1.5056226,3.152429144769656,5.051403283764129,jump
23/10/2020, 15:44:32,-0.96758795,-1.6765138,1.7172291,4.410063,1.9496466,-1.5056226,2.587624548918282,5.051403283764129,jump
23/10/2020, 15:44:32,-0.96758795,-1.6765138,1.7172291,4.77536,1.8152564,-1.5105096,2.587624548918282,5.327368870307382,jump
23/10/2020, 15:44:32,-2.0980372,-0.57001466,2.7638526,4.77536,1.8152564,-1.5105096,3.5164695582527767,5.327368870307382,jump
23/10/2020, 15:44:32,-2.0980372,-0.57001466,2.7638526,4.8462205,1.5318149,-1.4836315,3.5164695582527767,5.294664527740244,jump
23/10/2020, 15:44:32,-2.914739,0.1460962,2.7446926,4.8462205,1.5318149,-1.4836315,4.006293073135114,5.294664527740244,jump
23/10/2020, 15:44:32,-2.914739,0.1460962,2.7446926,4.582327,1.2532605,-1.4323188,4.006293073135114,4.961846304138453,jump
23/10/2020, 15:44:32,-3.412903,0.8167017,2.4812403,4.582327,1.2532605,-1.4323188,4.297843917798067,4.961846304138453,jump
23/10/2020, 15:44:32,-3.412903,0.8167017,2.4812403,4.1706038,1.038236,-1.3663454,4.297843917798067,4.5098524878367945,jump
23/10/2020, 15:44:32,-3.9829175,1.1807446,2.3375392,4.1706038,1.038236,-1.3663454,4.766747277194046,4.5098524878367945,jump
23/10/2020, 15:44:32,-3.9829175,1.1807446,2.3375392,3.8199675,0.8452027,-1.2747157,4.766747277194046,4.114780596977927,jump
23/10/2020, 15:44:32,-4.87626,1.0514137,2.1579127,3.8199675,0.8452027,-1.2747157,5.4350683255817644,4.114780596977927,jump
23/10/2020, 15:44:32,-4.87626,1.0514137,2.1579127,3.7882025,0.58741766,-1.1720903,5.4350683255817644,4.0086573221700945,jump
23/10/2020, 15:44:32,-5.879773,-0.9412427,2.9698243,3.7882025,0.58741766,-1.1720903,6.654136040438342,4.0086573221700945,jump
23/10/2020, 15:44:32,-5.879773,-0.9412427,2.9698243,4.082639,0.4811271,-0.9876091,6.654136040438342,4.227859741022337,jump
23/10/2020, 15:44:32,-7.5155716,-2.1339624,1.7531544,4.082639,0.4811271,-0.9876091,8.006944624623943,4.227859741022337,jump
23/10/2020, 15:44:32,-7.5155716,-2.1339624,1.7531544,4.388072,0.5910828,-0.33154008,8.006944624623943,4.440098389892691,jump
23/10/2020, 15:44:32,-9.026829,-0.24908204,1.1352394,4.388072,0.5910828,-0.33154008,9.10134318897552,4.440098389892691,jump
23/10/2020, 15:44:32,-9.026829,-0.24908204,1.1352394,4.5334578,0.6619432,0.40149793,9.10134318897552,4.599087801970469,jump
23/10/2020, 15:44:32,-9.354947,2.3614893,1.0178833,4.5334578,0.6619432,0.40149793,9.701945844438958,4.599087801970469,jump
23/10/2020, 15:44:32,-9.354947,2.3614893,1.0178833,4.4112844,0.7108124,0.5749836,9.701945844438958,4.505029507117289,jump
23/10/2020, 15:44:32,-10.068663,3.796106,0.59156984,4.4112844,0.7108124,0.5749836,10.776750151460794,4.505029507117289,jump
23/10/2020, 15:44:33,-11.211087,4.4212065,5.0606766,0.55550486,0.39071912,-1.6693344,13.070806818657118,1.8021998926402705,jump
23/10/2020, 15:44:33,-15.488592,1.7842896,4.7325587,0.55550486,0.39071912,-1.6693344,16.293473791672834,1.8021998926402705,jump
23/10/2020, 15:44:33,-15.488592,1.7842896,4.7325587,0.71188635,1.0394578,-1.8269377,16.293473791672834,2.219224178403599,jump
23/10/2020, 15:44:33,-20.685785,0.42870852,3.283572,0.71188635,1.0394578,-1.8269377,20.94916105759626,2.219224178403599,jump
23/10/2020, 15:44:33,-20.685785,0.42870852,3.283572,0.81451166,1.0272404,-1.9295629,20.94916105759626,2.3327805631399214,jump
23/10/2020, 15:44:33,-24.32382,0.028740235,1.4034815,0.81451166,1.0272404,-1.9295629,24.364293776351023,2.3327805631399214,jump
23/10/2020, 15:44:33,-24.32382,0.028740235,1.4034815,0.60315233,0.31130666,-1.7499686,24.364293776351023,1.876990900717074,jump
23/10/2020, 15:44:33,-22.824537,0.78556645,0.8047266,0.60315233,0.31130666,-1.7499686,22.85222530667692,1.876990900717074,jump
23/10/2020, 15:44:33,-22.824537,0.78556645,0.8047266,-3.8228463E-4,-0.42417482,-1.5141747,22.85222530667692,1.572466038310191,jump
23/10/2020, 15:44:33,-17.524359,1.7723145,1.8034497,-3.8228463E-4,-0.42417482,-1.5141747,17.705837439575962,1.572466038310191,jump
23/10/2020, 15:44:33,-17.524359,1.7723145,1.8034497,-0.76885045,-0.6465297,-1.4885185,17.705837439575962,1.7957780717044798,jump
23/10/2020, 15:44:33,-13.395345,1.4585669,2.5363257,-0.76885045,-0.6465297,-1.4885185,13.711149695890526,1.7957780717044798,jump
23/10/2020, 15:44:33,-13.395345,1.4585669,2.5363257,-1.4847844,-0.43394867,-1.467749,13.711149695890526,2.132412525772599,jump
23/10/2020, 15:44:33,-11.491304,-0.1101709,2.196233,-1.4847844,-0.43394867,-1.467749,11.699814268847154,2.132412525772599,jump
23/10/2020, 15:44:33,-11.491304,-0.1101709,2.196233,-2.0687711,-0.09186424,-1.2490593,11.699814268847154,2.4183469945015474,jump
23/10/2020, 15:44:33,-11.450589,-1.7363893,1.2573853,-2.0687711,-0.09186424,-1.2490593,11.64955183580904,2.4183469945015474,jump
23/10/2020, 15:44:33,-11.450589,-1.7363893,1.2573853,-2.33633,0.09139527,-0.87887514,11.64955183580904,2.4978415030752936,jump
23/10/2020, 15:44:33,-11.606265,-2.4213648,0.48618898,-2.33633,0.09139527,-0.87887514,11.866118825065882,2.4978415030752936,jump
23/10/2020, 15:44:33,-11.606265,-2.4213648,0.48618898,-2.2532523,0.0400826,-0.57466435,11.866118825065882,2.3257238695653726,jump
23/10/2020, 15:44:33,-10.679393,-2.2800586,-0.12693603,-2.2532523,0.0400826,-0.57466435,10.920815490029598,2.3257238695653726,jump
23/10/2020, 15:44:33,-10.679393,-2.2800586,-0.12693603,-1.966146,-0.12729442,-0.40973082,10.920815490029598,2.0124147880083694,jump
23/10/2020, 15:44:33,-8.729847,-1.7148341,0.100590825,-1.966146,-0.12729442,-0.40973082,8.897246896118892,2.0124147880083694,jump
23/10/2020, 15:44:33,-8.729847,-1.7148341,0.100590825,-1.6546048,-0.26412818,-0.336427,8.897246896118892,1.7089949803103792,jump
23/10/2020, 15:44:33,-6.1887307,-1.1232642,1.0729688,-1.6546048,-0.26412818,-0.336427,6.380703132513372,1.7089949803103792,jump
23/10/2020, 15:44:33,-6.1887307,-1.1232642,1.0729688,-1.4090371,-0.3178843,-0.30221856,6.380703132513372,1.4757276401619794,jump
23/10/2020, 15:44:33,-3.3602126,-0.6490503,2.088457,-1.4090371,-0.3178843,-0.30221856,4.009232826160106,1.4757276401619794,jump
23/10/2020, 15:44:33,-3.3602126,-0.6490503,2.088457,-1.2624295,-0.26168472,-0.30832723,4.009232826160106,1.3256216470799391,jump
23/10/2020, 15:44:33,-0.6849756,-0.6658155,2.912344,-1.2624295,-0.26168472,-0.30832723,3.065003964186106,1.3256216470799391,jump
23/10/2020, 15:44:33,-0.6849756,-0.6658155,2.912344,-1.151252,-0.06620791,-0.31687933,3.065003964186106,1.1959001788683794,jump
23/10/2020, 15:44:33,1.2166699,-1.0538087,3.652405,-1.151252,-0.06620791,-0.31687933,3.9913482555004265,1.1959001788683794,jump
23/10/2020, 15:44:34,-0.5460645,-2.3064039,3.0895753,0.67767787,0.26488093,0.85598147,3.8939903372825246,1.123438238354764,jump
23/10/2020, 15:44:34,-1.5615528,-2.2680836,3.9948928,0.67767787,0.26488093,0.85598147,4.851991229483653,1.123438238354764,jump
23/10/2020, 15:44:34,-1.5615528,-2.2680836,3.9948928,0.8035161,0.19768578,0.7973384,4.851991229483653,1.149115459555761,jump
23/10/2020, 15:44:34,-2.7015822,-2.6297317,4.6199927,0.8035161,0.19768578,0.7973384,5.963083747398835,1.149115459555761,jump
23/10/2020, 15:44:34,-2.7015822,-2.6297317,4.6199927,0.9195804,0.13537754,0.7961167,5.963083747398835,1.22382883042573,jump
23/10/2020, 15:44:34,-3.8224514,-2.9530592,4.624783,0.9195804,0.13537754,0.7961167,6.687324661115372,1.22382883042573,jump
23/10/2020, 15:44:34,-3.8224514,-2.9530592,4.624783,1.0356448,0.14759484,0.82543826,6.687324661115372,1.332551180373858,jump
23/10/2020, 15:44:34,-4.8906302,-3.0608351,4.25595,1.0356448,0.14759484,0.82543826,7.169385331227713,1.332551180373858,jump
23/10/2020, 15:44:34,-4.8906302,-3.0608351,4.25595,1.1407135,0.23311594,0.87308574,7.169385331227713,1.45528310962391,jump
23/10/2020, 15:44:34,-6.085745,-2.8812087,3.7050953,1.1407135,0.23311594,0.87308574,7.685400765262501,1.45528310962391,jump
23/10/2020, 15:44:34,-6.085745,-2.8812087,3.7050953,1.174922,0.33085433,0.9378374,7.685400765262501,1.5393002619799752,jump
23/10/2020, 15:44:34,-7.534732,-2.663262,2.8836036,1.174922,0.33085433,0.9378374,8.49590005465131,1.5393002619799752,jump
23/10/2020, 15:44:34,-7.534732,-2.663262,2.8836036,1.106505,0.42370582,1.025802,8.49590005465131,1.567210831629393,jump
23/10/2020, 15:44:34,-9.1849,-2.4093897,2.2968237,1.106505,0.42370582,1.025802,9.769490846909404,1.567210831629393,jump
23/10/2020, 15:44:34,-9.1849,-2.4093897,2.2968237,0.92935425,0.49945307,1.1284273,9.769490846909404,1.5448303423955947,jump
23/10/2020, 15:44:34,-10.897339,-2.2944288,1.7842896,0.92935425,0.49945307,1.1284273,11.278301618250552,1.5448303423955947,jump
23/10/2020, 15:44:34,-10.897339,-2.2944288,1.7842896,0.6336956,0.52755284,1.2139484,11.278301618250552,1.4674988113931795,jump
23/10/2020, 15:44:34,-12.478052,-2.2177882,1.3172607,0.6336956,0.52755284,1.2139484,12.741881558070368,1.4674988113931795,jump
23/10/2020, 15:44:34,-12.478052,-2.2177882,1.3172607,0.21586393,0.4554708,1.2151701,12.741881558070368,1.3155566756693198,jump
23/10/2020, 15:44:34,-13.783338,-2.208208,0.9364527,0.21586393,0.4554708,1.2151701,13.990479683773431,1.3155566756693198,jump
23/10/2020, 15:44:34,-13.783338,-2.208208,0.9364527,-0.22762406,0.24166806,1.1382011,13.990479683773431,1.1856297682883639,jump
23/10/2020, 15:44:34,-14.3749075,-2.2345533,0.97237796,-0.22762406,0.24166806,1.1382011,14.58001073232754,1.1856297682883639,jump
23/10/2020, 15:44:34,-14.3749075,-2.2345533,0.97237796,-0.66744685,-0.09552943,1.0465714,14.58001073232754,1.2449589601898023,jump
23/10/2020, 15:44:34,-13.771363,-2.4189699,1.465752,-0.66744685,-0.09552943,1.0465714,14.05881538984383,1.2449589601898023,jump
23/10/2020, 15:44:34,-13.771363,-2.4189699,1.465752,-1.1207088,-0.43761384,0.99648046,14.05881538984383,1.562199558516228,jump
23/10/2020, 15:44:34,-11.836187,-2.311194,2.203418,-1.1207088,-0.43761384,0.99648046,12.259363755173608,1.562199558516228,jump
23/10/2020, 15:44:34,-11.836187,-2.311194,2.203418,-1.5238796,-0.6343124,0.948833,12.259363755173608,1.9039026838496877,jump
23/10/2020, 15:44:34,-9.639954,-2.066902,2.4932153,-1.5238796,-0.6343124,0.948833,10.169410595832826,1.9039026838496877,jump
23/10/2020, 15:44:34,-9.639954,-2.066902,2.4932153,-1.8513033,-0.6428645,0.8498728,10.169410595832826,2.1360905116346256,jump
23/10/2020, 15:44:34,-7.95865,-2.0812721,2.6153615,-1.8513033,-0.6428645,0.8498728,8.632028776140718,2.1360905116346256,jump
23/10/2020, 15:44:35,-8.940608,-2.8716285,5.213958,0.86460257,0.7156993,-0.17271519,10.740860208702973,1.1356027660088304,jump
23/10/2020, 15:44:35,-6.583909,-4.136199,4.4116263,0.86460257,0.7156993,-0.17271519,8.939711811858395,1.1356027660088304,jump
23/10/2020, 15:44:35,-6.583909,-4.136199,4.4116263,1.238452,0.65216935,-0.45982173,8.939711811858395,1.4732698777274726,jump
23/10/2020, 15:44:35,-4.782854,-7.2281694,2.936294,1.238452,0.65216935,-0.45982173,9.151172030995466,1.4732698777274726,jump
23/10/2020, 15:44:35,-4.782854,-7.2281694,2.936294,1.4156028,0.68149084,-0.8165669,9.151172030995466,1.7706333715372857,jump
23/10/2020, 15:44:35,-3.558999,-7.690408,1.2046949,1.4156028,0.68149084,-0.8165669,8.559213911607934,1.7706333715372857,jump
23/10/2020, 15:44:35,-3.558999,-7.690408,1.2046949,1.6782748,0.77434236,-0.44882616,8.559213911607934,1.9020139725915595,jump
23/10/2020, 15:44:35,-4.598438,-3.532654,4.655918,1.6782748,0.77434236,-0.44882616,7.436588481362171,1.9020139725915595,jump
23/10/2020, 15:44:35,-4.598438,-3.532654,4.655918,1.7027093,0.5861959,0.54810554,7.436588481362171,1.8823560546542724,jump
23/10/2020, 15:44:35,-4.5696974,0.9627979,5.949229,1.7027093,0.5861959,0.54810554,7.563229256399535,1.8823560546542724,jump
23/10/2020, 15:44:35,-4.5696974,0.9627979,5.949229,1.0710748,0.13049063,0.96349376,7.563229256399535,1.446564675001025,jump
23/10/2020, 15:44:35,-2.680027,4.897815,4.3349857,1.0710748,0.13049063,0.96349376,7.068468014521998,1.446564675001025,jump
23/10/2020, 15:44:35,-2.680027,4.897815,4.3349857,0.3453673,-0.15050729,0.32330722,7.068468014521998,0.4964459484360462,jump
23/10/2020, 15:44:35,-2.3447242,4.974456,3.532654,0.3453673,-0.15050729,0.32330722,6.536251749056175,0.4964459484360462,jump
23/10/2020, 15:44:35,-2.3447242,4.974456,3.532654,-0.123777024,-0.2726803,-0.29733166,6.536251749056175,0.42199694450757513,jump
23/10/2020, 15:44:35,-3.1973512,2.8476784,3.657195,-0.123777024,-0.2726803,-0.29733166,5.630932706260253,0.42199694450757513,jump
23/10/2020, 15:44:35,-3.1973512,2.8476784,3.657195,-0.38522723,-0.3301016,-0.28511435,5.630932706260253,0.5819426818780746,jump
23/10/2020, 15:44:35,-3.1231055,1.1663746,2.9219239,-0.38522723,-0.3301016,-0.28511435,4.433041493863209,0.5819426818780746,jump
23/10/2020, 15:44:35,-3.1231055,1.1663746,2.9219239,-0.55626947,-0.29955837,-0.009003356,4.433041493863209,0.6318639078312944,jump
23/10/2020, 15:44:35,-2.5051906,0.14849122,2.5770411,-0.55626947,-0.29955837,-0.009003356,3.597105881573976,0.6318639078312944,jump
23/10/2020, 15:44:35,-2.5051906,0.14849122,2.5770411,-0.65400785,-0.23847185,0.12905213,3.597105881573976,0.7079897930402917,jump
23/10/2020, 15:44:35,-2.0046315,-0.60833496,2.5866213,-0.65400785,-0.23847185,0.12905213,3.3285475239794735,0.7079897930402917,jump
23/10/2020, 15:44:35,-2.0046315,-0.60833496,2.5866213,-0.7419724,-0.15172902,0.103395805,3.3285475239794735,0.764352935509175,jump
23/10/2020, 15:44:35,-2.088457,-1.2430152,2.8596535,-0.7419724,-0.15172902,0.103395805,3.752913240166129,0.764352935509175,jump
23/10/2020, 15:44:35,-2.088457,-1.2430152,2.8596535,-0.8653671,-0.049103692,0.11316965,3.752913240166129,0.8741160018508801,jump
23/10/2020, 15:44:35,-2.7399025,-1.5591577,3.2117214,-0.8653671,-0.049103692,0.11316965,4.500354763275954,0.8741160018508801,jump
23/10/2020, 15:44:35,-2.7399025,-1.5591577,3.2117214,-1.0584005,0.0058741583,0.2500034,4.500354763275954,1.0875421130858283,jump
23/10/2020, 15:44:35,-3.4871485,-1.6429834,2.9889846,-1.0584005,0.0058741583,0.2500034,4.877871282114798,1.0875421130858283,jump
23/10/2020, 15:44:35,-3.4871485,-1.6429834,2.9889846,-1.3161856,-0.025890823,0.4295977,4.877871282114798,1.3847631711637993,jump
23/10/2020, 15:44:35,-4.1170387,-1.6190332,2.7279274,-1.3161856,-0.025890823,0.4295977,5.19739017101864,1.3847631711637993,jump
23/10/2020, 15:44:36,-14.276712,-2.5818312,4.9217653,-2.2019398,0.03886087,0.14982153,15.320383279329429,2.2073730169062555,jump
23/10/2020, 15:44:36,-12.260105,-3.547024,4.5649076,-2.2019398,0.03886087,0.14982153,13.554701699410863,2.2073730169062555,jump
23/10/2020, 15:44:36,-12.260105,-3.547024,4.5649076,-2.2153788,0.004652428,0.29642916,13.554701699410863,2.2351275011371685,jump
23/10/2020, 15:44:36,-10.032737,-3.9517825,4.1002736,-2.2153788,0.004652428,0.29642916,11.536231428952592,2.2351275011371685,jump
23/10/2020, 15:44:36,-10.032737,-3.9517825,4.1002736,-2.3424387,-0.007564872,0.33063757,11.536231428952592,2.365670620728936,jump
23/10/2020, 15:44:36,-7.7598634,-3.67875,3.391348,-2.3424387,-0.007564872,0.33063757,9.233088429389325,2.365670620728936,jump
23/10/2020, 15:44:36,-7.7598634,-3.67875,3.391348,-2.4475074,0.011982808,0.33796796,9.233088429389325,2.470760675023128,jump
23/10/2020, 15:44:36,-5.8103175,-3.0057497,2.7614577,-2.4475074,0.011982808,0.33796796,7.1007020386657205,2.470760675023128,jump
23/10/2020, 15:44:36,-5.8103175,-3.0057497,2.7614577,-2.3754253,0.04252606,0.39905447,7.1007020386657205,2.4090866472187593,jump
23/10/2020, 15:44:36,-4.2008643,-2.1411476,2.2608986,-2.3754253,0.04252606,0.39905447,5.229095192371642,2.4090866472187593,jump
23/10/2020, 15:44:36,-4.2008643,-2.1411476,2.2608986,-2.1115317,0.084064886,0.4980146,5.229095192371642,2.1710945883620054,jump
23/10/2020, 15:44:36,-2.8285182,-1.1807446,1.7220191,-2.1115317,0.084064886,0.4980146,3.515682374813009,2.1710945883620054,jump
23/10/2020, 15:44:36,-2.8285182,-1.1807446,1.7220191,-1.753565,0.14881657,0.58231395,3.515682374813009,1.8537060071372073,jump
23/10/2020, 15:44:36,-1.7555494,-0.4047583,1.4106666,-1.753565,0.14881657,0.58231395,2.2881790364919166,1.8537060071372073,jump
23/10/2020, 15:44:36,-1.7555494,-0.4047583,1.4106666,-1.4029284,0.2514419,0.62140936,2.2881790364919166,1.5548570922601606,jump
23/10/2020, 15:44:36,-1.0035132,0.014370117,1.2717555,-1.4029284,0.2514419,0.62140936,1.620063955258418,1.5548570922601606,jump
23/10/2020, 15:44:36,-1.0035132,0.014370117,1.2717555,-1.1072698,0.38338873,0.6360701,1.620063955258418,1.3332735593852094,jump
23/10/2020, 15:44:36,-0.7041358,-0.1939966,1.2981006,-1.1072698,0.38338873,0.6360701,1.4894653444296015,1.3332735593852094,jump
23/10/2020, 15:44:36,-0.7041358,-0.1939966,1.2981006,-0.8763627,0.5202225,0.65073085,1.4894653444296015,1.2091706332210082,jump
23/10/2020, 15:44:36,-0.8861573,-0.7927515,1.4897022,-0.8763627,0.5202225,0.65073085,1.9060279010714092,1.2091706332210082,jump
23/10/2020, 15:44:36,-0.8861573,-0.7927515,1.4897022,-0.65278614,0.6387303,0.6812741,1.9060279010714092,1.1394035897559631,jump
23/10/2020, 15:44:36,-1.3507911,-1.6142433,1.8776954,-0.65278614,0.6387303,0.6812741,2.820666249021687,1.1394035897559631,jump
23/10/2020, 15:44:36,-1.3507911,-1.6142433,1.8776954,-0.33635804,0.7120341,0.72036946,2.820666249021687,1.0672682213164268,jump
23/10/2020, 15:44:36,-1.9088306,-2.304009,2.5387208,-0.33635804,0.7120341,0.72036946,3.9239259993553004,1.0672682213164268,jump
23/10/2020, 15:44:36,-1.9088306,-2.304009,2.5387208,0.065591134,0.7242514,0.7594648,3.9239259993553004,1.0514889704874921,jump
23/10/2020, 15:44:36,-2.2680836,-2.699187,3.3290772,0.065591134,0.7242514,0.7594648,4.848976084209396,1.0514889704874921,jump
23/10/2020, 15:44:36,-2.2680836,-2.699187,3.3290772,0.46876204,0.66683006,0.8107775,4.848976084209396,1.1496783523232295,jump
23/10/2020, 15:44:36,-2.2800586,-2.4620802,3.915857,0.46876204,0.66683006,0.8107775,5.156980034432637,1.1496783523232295,jump
23/10/2020, 15:44:36,-2.2800586,-2.4620802,3.915857,0.84261143,0.5703134,0.8608684,5.156980034432637,1.3327962279932826,jump
23/10/2020, 15:44:36,-1.8034497,-1.9279908,4.047583,0.84261143,0.5703134,0.8608684,4.832443324052542,1.3327962279932826,jump
23/10/2020, 15:44:37,-2.1100123,-0.9053174,0.043110352,-2.517146,0.594748,-0.77991503,2.2964341967070103,2.7014842606871246,jump
23/10/2020, 15:44:37,-2.1100123,-0.9053174,0.043110352,-1.9856936,0.77434236,-0.7713629,2.2964341967070103,2.266624314223427,jump
23/10/2020, 15:44:37,-1.8130299,-1.0059083,0.3305127,-1.9856936,0.77434236,-0.7713629,2.0995636262085324,2.266624314223427,jump
23/10/2020, 15:44:37,-1.8130299,-1.0059083,0.3305127,-1.4786757,0.9527149,-0.8006844,2.0995636262085324,1.9326777044310546,jump
23/10/2020, 15:44:37,-1.8753004,-1.6860938,1.0538087,-1.4786757,0.9527149,-0.8006844,2.733162398767671,1.9326777044310546,jump
23/10/2020, 15:44:37,-1.8753004,-1.6860938,1.0538087,-0.92645365,1.0895487,-0.8067931,2.733162398767671,1.6420559815516567,jump
23/10/2020, 15:44:37,-2.4189699,-2.7087672,2.4165747,-0.92645365,1.0895487,-0.8067931,4.3621861724215325,1.6420559815516567,jump
23/10/2020, 15:44:37,-2.4189699,-2.7087672,2.4165747,-0.16165064,1.1200919,-0.7567021,4.3621861724215325,1.3613724452670986,jump
23/10/2020, 15:44:37,-3.1614258,-4.3086405,4.126619,-0.16165064,1.1200919,-0.7567021,6.751887091145038,1.3613724452670986,jump
23/10/2020, 15:44:37,-3.1614258,-4.3086405,4.126619,0.89881104,1.0577837,-0.6870635,6.751887091145038,1.548813729297685,jump
23/10/2020, 15:44:37,-3.9781277,-5.7073317,4.600833,0.89881104,1.0577837,-0.6870635,8.340671347206703,1.548813729297685,jump
23/10/2020, 15:44:37,-3.9781277,-5.7073317,4.600833,2.1865146,0.9832582,-0.5147996,8.340671347206703,2.4520728889539054,jump
23/10/2020, 15:44:37,-4.7708793,-5.5229154,6.0570045,2.1865146,0.9832582,-0.5147996,9.484259909705324,2.4520728889539054,jump
23/10/2020, 15:44:37,-4.7708793,-5.5229154,6.0570045,3.7124553,0.9685974,-0.07253332,9.484259909705324,3.837416602405338,jump
23/10/2020, 15:44:37,-5.149292,-2.299219,7.5083866,3.7124553,0.9685974,-0.07253332,9.390286739674492,3.837416602405338,jump
23/10/2020, 15:44:37,-5.149292,-2.299219,7.5083866,4.614092,1.133531,0.34163314,9.390286739674492,4.763554291387724,jump
23/10/2020, 15:44:37,-3.5925295,0.9580079,4.766089,4.614092,1.133531,0.34163314,6.044803681176016,4.763554291387724,jump
23/10/2020, 15:44:37,-3.5925295,0.9580079,4.766089,4.391737,1.2166086,0.505345,6.044803681176016,4.585069670808942,jump
23/10/2020, 15:44:37,-3.8535867,5.0989966,4.9457154,4.391737,1.2166086,0.505345,8.081460144547497,4.585069670808942,jump
23/10/2020, 15:44:37,-3.8535867,5.0989966,4.9457154,3.741777,1.0614489,0.41615868,8.081460144547497,3.9116181525094107,jump
23/10/2020, 15:44:37,-3.8008962,6.8114357,3.9709425,3.741777,1.0614489,0.41615868,8.752762551472896,3.9116181525094107,jump
23/10/2020, 15:44:37,-3.8008962,6.8114357,3.9709425,2.595794,0.8818546,-0.038324878,8.752762551472896,2.7417663314749894,jump
23/10/2020, 15:44:37,-4.5457473,5.295388,2.8380983,2.595794,0.8818546,-0.038324878,7.533907130012595,2.7417663314749894,jump
23/10/2020, 15:44:37,-4.5457473,5.295388,2.8380983,1.2347867,0.7596816,-0.38163102,7.533907130012595,1.4991519785769272,jump
23/10/2020, 15:44:37,-6.05461,3.1015503,2.7063723,1.2347867,0.7596816,-0.38163102,7.321363593284484,1.4991519785769272,jump
23/10/2020, 15:44:37,-6.05461,3.1015503,2.7063723,0.26228967,0.6619432,-0.3523095,7.321363593284484,0.794409623186469,jump
23/10/2020, 15:44:37,-6.9886675,1.22625,3.0967603,0.26228967,0.6619432,-0.3523095,7.741775419026588,0.794409623186469,jump
23/10/2020, 15:44:37,-6.9886675,1.22625,3.0967603,-0.1921939,0.61673915,-0.2301365,7.741775419026588,0.6857612452508605,jump
23/10/2020, 15:44:37,-7.470066,-0.43589357,3.302732,-0.1921939,0.61673915,-0.2301365,8.179237672424032,0.6857612452508605,jump
23/10/2020, 15:44:37,-7.470066,-0.43589357,3.302732,-0.26427597,0.6057436,-0.12751117,8.179237672424032,0.673072195145605,jump
23/10/2020, 15:44:38,-2.5962012,-2.7710378,2.924319,0.2512941,1.0101362,-1.159873,4.792760471809025,1.5584701989670864,jump
23/10/2020, 15:44:38,-2.4788454,-2.9458742,3.5087037,0.2512941,1.0101362,-1.159873,5.209016309166994,1.5584701989670864,jump
23/10/2020, 15:44:38,-2.4788454,-2.9458742,3.5087037,1.0625228,1.1579655,-1.1317732,5.209016309166994,1.9366851784272396,jump
23/10/2020, 15:44:38,-2.9506643,-2.943479,4.4906616,1.0625228,1.1579655,-1.1317732,6.126706332329968,1.9366851784272396,jump
23/10/2020, 15:44:38,-2.9506643,-2.943479,4.4906616,1.8432083,1.2068348,-1.069465,6.126706332329968,2.449004405293767,jump
23/10/2020, 15:44:38,-3.5829494,-2.6249416,5.5301003,1.8432083,1.2068348,-1.069465,7.0929439989778915,2.449004405293767,jump
23/10/2020, 15:44:38,-3.5829494,-2.6249416,5.5301003,2.559142,1.1262006,-0.99982643,7.0929439989778915,2.96937517667748,jump
23/10/2020, 15:44:38,-4.0787187,-2.2441335,5.7696023,2.559142,1.1262006,-0.99982643,7.4135276119812055,2.96937517667748,jump
23/10/2020, 15:44:38,-4.0787187,-2.2441335,5.7696023,3.1309118,0.99181026,-0.92896605,7.4135276119812055,3.4131033354816074,jump
23/10/2020, 15:44:38,-4.3637257,-1.6884888,5.213958,3.1309118,0.99181026,-0.92896605,7.0056014746501925,3.4131033354816074,jump
23/10/2020, 15:44:38,-4.3637257,-1.6884888,5.213958,3.641595,0.8818546,-0.79457575,7.0056014746501925,3.830173816910784,jump
23/10/2020, 15:44:38,-4.4906616,-0.64186525,4.9145803,3.641595,0.8818546,-0.79457575,6.688133728307244,3.830173816910784,jump
23/10/2020, 15:44:38,-4.4906616,-0.64186525,4.9145803,4.2805595,0.71814275,-0.49403018,6.688133728307244,4.368407581308475,jump
23/10/2020, 15:44:38,-5.1828227,1.099314,7.070098,4.2805595,0.71814275,-0.49403018,8.83495484104953,4.368407581308475,jump
23/10/2020, 15:44:38,-5.1828227,1.099314,7.070098,4.6116486,0.7108124,-0.13728501,8.83495484104953,4.668126376208714,jump
23/10/2020, 15:44:38,-4.140989,3.539839,3.7170706,4.6116486,0.7108124,-0.13728501,6.5950634955186445,4.668126376208714,jump
23/10/2020, 15:44:38,-4.140989,3.539839,3.7170706,4.242686,0.76945543,0.1766996,6.5950634955186445,4.315514704326997,jump
23/10/2020, 15:44:38,-3.8679566,6.4354177,2.8883936,4.242686,0.76945543,0.1766996,8.044781335498367,4.315514704326997,jump
23/10/2020, 15:44:38,-3.8679566,6.4354177,2.8883936,3.3398278,0.6802691,0.18525171,8.044781335498367,3.413434318783917,jump
23/10/2020, 15:44:38,-3.5853443,7.683223,2.936294,3.3398278,0.6802691,0.18525171,8.972648935262876,3.413434318783917,jump
23/10/2020, 15:44:38,-3.5853443,7.683223,2.936294,2.2133925,0.5568744,-0.14339367,8.972648935262876,2.286870607688427,jump
23/10/2020, 15:44:38,-4.3206153,6.0833497,2.7614577,2.2133925,0.5568744,-0.14339367,7.956161678581867,2.286870607688427,jump
23/10/2020, 15:44:38,-4.3206153,6.0833497,2.7614577,1.1150572,0.5092269,-0.33398354,7.956161678581867,1.2705155196826166,jump
23/10/2020, 15:44:38,-6.0665846,3.6188745,2.6105714,1.1150572,0.5092269,-0.33398354,7.530921889999601,1.2705155196826166,jump
23/10/2020, 15:44:38,-6.0665846,3.6188745,2.6105714,0.33559346,0.49945307,-0.22524957,7.530921889999601,0.642505804679468,jump
23/10/2020, 15:44:38,-7.247329,1.590293,2.9626393,0.33559346,0.49945307,-0.22524957,7.989370740947909,0.642505804679468,jump
23/10/2020, 15:44:38,-7.247329,1.590293,2.9626393,0.004504635,0.50189656,-0.0798637,7.989370740947909,0.5082309111162349,jump
23/10/2020, 15:44:38,-8.241262,-0.06227051,3.3099172,0.004504635,0.50189656,-0.0798637,8.881319502265681,0.5082309111162349,jump
23/10/2020, 15:44:38,-8.241262,-0.06227051,3.3099172,0.014278475,0.5202225,0.010544324,8.881319502265681,0.52052520745531,jump
23/10/2020, 15:44:38,-9.604029,-1.2382251,3.5566041,0.014278475,0.5202225,0.010544324,10.3160070650948,0.52052520745531,jump
23/10/2020, 15:44:39,0.081430666,-4.3565407,3.2332766,-2.113975,-0.23602839,-1.1977466,5.425878293663453,2.4411466371907182,jump
23/10/2020, 15:44:39,0.081430666,-4.3565407,3.2332766,-1.4469107,0.0022089682,-1.1708686,5.425878293663453,1.8613137636780634,jump
23/10/2020, 15:44:39,1.1352394,-4.1170387,2.3686745,-1.4469107,0.0022089682,-1.1708686,4.883584263084449,1.8613137636780634,jump
23/10/2020, 15:44:39,1.1352394,-4.1170387,2.3686745,-0.3876707,0.28320685,-1.0486956,4.883584263084449,1.153367710202969,jump
23/10/2020, 15:44:39,1.0035132,-3.4823585,1.5615528,-0.3876707,0.28320685,-1.0486956,3.9461761519118084,1.153367710202969,jump
23/10/2020, 15:44:39,1.0035132,-3.4823585,1.5615528,0.84261143,0.5385484,-0.87887514,3.9461761519118084,1.3313338877422427,jump
23/10/2020, 15:44:39,0.15088624,-2.9937747,0.9388477,0.84261143,0.5385484,-0.87887514,3.141160353923491,1.3313338877422427,jump
23/10/2020, 15:44:39,0.15088624,-2.9937747,0.9388477,2.102215,0.73524696,-0.721272,3.141160353923491,2.340967641011173,jump
23/10/2020, 15:44:39,-1.1160791,-2.064507,0.45984375,2.102215,0.73524696,-0.721272,2.3915012027764866,2.340967641011173,jump
23/10/2020, 15:44:39,-1.1160791,-2.064507,0.45984375,3.2811847,0.8586417,-0.50136054,2.3915012027764866,3.428527495680357,jump
23/10/2020, 15:44:39,-2.215393,-0.68018556,0.9029224,3.2811847,0.8586417,-0.50136054,2.4871444822549154,3.428527495680357,jump
23/10/2020, 15:44:39,-2.215393,-0.68018556,0.9029224,4.088748,0.89162844,-0.19714978,2.4871444822549154,4.18947841012473,jump
23/10/2020, 15:44:39,-2.7614577,1.468147,1.7148341,4.088748,0.89162844,-0.19714978,3.5667576630635622,4.18947841012473,jump
23/10/2020, 15:44:39,-2.7614577,1.468147,1.7148341,4.432054,0.75235116,0.08506986,3.5667576630635622,4.496262024649731,jump
23/10/2020, 15:44:39,-2.2177882,4.2152348,1.1663746,4.432054,0.75235116,0.08506986,4.903796311270968,4.496262024649731,jump
23/10/2020, 15:44:39,-2.2177882,4.2152348,1.1663746,4.2573466,0.6704953,0.076517746,4.903796311270968,4.310501038576923,jump
23/10/2020, 15:44:39,-1.2166699,5.767207,0.6227051,4.2573466,0.6704953,0.076517746,5.926949096501183,4.310501038576923,jump
23/10/2020, 15:44:39,-1.2166699,5.767207,0.6227051,3.5450783,0.7083689,-0.17760211,5.926949096501183,3.6195177854755936,jump
23/10/2020, 15:44:39,-1.2789404,5.407954,0.74724615,3.5450783,0.7083689,-0.17760211,5.60714136191394,3.6195177854755936,jump
23/10/2020, 15:44:39,-1.2789404,5.407954,0.74724615,2.573803,0.7071472,-0.2948882,5.60714136191394,2.685419483117891,jump
23/10/2020, 15:44:39,-2.2585034,3.9469924,1.3268409,2.573803,0.7071472,-0.2948882,4.737097579091436,2.685419483117891,jump
23/10/2020, 15:44:39,-2.2585034,3.9469924,1.3268409,1.7063745,0.63262165,-0.19470632,4.737097579091436,1.8302553705163715,jump
23/10/2020, 15:44:39,-2.943479,2.4501052,1.8729054,1.7063745,0.63262165,-0.19470632,4.26319820851364,1.8302553705163715,jump
23/10/2020, 15:44:39,-2.943479,2.4501052,1.8729054,1.1480439,0.5690917,-0.078641966,4.26319820851364,1.283765798723793,jump
23/10/2020, 15:44:39,-3.5925295,1.1855347,2.3016138,1.1480439,0.5690917,-0.078641966,4.42822618479103,1.283765798723793,jump
23/10/2020, 15:44:39,-3.5925295,1.1855347,2.3016138,0.853607,0.53121805,-0.009003356,4.42822618479103,1.0054444727097016,jump
23/10/2020, 15:44:39,-4.2439747,0.244292,2.4980054,0.853607,0.53121805,-0.009003356,4.930621730172409,1.0054444727097016,jump
23/10/2020, 15:44:39,-4.2439747,0.244292,2.4980054,0.6825648,0.5202225,0.06307872,4.930621730172409,0.8605260355311408,jump
23/10/2020, 15:44:39,-4.7708793,-0.4239185,2.44292,0.6825648,0.5202225,0.06307872,5.3766954401505584,0.8605260355311408,jump
23/10/2020, 15:44:39,-4.7708793,-0.4239185,2.44292,0.5665004,0.53366154,0.1485998,5.3766954401505584,0.7923378555785756,jump
23/10/2020, 15:44:40,1.8369801,-0.5364844,1.6501685,-1.7596736,-0.3948533,-0.6369726,2.5269284994771675,1.9126145422365854,jump
23/10/2020, 15:44:40,1.8369801,-0.5364844,1.6501685,-1.1549172,-0.106525004,-0.6015424,2.5269284994771675,1.3065353737872512,jump
23/10/2020, 15:44:40,1.3268409,-0.48618898,1.6669337,-1.1549172,-0.106525004,-0.6015424,2.1853041548521124,1.3065353737872512,jump
23/10/2020, 15:44:40,1.3268409,-0.48618898,1.6669337,-0.73219854,0.12193851,-0.5147996,2.1853041548521124,0.9033284675194084,jump
23/10/2020, 15:44:40,1.3268409,-0.48618898,1.6669337,-0.4573093,0.21967691,-0.43172196,2.1853041548521124,0.6661633384804185,jump
23/10/2020, 15:44:40,0.1939966,-0.5005591,1.8513502,-0.4573093,0.21967691,-0.43172196,1.9276129284527355,0.6661633384804185,jump
23/10/2020, 15:44:40,-1.0729688,-0.58677983,2.1315675,-0.4573093,0.21967691,-0.43172196,2.457468742254628,0.6661633384804185,jump
23/10/2020, 15:44:40,-1.0729688,-0.58677983,2.1315675,-0.30337134,0.19402058,-0.368192,2.457468742254628,0.5150179575054132,jump
23/10/2020, 15:44:40,-1.9974464,-0.79035646,2.3710694,-0.30337134,0.19402058,-0.368192,3.1994414777544233,0.5150179575054132,jump
23/10/2020, 15:44:40,-1.9974464,-0.79035646,2.3710694,-0.23251098,0.11582986,-0.30099684,3.1994414777544233,0.39758899937894304,jump
23/10/2020, 15:44:40,-2.304009,-1.0226734,2.699187,-0.23251098,0.11582986,-0.30099684,3.6932274216897127,0.39758899937894304,jump
23/10/2020, 15:44:40,-2.304009,-1.0226734,2.699187,-0.16165064,0.048634708,-0.22280611,3.6932274216897127,0.2795332327412151,jump
23/10/2020, 15:44:40,-2.2704787,-1.2502003,3.168611,-0.16165064,0.048634708,-0.22280611,4.093674430844209,0.2795332327412151,jump
23/10/2020, 15:44:40,-2.2704787,-1.2502003,3.168611,-0.034590725,0.026643569,-0.15927616,4.093674430844209,0.16515233083991895,jump
