DATE,TIME,ax,ay,az,gx,gy,gz,ma,mg,label
23/10/2020, 15:21:48,0.081430666,3.9733377,9.235196,0.09241636,0.06834279,0.038953483,10.053998721557278,0.12136265722101103,fall
23/10/2020, 15:21:48,0.06466553,3.9014869,9.273516,0.09241636,0.06834279,0.038953483,10.061007649259736,0.12136265722101103,fall
23/10/2020, 15:21:48,0.06466553,3.9014869,9.273516,0.09241636,0.07933836,0.035288293,10.061007649259736,0.12680939342423567,fall
23/10/2020, 15:21:48,-0.016765138,3.9134622,9.295072,0.09241636,0.07933836,0.035288293,10.08532712643714,0.12680939342423567,fall
23/10/2020, 15:21:48,-0.016765138,3.9134622,9.295072,0.11196405,0.031690884,0.021849263,10.08532712643714,0.11839615820274592,fall
23/10/2020, 15:21:48,0.16765137,3.9134622,9.400452,0.11196405,0.031690884,0.021849263,10.183898295367975,0.11839615820274592,fall
23/10/2020, 15:21:48,0.16765137,3.9134622,9.400452,0.20970245,-0.07948654,0.057279434,10.183898295367975,0.23146092572819993,fall
23/10/2020, 15:21:48,0.17244141,3.9805226,9.05557,0.20970245,-0.07948654,0.057279434,9.89331279860632,0.23146092572819993,fall
23/10/2020, 15:21:48,0.17244141,3.9805226,9.05557,0.07164695,-0.17111629,0.03773175,9.89331279860632,0.18930862698865997,fall
23/10/2020, 15:21:48,0.9484278,4.126619,14.748531,0.07164695,-0.17111629,0.03773175,15.344304326073187,0.18930862698865997,fall
23/10/2020, 15:21:48,0.9484278,4.126619,14.748531,-0.16292521,0.22838943,0.021849263,15.344304326073187,0.28139606594223165,fall
23/10/2020, 15:21:48,1.7723145,4.28948,4.84752,-0.16292521,0.22838943,0.021849263,6.71112421726689,0.28139606594223165,fall
23/10/2020, 15:21:48,1.7723145,4.28948,4.84752,0.19748515,0.329793,-0.0025853384,6.71112421726689,0.38440928050694745,fall
23/10/2020, 15:21:48,-0.49097902,3.9709425,1.0178833,0.19748515,0.329793,-0.0025853384,4.128623393394603,0.38440928050694745,fall
23/10/2020, 15:21:48,-0.49097902,3.9709425,1.0178833,0.20359379,0.28092378,0.010853692,4.128623393394603,0.3471115187727907,fall
23/10/2020, 15:21:48,1.8633252,4.1218286,1.6765138,0.20359379,0.28092378,0.010853692,4.824121690076947,0.3471115187727907,fall
23/10/2020, 15:21:48,1.8633252,4.1218286,1.6765138,0.29522353,0.0072562858,0.07682711,4.824121690076947,0.30514257885367185,fall
23/10/2020, 15:21:48,4.24637,4.4259963,10.502161,0.29522353,0.0072562858,0.07682711,12.162092184419222,0.30514257885367185,fall
23/10/2020, 15:21:48,4.24637,4.4259963,10.502161,-0.04930432,-0.05871714,0.06460981,12.162092184419222,0.10026488004040054,fall
23/10/2020, 15:21:48,0.90052736,4.1242237,19.267933,-0.04930432,-0.05871714,0.06460981,19.724943818678696,0.10026488004040054,fall
23/10/2020, 15:21:48,0.90052736,4.1242237,19.267933,0.27811933,0.078116626,0.047505595,19.724943818678696,0.2927615890387576,fall
23/10/2020, 15:21:48,-4.3278003,3.6092947,7.2401443,0.27811933,0.078116626,0.047505595,9.174778030202262,0.2927615890387576,fall
23/10/2020, 15:21:48,-4.3278003,3.6092947,7.2401443,-0.005322039,0.37621874,0.03773175,9.174778030202262,0.3781435529544124,fall
23/10/2020, 15:21:48,1.7699195,4.1793094,0.22273682,-0.005322039,0.37621874,0.03773175,4.544100964346042,0.3781435529544124,fall
23/10/2020, 15:21:48,1.7699195,4.1793094,0.22273682,-0.026091449,0.059790675,0.08537922,4.544100964346042,0.10744905666715503,fall
23/10/2020, 15:21:48,2.7494826,4.25595,17.73512,-0.026091449,0.059790675,0.08537922,18.444708557407857,0.10744905666715503,fall
23/10/2020, 15:21:48,2.7494826,4.25595,17.73512,0.35386658,-0.0037392848,0.068275,18.444708557407857,0.36041228046905593,fall
23/10/2020, 15:21:48,-4.272715,3.772156,10.128538,0.35386658,-0.0037392848,0.068275,11.622071236653143,0.36041228046905593,fall
23/10/2020, 15:21:48,-4.272715,3.772156,10.128538,0.25490648,0.27481514,0.031623103,11.622071236653143,0.37616578028534653,fall
23/10/2020, 15:21:48,0.07424561,3.7482057,-0.42152345,0.25490648,0.27481514,0.031623103,3.7725641298566024,0.37616578028534653,fall
23/10/2020, 15:21:49,13.778548,-3.791316,4.0356083,-0.53433114,-1.2352431,-0.91643935,14.849532085600757,1.628249468708136,fall
23/10/2020, 15:21:49,12.89239,-3.535049,4.009263,-0.53433114,-1.2352431,-0.91643935,13.956521330989018,1.628249468708136,fall
23/10/2020, 15:21:49,12.89239,-3.535049,4.009263,-0.2594419,-1.2034781,-0.9787476,13.956521330989018,1.5727735103151874,fall
23/10/2020, 15:21:49,12.18107,-3.4009278,4.0044727,-0.2594419,-1.2034781,-0.9787476,13.26576744761766,1.5727735103151874,fall
23/10/2020, 15:21:49,12.18107,-3.4009278,4.0044727,-0.03464356,-1.2523474,-1.1058075,13.26576744761766,1.671042902909345,fall
23/10/2020, 15:21:49,11.373948,-3.4368532,4.021238,-0.03464356,-1.2523474,-1.1058075,12.543883325394376,1.671042902909345,fall
23/10/2020, 15:21:49,11.373948,-3.4368532,4.021238,0.19015476,-1.3061035,-1.1876634,12.543883325394376,1.7755589371201828,fall
23/10/2020, 15:21:49,10.724898,-3.4727786,4.1314087,0.19015476,-1.3061035,-1.1876634,12.006338869974595,1.7755589371201828,fall
23/10/2020, 15:21:49,10.724898,-3.4727786,4.1314087,0.3758577,-1.3451988,-1.2255371,12.006338869974595,1.8581630140306007,fall
23/10/2020, 15:21:49,10.504556,-2.8572583,4.138594,0.3758577,-1.3451988,-1.2255371,11.646354672175804,1.8581630140306007,fall
23/10/2020, 15:21:49,10.504556,-2.8572583,4.138594,0.50536114,-1.321986,-1.2841802,11.646354672175804,1.911061342428831,fall
23/10/2020, 15:21:49,10.214759,-3.1326857,4.3445654,0.50536114,-1.321986,-1.2841802,11.533874749069758,1.911061342428831,fall
23/10/2020, 15:21:49,10.214759,-3.1326857,4.3445654,0.62020373,-1.2156954,-1.3122799,11.533874749069758,1.893316289153685,fall
23/10/2020, 15:21:49,10.391991,-3.03928,4.239185,0.62020373,-1.2156954,-1.3122799,11.627612854668433,1.893316289153685,fall
23/10/2020, 15:21:49,10.391991,-3.03928,4.239185,0.6470818,-1.1326178,-1.3269407,11.627612854668433,1.8607282180342586,fall
23/10/2020, 15:21:49,10.243499,-2.6441016,4.3086405,0.6470818,-1.1326178,-1.3269407,11.422999775541772,1.8607282180342586,fall
23/10/2020, 15:21:49,10.243499,-2.6441016,4.3086405,0.5847736,-1.1008528,-1.3440449,11.422999775541772,1.8331104471600663,fall
23/10/2020, 15:21:49,9.783655,-2.4788454,4.2343946,0.5847736,-1.1008528,-1.3440449,10.945075602096749,1.8331104471600663,fall
23/10/2020, 15:21:49,9.783655,-2.4788454,4.2343946,0.4601571,-1.1118484,-1.3110582,10.945075602096749,1.7795574800653895,fall
23/10/2020, 15:21:49,9.0076685,-2.560276,4.4427614,0.4601571,-1.1118484,-1.3110582,10.364903961070013,1.7795574800653895,fall
23/10/2020, 15:21:49,9.0076685,-2.560276,4.4427614,0.35386658,-1.1252874,-1.1913286,10.364903961070013,1.6765313171637002,fall
23/10/2020, 15:21:49,9.002879,-2.4213648,4.4331813,0.35386658,-1.1252874,-1.1913286,10.323174734102357,1.6765313171637002,fall
23/10/2020, 15:21:49,9.002879,-2.4213648,4.4331813,0.18160266,-1.086192,-1.113138,10.323174734102357,1.565844414525633,fall
23/10/2020, 15:21:49,9.24717,-2.2249732,4.4571314,0.18160266,-1.086192,-1.113138,10.503651138475508,1.565844414525633,fall
23/10/2020, 15:21:49,9.24717,-2.2249732,4.4571314,-0.028534908,-0.98601025,-1.0715991,10.503651138475508,1.4564872630346863,fall
23/10/2020, 15:21:49,9.328602,-2.0285816,4.4667115,-0.028534908,-0.98601025,-1.0715991,10.539898834211087,1.4564872630346863,fall
23/10/2020, 15:21:49,9.328602,-2.0285816,4.4667115,-0.27410263,-0.8503982,-1.017843,10.539898834211087,1.354368380186396,fall
23/10/2020, 15:21:49,9.230406,-2.064507,4.4212065,-0.27410263,-0.8503982,-1.017843,10.440768517877112,1.354368380186396,fall
23/10/2020, 15:21:49,9.230406,-2.064507,4.4212065,-0.51600516,-0.71356446,-0.90177864,10.440768517877112,1.2604127372786684,fall
23/10/2020, 15:21:49,9.249566,-2.1339624,4.4427614,-0.51600516,-0.71356446,-0.90177864,10.480763196178966,1.2604127372786684,fall
23/10/2020, 15:21:50,11.412269,-2.9985645,1.7818946,0.7326029,-0.85161996,-1.9915618,11.933415800616247,2.2865436450195156,fall
23/10/2020, 15:21:50,11.412269,-2.9985645,1.7818946,0.64341664,-0.7734292,-1.8962668,11.933415800616247,2.146626556353579,fall
23/10/2020, 15:21:50,11.239827,-2.816543,1.4944923,0.64341664,-0.7734292,-1.8962668,11.6833272982155,2.146626556353579,fall
23/10/2020, 15:21:50,11.239827,-2.816543,1.4944923,0.48947865,-0.72456,-1.8034154,11.6833272982155,2.0042164906144593,fall
23/10/2020, 15:21:50,11.062595,-2.7375073,1.4082716,0.48947865,-0.72456,-1.8034154,11.482952210987696,2.0042164906144593,fall
23/10/2020, 15:21:50,11.062595,-2.7375073,1.4082716,0.28789318,-0.72700346,-1.7105639,11.482952210987696,1.8808097602063159,fall
23/10/2020, 15:21:50,10.938055,-2.8213332,1.3867164,0.28789318,-0.72700346,-1.7105639,11.380858981606481,1.8808097602063159,fall
23/10/2020, 15:21:50,10.938055,-2.8213332,1.3867164,0.1144075,-0.7318904,-1.6177124,11.380858981606481,1.7792543227416608,fall
23/10/2020, 15:21:50,10.887759,-3.0368848,1.3531861,0.1144075,-0.7318904,-1.6177124,11.384071437124485,1.7792543227416608,fall
23/10/2020, 15:21:50,10.887759,-3.0368848,1.3531861,-0.04563913,-0.7477729,-1.5273044,11.384071437124485,1.7011484246611928,fall
23/10/2020, 15:21:50,10.928474,-3.3817677,1.4729371,-0.04563913,-0.7477729,-1.5273044,11.534186149033394,1.7011484246611928,fall
23/10/2020, 15:21:50,10.928474,-3.3817677,1.4729371,-0.121386394,-0.72211653,-1.424679,11.534186149033394,1.6018418489491646,fall
23/10/2020, 15:21:50,11.1104965,-3.5494192,1.7411792,-0.121386394,-0.72211653,-1.424679,11.792930698216114,1.6018418489491646,fall
23/10/2020, 15:21:50,11.1104965,-3.5494192,1.7411792,-0.1262733,-0.66103005,-1.2963974,11.792930698216114,1.4606683476685292,fall
23/10/2020, 15:21:50,10.97877,-3.652405,1.8250049,-0.1262733,-0.66103005,-1.2963974,11.71341546283311,1.4606683476685292,fall
23/10/2020, 15:21:50,10.97877,-3.652405,1.8250049,-0.09573006,-0.57306546,-1.1620071,11.71341546283311,1.2991646356337494,fall
23/10/2020, 15:21:50,10.676997,-3.6068995,1.9112257,-0.09573006,-0.57306546,-1.1620071,11.430694487747223,1.2991646356337494,fall
23/10/2020, 15:21:50,10.676997,-3.6068995,1.9112257,-0.04563913,-0.49365303,-1.0434994,11.430694487747223,1.1552779484322029,fall
23/10/2020, 15:21:50,10.209969,-3.6045046,1.9375709,-0.04563913,-0.49365303,-1.0434994,10.999549652105218,1.1552779484322029,fall
23/10/2020, 15:21:50,10.209969,-3.6045046,1.9375709,-0.010208959,-0.44234037,-0.93110013,10.999549652105218,1.0308815070318906,fall
23/10/2020, 15:21:50,9.6758795,-3.5087037,1.8824854,-0.010208959,-0.44234037,-0.93110013,10.463144682127515,1.0308815070318906,fall
23/10/2020, 15:21:50,9.6758795,-3.5087037,1.8824854,-0.03586529,-0.42890134,-0.79670984,10.463144682127515,0.9055325749386974,fall
23/10/2020, 15:21:50,9.290281,-3.3386574,1.9830762,-0.03586529,-0.42890134,-0.79670984,10.069188195861411,0.9055325749386974,fall
23/10/2020, 15:21:50,9.290281,-3.3386574,1.9830762,-0.08717795,-0.4191275,-0.664763,10.069188195861411,0.7906817704332707,fall
23/10/2020, 15:21:50,9.029224,-3.2045362,2.1028273,-0.08717795,-0.4191275,-0.664763,9.809068668392571,0.7906817704332707,fall
23/10/2020, 15:21:50,9.029224,-3.2045362,2.1028273,-0.14948618,-0.4105754,-0.5499204,9.809068668392571,0.7023750383303643,fall
23/10/2020, 15:21:50,8.878338,-3.187771,2.1124072,-0.14948618,-0.4105754,-0.5499204,9.666903942794821,0.7023750383303643,fall
23/10/2020, 15:21:50,8.878338,-3.187771,2.1124072,-0.20446403,-0.41179714,-0.43385604,9.666903942794821,0.6321498918907469,fall
23/10/2020, 15:21:50,8.835227,-3.288362,2.184258,-0.20446403,-0.41179714,-0.43385604,9.677062783799913,0.6321498918907469,fall
23/10/2020, 15:21:50,8.835227,-3.288362,2.184258,-0.2276769,-0.3946929,-0.31656995,9.677062783799913,0.5548295138496602,fall
23/10/2020, 15:21:51,11.239827,0.30416748,0.859812,1.0368137,0.7854983,0.37615097,11.276768556000597,1.3540605172781799,fall
23/10/2020, 15:21:51,10.5692215,0.65384036,1.1831397,1.0368137,0.7854983,0.37615097,10.65531650261132,1.3540605172781799,fall
23/10/2020, 15:21:51,10.5692215,0.65384036,1.1831397,0.90975374,0.78427655,0.39325517,10.65531650261132,1.2638794239393683,fall
23/10/2020, 15:21:51,10.109378,1.0059083,1.2909156,0.90975374,0.78427655,0.39325517,10.240988001848864,1.2638794239393683,fall
23/10/2020, 15:21:51,10.109378,1.0059083,1.2909156,0.84744555,0.7500681,0.30895582,10.240988001848864,1.1731239707088,fall
23/10/2020, 15:21:51,9.419612,0.7711963,1.4825171,0.84744555,0.7500681,0.30895582,9.566696905955107,1.1731239707088,fall
23/10/2020, 15:21:51,9.419612,0.7711963,1.4825171,0.9109755,0.7085293,0.22099125,9.566696905955107,1.1750435245317878,fall
23/10/2020, 15:21:51,9.144185,0.21076173,1.7627344,0.9109755,0.7085293,0.22099125,9.314922095312252,1.1750435245317878,fall
23/10/2020, 15:21:51,9.144185,0.21076173,1.7627344,1.035592,0.64866453,0.14768746,9.314922095312252,1.2308647255538467,fall
23/10/2020, 15:21:51,9.831555,0.22273682,2.1219873,1.035592,0.64866453,0.14768746,10.060413654480762,1.2308647255538467,fall
23/10/2020, 15:21:51,9.831555,0.22273682,2.1219873,1.012379,0.61567783,0.07804884,10.060413654480762,1.187460381477874,fall
23/10/2020, 15:21:51,11.1104965,1.1639795,2.0094216,1.012379,0.61567783,0.07804884,11.3505839675484,1.187460381477874,fall
23/10/2020, 15:21:51,11.1104965,1.1639795,2.0094216,0.79857635,0.6107909,0.048727322,11.3505839675484,1.006560519981745,fall
23/10/2020, 15:21:51,11.625425,1.9327809,2.0621119,0.79857635,0.6107909,0.048727322,11.964048707163355,1.006560519981745,fall
23/10/2020, 15:21:51,11.625425,1.9327809,2.0621119,0.45282674,0.605904,0.052392513,11.964048707163355,0.7582325943270215,fall
23/10/2020, 15:21:51,11.685301,1.4920973,1.839375,0.45282674,0.605904,0.052392513,11.922915335936938,0.7582325943270215,fall
23/10/2020, 15:21:51,11.685301,1.4920973,1.839375,0.10585539,0.6266734,-0.017246097,11.922915335936938,0.6357848239203737,fall
23/10/2020, 15:21:51,11.785892,1.2286451,1.5088624,0.10585539,0.6266734,-0.017246097,11.945437356733644,0.6357848239203737,fall
23/10/2020, 15:21:51,11.785892,1.2286451,1.5088624,-0.30708933,0.68287295,-0.08932817,11.945437356733644,0.7540549350114774,fall
23/10/2020, 15:21:51,11.656561,1.3699512,0.6514453,-0.30708933,0.68287295,-0.08932817,11.754852589634421,0.7540549350114774,fall
23/10/2020, 15:21:51,11.656561,1.3699512,0.6514453,-0.7847858,0.7305204,-0.13208872,11.754852589634421,1.0802760239101332,fall
23/10/2020, 15:21:51,10.995535,1.5567628,0.6658155,-0.7847858,0.7305204,-0.13208872,11.12513408333105,1.0802760239101332,fall
23/10/2020, 15:21:51,10.995535,1.5567628,0.6658155,-1.1610786,0.67065567,-0.19073176,11.12513408333105,1.3543489511412494,fall
23/10/2020, 15:21:51,10.768008,0.8334668,1.5136524,-1.1610786,0.67065567,-0.19073176,10.90576966385102,1.3543489511412494,fall
23/10/2020, 15:21:51,10.768008,0.8334668,1.5136524,-1.1146529,0.51183075,-0.28724843,10.90576966385102,1.259735448816826,fall
23/10/2020, 15:21:51,11.067386,-0.12693603,2.7470875,-1.1146529,0.51183075,-0.28724843,11.403930375899192,1.259735448816826,fall
23/10/2020, 15:21:51,11.067386,-0.12693603,2.7470875,-0.6455085,0.3175757,-0.3910955,11.403930375899192,0.8188353082244171,fall
23/10/2020, 15:21:51,12.044554,0.17244141,3.8559816,-0.6455085,0.3175757,-0.3910955,12.647909125518563,0.8188353082244171,fall
23/10/2020, 15:21:51,12.044554,0.17244141,3.8559816,-0.13482542,0.14409006,-0.52426404,12.647909125518563,0.5601719559861084,fall
23/10/2020, 15:21:51,13.261224,1.5495777,3.915857,-0.13482542,0.14409006,-0.52426404,13.913848648817295,0.5601719559861084,fall
23/10/2020, 15:21:52,8.293953,-1.8657203,5.010381,0.075312145,0.14897697,0.08293576,9.867851211050466,0.18639848646276805,fall
23/10/2020, 15:21:52,8.265213,-1.8250049,5.149292,0.075312145,0.14897697,0.08293576,9.907552532274272,0.18639848646276805,fall
23/10/2020, 15:21:52,8.265213,-1.8250049,5.149292,0.069203496,0.14286833,0.08904441,9.907552532274272,0.18201480323447827,fall
23/10/2020, 15:21:52,8.277188,-2.0860622,5.0918117,0.069203496,0.14286833,0.08904441,9.939318266069883,0.18201480323447827,fall
23/10/2020, 15:21:52,8.277188,-2.0860622,5.0918117,0.088751175,0.12454237,0.09881825,9.939318266069883,0.18207860814614213,fall
23/10/2020, 15:21:52,8.155042,-2.064507,5.142107,0.088751175,0.12454237,0.09881825,9.859419796666336,0.18207860814614213,fall
23/10/2020, 15:21:52,8.155042,-2.064507,5.142107,0.102190204,0.12087718,0.10126171,9.859419796666336,0.18790440130935834,fall
23/10/2020, 15:21:52,8.246053,-1.9136207,5.0558863,0.102190204,0.12087718,0.10126171,9.86008701829063,0.18790440130935834,fall
23/10/2020, 15:21:52,8.246053,-1.9136207,5.0558863,0.122959614,0.11721199,0.10003998,9.86008701829063,0.19714389439933827,fall
23/10/2020, 15:21:52,8.241262,-2.1267774,5.271438,0.122959614,0.11721199,0.10003998,10.011475843418706,0.19714389439933827,fall
23/10/2020, 15:21:52,8.241262,-2.1267774,5.271438,0.1510594,0.11110334,0.11103555,10.011475843418706,0.2179261087439796,fall
23/10/2020, 15:21:52,8.157437,-1.9926564,5.005591,0.1510594,0.11110334,0.11103555,9.776011632992775,0.2179261087439796,fall
23/10/2020, 15:21:52,8.157437,-1.9926564,5.005591,0.15961151,0.13065103,0.11592247,9.776011632992775,0.23660841964133295,fall
23/10/2020, 15:21:52,8.135881,-1.961521,5.0606766,0.15961151,0.13065103,0.11592247,9.780111384203588,0.23660841964133295,fall
23/10/2020, 15:21:52,8.135881,-1.961521,5.0606766,0.16205497,0.1465335,0.13180497,9.780111384203588,0.2551596211991796,fall
23/10/2020, 15:21:52,8.238868,-1.9375709,4.9457154,0.16205497,0.1465335,0.13180497,9.802715142125587,0.2551596211991796,fall
23/10/2020, 15:21:52,8.238868,-1.9375709,4.9457154,0.13273346,0.17952022,0.14035708,9.802715142125587,0.26371535954518227,fall
23/10/2020, 15:21:52,8.248447,-1.5232325,4.9792457,0.13273346,0.17952022,0.14035708,9.754486624507555,0.26371535954518227,fall
23/10/2020, 15:21:52,8.248447,-1.5232325,4.9792457,0.10096847,0.20517655,0.14280054,9.754486624507555,0.26959978139351054,fall
23/10/2020, 15:21:52,8.262817,-1.9112257,5.137317,0.10096847,0.20517655,0.14280054,9.915591888676826,0.26959978139351054,fall
23/10/2020, 15:21:52,8.262817,-1.9112257,5.137317,0.09241636,0.21739385,0.1574613,9.915591888676826,0.28389246011714186,fall
23/10/2020, 15:21:52,8.224498,-1.8130299,5.0487013,0.09241636,0.21739385,0.1574613,9.819308836425138,0.28389246011714186,fall
23/10/2020, 15:21:52,8.224498,-1.8130299,5.0487013,0.07286868,0.24427192,0.16234823,9.819308836425138,0.3022177389719258,fall
23/10/2020, 15:21:52,8.222102,-1.9232007,5.130132,0.07286868,0.24427192,0.16234823,9.88027942024803,0.3022177389719258,fall
23/10/2020, 15:21:52,8.222102,-1.9232007,5.130132,0.06431657,0.2687065,0.1733438,9.88027942024803,0.32617154247370556,fall
23/10/2020, 15:21:52,8.181387,-2.0166066,5.0031962,0.06431657,0.2687065,0.1733438,9.79968198733234,0.32617154247370556,fall
23/10/2020, 15:21:52,8.181387,-2.0166066,5.0031962,0.067981765,0.29680628,0.1782307,9.79968198733234,0.3528195986010233,fall
23/10/2020, 15:21:52,8.0017605,-1.9974464,5.242698,0.067981765,0.29680628,0.1782307,9.772606988648377,0.3528195986010233,fall
23/10/2020, 15:21:52,8.0017605,-1.9974464,5.242698,0.11929443,0.31513223,0.19166975,9.772606988648377,0.38765548507718434,fall
23/10/2020, 15:21:52,8.133487,-2.3926246,5.2834134,0.11929443,0.31513223,0.19166975,9.989630448354994,0.38765548507718434,fall
23/10/2020, 15:21:53,8.372989,-3.1925611,0.96040285,-1.5104934,-0.10758633,0.09637479,9.012311585049066,1.517383676905559,fall
23/10/2020, 15:21:53,8.298743,-3.1997461,0.98435307,-1.5104934,-0.10758633,0.09637479,8.948545455107281,1.517383676905559,fall
23/10/2020, 15:21:53,8.298743,-3.1997461,0.98435307,-1.2698126,0.13187274,0.13791361,8.948545455107281,1.2840695400955255,fall
23/10/2020, 15:21:53,8.102351,-2.0309765,1.1520045,-1.2698126,0.13187274,0.13791361,8.432086028282658,1.2840695400955255,fall
23/10/2020, 15:21:53,8.102351,-2.0309765,1.1520045,-1.2160565,0.28825417,0.19166975,8.432086028282658,1.2643658838346412,fall
23/10/2020, 15:21:53,7.9969707,-0.48139894,1.3627661,-1.2160565,0.28825417,0.19166975,8.126525465626832,1.2643658838346412,fall
23/10/2020, 15:21:53,7.9969707,-0.48139894,1.3627661,-1.3614423,0.36522317,0.2967385,8.126525465626832,1.4404745451015084,fall
23/10/2020, 15:21:53,8.087981,0.50534916,1.3771362,-1.3614423,0.36522317,0.2967385,8.219934443215653,1.4404745451015084,fall
23/10/2020, 15:21:53,8.087981,0.50534916,1.3771362,-1.6192274,0.4153141,0.42135498,8.219934443215653,1.7239266893367438,fall
23/10/2020, 15:21:53,8.361013,1.1064991,1.5160475,-1.6192274,0.4153141,0.42135498,8.56908895059731,1.7239266893367438,fall
23/10/2020, 15:21:53,8.361013,1.1064991,1.5160475,-1.8085955,0.5093873,0.5239803,8.56908895059731,1.9506533858660222,fall
23/10/2020, 15:21:53,8.583751,0.7759864,1.6046631,-1.8085955,0.5093873,0.5239803,8.76686233093226,1.9506533858660222,fall
23/10/2020, 15:21:53,8.583751,0.7759864,1.6046631,-1.8366953,0.6596601,0.5850668,8.76686233093226,2.0373768130247405,fall
23/10/2020, 15:21:53,8.660391,-0.42152345,1.9902613,-1.8366953,0.6596601,0.5850668,8.896133534832973,2.0373768130247405,fall
23/10/2020, 15:21:53,8.660391,-0.42152345,1.9902613,-1.5984579,0.7940504,0.588732,8.896133534832973,1.8794119200399146,fall
23/10/2020, 15:21:53,8.749006,-1.9208057,1.7387843,-1.5984579,0.7940504,0.588732,9.124580874384199,1.8794119200399146,fall
23/10/2020, 15:21:53,8.749006,-1.9208057,1.7387843,-1.1451961,0.92966247,0.54719317,9.124580874384199,1.5732662609215762,fall
23/10/2020, 15:21:53,9.060359,-2.8285182,1.698069,-1.1451961,0.92966247,0.54719317,9.642305658713003,1.5732662609215762,fall
23/10/2020, 15:21:53,9.060359,-2.8285182,1.698069,-0.68582565,1.131248,0.51664996,9.642305658713003,1.420213375044053,fall
23/10/2020, 15:21:53,9.388477,-2.4980054,1.7220191,-0.68582565,1.131248,0.51664996,9.866553963714965,1.420213375044053,fall
23/10/2020, 15:21:53,9.388477,-2.4980054,1.7220191,-0.38528007,1.3878113,0.52886724,9.866553963714965,1.534327706218304,fall
23/10/2020, 15:21:53,9.625584,-1.1783496,1.7675245,-0.38528007,1.3878113,0.52886724,9.857206053502999,1.534327706218304,fall
23/10/2020, 15:21:53,9.625584,-1.1783496,1.7675245,-0.33152395,1.638266,0.5960624,9.857206053502999,1.7745742935058577,fall
23/10/2020, 15:21:53,9.687855,-0.021555176,1.5950831,-0.33152395,1.638266,0.5960624,9.818313743244989,1.7745742935058577,fall
23/10/2020, 15:21:53,9.687855,-0.021555176,1.5950831,-0.5245573,1.8166385,0.7072398,9.818313743244989,2.0187926656215276,fall
23/10/2020, 15:21:53,9.565708,0.60594,1.3555812,-0.5245573,1.8166385,0.7072398,9.680265294283934,2.0187926656215276,fall
23/10/2020, 15:21:53,9.565708,0.60594,1.3555812,-0.80433345,1.9021596,0.83429974,9.680265294283934,2.227379490276554,fall
23/10/2020, 15:21:53,9.448353,0.7089258,1.1400293,-0.80433345,1.9021596,0.83429974,9.543249629428912,2.227379490276554,fall
23/10/2020, 15:21:53,9.448353,0.7089258,1.1400293,-1.0706706,1.9559157,0.9821291,9.543249629428912,2.4364973406991424,fall
23/10/2020, 15:21:53,9.242381,0.51971924,1.2478052,-1.0706706,1.9559157,0.9821291,9.340703095838004,2.4364973406991424,fall
23/10/2020, 15:21:54,10.023157,-0.76401126,5.702542,0.21092418,-0.62804335,-0.9274349,11.557091985459127,1.139764447658666,fall
23/10/2020, 15:21:54,10.523716,-1.5519727,6.2821364,0.21092418,-0.62804335,-0.9274349,12.354046120178541,1.139764447658666,fall
23/10/2020, 15:21:54,10.523716,-1.5519727,6.2821364,0.2927801,-0.5816176,-0.89933515,12.354046120178541,1.1103165845089356,fall
23/10/2020, 15:21:54,10.693763,-1.4298267,6.5072684,0.2927801,-0.5816176,-0.89933515,12.599424958279933,1.1103165845089356,fall
23/10/2020, 15:21:54,10.693763,-1.4298267,6.5072684,0.37341428,-0.5987218,-0.8651267,12.599424958279933,1.1164005897339304,fall
23/10/2020, 15:21:54,10.533297,-0.8909473,5.7312818,0.37341428,-0.5987218,-0.8651267,12.024629499131015,1.1164005897339304,fall
23/10/2020, 15:21:54,10.533297,-0.8909473,5.7312818,0.39662713,-0.7208948,-0.8077054,12.024629499131015,1.1529919461878584,fall
23/10/2020, 15:21:54,10.33451,-0.52690434,4.5936475,0.39662713,-0.7208948,-0.8077054,11.321718914958884,1.1529919461878584,fall
23/10/2020, 15:21:54,10.33451,-0.52690434,4.5936475,0.3221016,-0.8736111,-0.71974087,11.321718914958884,1.176848628242465,fall
23/10/2020, 15:21:54,10.33451,-0.5987549,3.2739918,0.3221016,-0.8736111,-0.71974087,10.85723830900199,1.176848628242465,fall
23/10/2020, 15:21:54,10.33451,-0.5987549,3.2739918,0.14617248,-1.0165534,-0.601233,10.85723830900199,1.1900539229371885,fall
23/10/2020, 15:21:54,10.30577,-1.3603711,2.193838,0.14617248,-1.0165534,-0.601233,10.62414362968965,1.1900539229371885,fall
23/10/2020, 15:21:54,10.30577,-1.3603711,2.193838,-0.052969508,-1.1057397,-0.44973853,10.62414362968965,1.1948769093422706,fall
23/10/2020, 15:21:54,10.253079,-2.066902,1.9016455,-0.052969508,-1.1057397,-0.44973853,10.630803205673763,1.1948769093422706,fall
23/10/2020, 15:21:54,10.253079,-2.066902,1.9016455,-0.11527774,-1.1692697,-0.2933571,10.630803205673763,1.2110074046393087,fall
23/10/2020, 15:21:54,10.293795,-3.786526,1.8824854,-0.11527774,-1.1692697,-0.2933571,11.128510145074413,1.2110074046393087,fall
23/10/2020, 15:21:54,10.293795,-3.786526,1.8824854,0.18526785,-1.3085469,-0.19439694,11.128510145074413,1.335817854116082,fall
23/10/2020, 15:21:54,9.939331,-6.219866,0.37362307,0.18526785,-1.3085469,-0.19439694,11.731011319250321,1.335817854116082,fall
23/10/2020, 15:21:54,9.939331,-6.219866,0.37362307,0.9415187,-1.0617574,0.16356994,11.731011319250321,1.4284752382401673,fall
23/10/2020, 15:21:54,11.819422,-8.4304695,5.609136,0.9415187,-1.0617574,0.16356994,15.563866967520445,1.4284752382401673,fall
23/10/2020, 15:21:54,11.819422,-8.4304695,5.609136,1.9922066,-0.65980834,0.20755222,15.563866967520445,2.1088650975768326,fall
23/10/2020, 15:21:54,14.092296,-6.318062,8.562195,1.9922066,-0.65980834,0.20755222,17.65847904184111,2.1088650975768326,fall
23/10/2020, 15:21:54,14.092296,-6.318062,8.562195,2.3122997,-0.25052875,0.049949054,17.65847904184111,2.3263683280756204,fall
23/10/2020, 15:21:54,12.616963,-1.104104,6.1791506,2.3122997,-0.25052875,0.049949054,14.092150749263904,2.3263683280756204,fall
23/10/2020, 15:21:54,12.616963,-1.104104,6.1791506,1.8077253,0.07200798,0.18556109,14.092150749263904,1.8186502865180472,fall
23/10/2020, 15:21:54,10.473421,1.0442286,5.470225,1.8077253,0.07200798,0.18556109,11.861969597549953,1.8186502865180472,fall
23/10/2020, 15:21:54,10.473421,1.0442286,5.470225,0.895093,0.25893265,0.36882058,11.861969597549953,1.0021308582961665,fall
23/10/2020, 15:21:54,8.816068,0.8646021,5.257068,0.895093,0.25893265,0.36882058,10.300842295428914,1.0021308582961665,fall
23/10/2020, 15:21:54,8.816068,0.8646021,5.257068,0.01911256,0.07322971,0.32606003,10.300842295428914,0.33472827967906543,fall
23/10/2020, 15:21:54,8.095166,2.5842261,5.261858,0.01911256,0.07322971,0.32606003,9.99485317934054,0.33472827967906543,fall
23/10/2020, 15:21:55,10.154883,-0.21555176,2.7375073,-0.024869718,0.08178182,0.08537922,10.519603869651837,0.1208154797694847,fall
23/10/2020, 15:21:55,9.321417,0.2682422,1.705254,-0.024869718,0.08178182,0.08537922,9.47990807597908,0.1208154797694847,fall
23/10/2020, 15:21:55,9.321417,0.2682422,1.705254,0.030108131,0.09033393,0.102483444,9.47990807597908,0.13989129699171843,fall
23/10/2020, 15:21:55,8.181387,0.19160157,1.4082716,0.030108131,0.09033393,0.102483444,8.303916685030591,0.13989129699171843,fall
23/10/2020, 15:21:55,8.181387,0.19160157,1.4082716,0.13273346,-0.0135131255,0.12447458,8.303916685030591,0.18246834673379622,fall
23/10/2020, 15:21:55,7.7454934,-0.2083667,1.7651294,0.13273346,-0.0135131255,0.12447458,7.9468085949512846,0.18246834673379622,fall
23/10/2020, 15:21:55,7.7454934,-0.2083667,1.7651294,0.21214591,-0.19066398,0.11103555,7.9468085949512846,0.30608419204976817,fall
23/10/2020, 15:21:55,8.617281,-0.5939649,2.7470875,0.21214591,-0.19066398,0.11103555,9.064039664119266,0.30608419204976817,fall
23/10/2020, 15:21:55,8.617281,-0.5939649,2.7470875,0.19626342,-0.28351548,0.09148787,9.064039664119266,0.356749756211498,fall
23/10/2020, 15:21:55,10.274634,-0.46702883,3.3171022,0.19626342,-0.28351548,0.09148787,10.806914182448976,0.356749756211498,fall
23/10/2020, 15:21:55,10.274634,-0.46702883,3.3171022,0.109520584,-0.18211186,0.09881825,10.806914182448976,0.2343598392087802,fall
23/10/2020, 15:21:55,11.235037,-0.4406836,3.5494192,0.109520584,-0.18211186,0.09881825,11.79061624619145,0.2343598392087802,fall
23/10/2020, 15:21:55,11.235037,-0.4406836,3.5494192,0.01911256,0.009699745,0.10737036,11.79061624619145,0.10948867342190576,fall
23/10/2020, 15:21:55,10.715318,-0.44547364,2.9698243,0.01911256,0.009699745,0.10737036,11.128177622311627,0.10948867342190576,fall
23/10/2020, 15:21:55,10.715318,-0.44547364,2.9698243,-0.04197394,0.11965545,0.09637479,11.128177622311627,0.1592712740053521,fall
23/10/2020, 15:21:55,9.472302,-0.36164796,2.215393,-0.04197394,0.11965545,0.09637479,9.734642733195253,0.1592712740053521,fall
23/10/2020, 15:21:55,9.472302,-0.36164796,2.215393,-0.03953048,0.10621642,0.08293576,9.734642733195253,0.14043833959596713,fall
23/10/2020, 15:21:55,8.49753,-0.1939966,1.8657203,-0.03953048,0.10621642,0.08293576,8.70210104702624,0.14043833959596713,fall
23/10/2020, 15:21:55,8.49753,-0.1939966,1.8657203,0.011782181,0.0035910956,0.06460981,8.70210104702624,0.06577342477795614,fall
23/10/2020, 15:21:55,8.248447,-0.17244141,1.8345851,0.011782181,0.0035910956,0.06460981,8.451764504027212,0.06577342477795614,fall
23/10/2020, 15:21:55,8.248447,-0.17244141,1.8345851,0.088751175,-0.11980364,0.051170785,8.451764504027212,0.15763290175117955,fall
23/10/2020, 15:21:55,8.902288,-0.6849756,2.7135572,0.088751175,-0.11980364,0.051170785,9.331844615727961,0.15763290175117955,fall
23/10/2020, 15:21:55,8.902288,-0.6849756,2.7135572,0.14128557,-0.18455532,0.047505595,9.331844615727961,0.2372320809865794,fall
23/10/2020, 15:21:55,10.018367,-0.60833496,3.3650026,0.14128557,-0.18455532,0.047505595,10.585886252418927,0.2372320809865794,fall
23/10/2020, 15:21:55,10.018367,-0.60833496,3.3650026,0.102190204,-0.1344644,0.036510024,10.585886252418927,0.17279031799118805,fall
23/10/2020, 15:21:55,10.717712,-0.34488282,3.5015187,0.102190204,-0.1344644,0.036510024,11.280467042066547,0.17279031799118805,fall
23/10/2020, 15:21:55,10.717712,-0.34488282,3.5015187,0.042325433,-0.014734855,0.052392513,11.280467042066547,0.06894587463822242,fall
23/10/2020, 15:21:55,10.727293,-0.47181886,3.4991236,0.042325433,-0.014734855,0.052392513,11.293418182353154,0.06894587463822242,fall
23/10/2020, 15:21:55,10.727293,-0.47181886,3.4991236,0.0032300716,0.10743815,0.07316192,11.293418182353154,0.13002328905503366,fall
23/10/2020, 15:21:55,10.190808,-0.5963599,3.1326857,0.0032300716,0.10743815,0.07316192,10.678105558719169,0.13002328905503366,fall
23/10/2020, 15:21:56,10.938055,2.064507,1.8489552,-1.2698126,-0.28840238,-0.36543918,11.283699409842752,1.3524591387591236,fall
23/10/2020, 15:21:56,10.641072,1.9950514,1.5471827,-1.2698126,-0.28840238,-0.36543918,10.936472163913551,1.3524591387591236,fall
23/10/2020, 15:21:56,10.641072,1.9950514,1.5471827,-1.6632097,-0.08681692,-0.35688704,10.936472163913551,1.7032827034425448,fall
23/10/2020, 15:21:56,10.229129,1.4082716,1.2046949,-1.6632097,-0.08681692,-0.35688704,10.395652709693113,1.7032827034425448,fall
23/10/2020, 15:21:56,10.229129,1.4082716,1.2046949,-2.0077376,0.06345587,-0.42896912,10.395652709693113,2.0540330003789555,fall
23/10/2020, 15:21:56,9.769285,0.55324954,0.91250247,-2.0077376,0.06345587,-0.42896912,9.827394322158977,2.0540330003789555,fall
23/10/2020, 15:21:56,9.769285,0.55324954,0.91250247,-2.250862,0.11843372,-0.5389248,9.827394322158977,2.3175085151500214,fall
23/10/2020, 15:21:56,9.249566,-0.038320314,1.3124708,-2.250862,0.11843372,-0.5389248,9.342297397620362,2.3175085151500214,fall
23/10/2020, 15:21:56,9.249566,-0.038320314,1.3124708,-2.3669262,0.11476853,-0.6708716,9.342297397620362,2.4628398533985285,fall
23/10/2020, 15:21:56,9.163345,0.29698244,2.3854396,-2.3669262,0.11476853,-0.6708716,9.473405859597268,2.4628398533985285,fall
23/10/2020, 15:21:56,9.163345,0.29698244,2.3854396,-2.485434,0.08056009,-0.7918229,9.473405859597268,2.6097616543431603,fall
23/10/2020, 15:21:56,9.716595,0.9580079,2.3758595,-2.485434,0.08056009,-0.7918229,10.048616816711897,2.6097616543431603,fall
23/10/2020, 15:21:56,9.716595,0.9580079,2.3758595,-2.721228,0.064677596,-0.8761223,10.048616816711897,2.8595200063969974,fall
23/10/2020, 15:21:56,10.44468,1.3843213,1.9806812,-2.721228,0.064677596,-0.8761223,10.720577795155346,2.8595200063969974,fall
23/10/2020, 15:21:56,10.44468,1.3843213,1.9806812,-3.0046694,0.14775524,-0.86634845,10.720577795155346,3.1305637845696026,fall
23/10/2020, 15:21:56,10.722503,1.3579761,1.4897022,-3.0046694,0.14775524,-0.86634845,10.91033345420149,3.1305637845696026,fall
23/10/2020, 15:21:56,10.722503,1.3579761,1.4897022,-3.2465718,0.32734954,-0.79670984,10.91033345420149,3.358888596475814,fall
23/10/2020, 15:21:56,10.480606,0.9963282,0.8669971,-3.2465718,0.32734954,-0.79670984,10.563496467960636,3.358888596475814,fall
23/10/2020, 15:21:56,10.480606,0.9963282,0.8669971,-3.4371617,0.528935,-0.7759404,10.563496467960636,3.563135729266706,fall
23/10/2020, 15:21:56,9.917776,0.51492923,0.5292993,-3.4371617,0.528935,-0.7759404,9.945229650949388,3.563135729266706,fall
23/10/2020, 15:21:56,9.917776,0.51492923,0.5292993,-3.5422306,0.68287295,-0.83458346,9.945229650949388,3.702734487880921,fall
23/10/2020, 15:21:56,9.048384,-0.26105714,0.5484595,-3.5422306,0.68287295,-0.83458346,9.068748890203015,3.702734487880921,fall
23/10/2020, 15:21:56,9.048384,-0.26105714,0.5484595,-3.613091,0.759842,-0.90177864,9.068748890203015,3.80065666184899,fall
23/10/2020, 15:21:56,8.344249,-1.0753639,0.65384036,-3.613091,0.759842,-0.90177864,8.438625613584037,3.80065666184899,fall
23/10/2020, 15:21:56,8.344249,-1.0753639,0.65384036,-3.7120512,0.7793896,-0.940874,8.438625613584037,3.90794265446222,fall
23/10/2020, 15:21:56,7.9826,-1.2669654,0.7759864,-3.7120512,0.7793896,-0.940874,8.119683632720923,3.90794265446222,fall
23/10/2020, 15:21:56,7.9826,-1.2669654,0.7759864,-3.7633636,0.7757245,-0.9494261,8.119683632720923,3.958037895908353,fall
23/10/2020, 15:21:56,7.9394903,-0.9484278,1.0609937,-3.7633636,0.7757245,-0.9494261,8.066023144651647,3.958037895908353,fall
23/10/2020, 15:21:56,7.9394903,-0.9484278,1.0609937,-3.748703,0.7781679,-0.93965226,8.066023144651647,3.9422412239175237,fall
23/10/2020, 15:21:56,7.95865,-0.61552006,1.1735597,-3.748703,0.7781679,-0.93965226,8.068222780817882,3.9422412239175237,fall
23/10/2020, 15:21:57,10.308165,1.9088306,-1.1999048,-0.403606,-0.53885704,0.08171403,10.551855917325895,0.6781901621081097,fall
23/10/2020, 15:21:57,10.336905,1.1256592,-0.5412744,-0.403606,-0.53885704,0.08171403,10.412093059398902,0.6781901621081097,fall
23/10/2020, 15:21:57,10.336905,1.1256592,-0.5412744,-0.5245573,-0.6353737,0.10370517,10.412093059398902,0.8304305318756539,fall
23/10/2020, 15:21:57,10.624307,0.31135255,0.3161426,-0.5245573,-0.6353737,0.10370517,10.63356849566926,0.8304305318756539,fall
23/10/2020, 15:21:57,10.624307,0.31135255,0.3161426,-0.51234,-0.7001254,0.15990476,10.63356849566926,0.8821776401492529,fall
23/10/2020, 15:21:57,10.97877,-0.40954837,1.1903248,-0.51234,-0.7001254,0.15990476,11.050701303256453,0.8821776401492529,fall
23/10/2020, 15:21:57,10.97877,-0.40954837,1.1903248,-0.37917143,-0.69401675,0.23198684,11.050701303256453,0.8241651058678128,fall
23/10/2020, 15:21:57,11.270963,-0.5748047,1.8010547,-0.37917143,-0.69401675,0.23198684,11.42842067332951,0.8241651058678128,fall
23/10/2020, 15:21:57,11.270963,-0.5748047,1.8010547,-0.20568576,-0.6011653,0.30773407,11.42842067332951,0.7059791812973233,fall
23/10/2020, 15:21:57,11.158397,-0.50774413,1.8561403,-0.20568576,-0.6011653,0.30773407,11.32311256393033,0.7059791812973233,fall
23/10/2020, 15:21:57,11.158397,-0.50774413,1.8561403,-0.07251719,-0.48632267,0.37859443,11.32311256393033,0.620566051249253,fall
23/10/2020, 15:21:57,10.641072,-0.34488282,1.7363893,-0.07251719,-0.48632267,0.37859443,10.787326406989997,0.620566051249253,fall
23/10/2020, 15:21:57,10.641072,-0.34488282,1.7363893,0.008116991,-0.4069102,0.44212437,10.787326406989997,0.6009290814418139,fall
23/10/2020, 15:21:57,10.003997,-0.34009278,1.5280225,0.008116991,-0.4069102,0.44212437,10.125733005512927,0.6009290814418139,fall
23/10/2020, 15:21:57,10.003997,-0.34009278,1.5280225,0.030108131,-0.35681927,0.5019892,10.125733005512927,0.6166195221941051,fall
23/10/2020, 15:21:57,9.472302,-0.16046631,1.2621753,0.030108131,-0.35681927,0.5019892,9.557371471010024,0.6166195221941051,fall
23/10/2020, 15:21:57,9.472302,-0.16046631,1.2621753,0.030108131,-0.3336064,0.5361976,9.557371471010024,0.6322243222577381,fall
23/10/2020, 15:21:57,9.115445,0.011975098,1.0226734,0.030108131,-0.3336064,0.5361976,9.172641073737697,0.6322243222577381,fall
23/10/2020, 15:21:57,9.115445,0.011975098,1.0226734,0.0044518015,-0.3250543,0.5398628,9.172641073737697,0.6301840714721212,fall
23/10/2020, 15:21:57,8.875943,0.16525635,0.8933423,0.0044518015,-0.3250543,0.5398628,8.92231682688134,0.6301840714721212,fall
23/10/2020, 15:21:57,8.875943,0.16525635,0.8933423,-0.02975664,-0.31894565,0.5215369,8.92231682688134,0.6120559672439295,fall
23/10/2020, 15:21:57,8.684341,0.059875492,1.1520045,-0.02975664,-0.31894565,0.5215369,8.760621295414232,0.6120559672439295,fall
23/10/2020, 15:21:57,8.684341,0.059875492,1.1520045,-0.022426259,-0.30795008,0.49465877,8.760621295414232,0.5831153277394764,fall
23/10/2020, 15:21:57,8.566985,-0.081430666,1.8465601,-0.022426259,-0.30795008,0.49465877,8.76411144699045,0.5831153277394764,fall
23/10/2020, 15:21:57,8.566985,-0.081430666,1.8465601,0.020334292,-0.2774068,0.45800686,8.76411144699045,0.5358528765959893,fall
23/10/2020, 15:21:57,8.602911,-0.16525635,2.215393,0.020334292,-0.2774068,0.45800686,8.88511979078013,0.5358528765959893,fall
23/10/2020, 15:21:57,8.602911,-0.16525635,2.215393,0.03377332,-0.22975934,0.40791595,8.88511979078013,0.46938833776758127,fall
23/10/2020, 15:21:57,8.698711,-0.19160157,2.066902,0.03377332,-0.22975934,0.40791595,8.942951115683902,0.46938833776758127,fall
23/10/2020, 15:21:57,8.698711,-0.19160157,2.066902,7.866118E-4,-0.16867283,0.3492729,8.942951115683902,0.3878694441484184,fall
23/10/2020, 15:21:57,8.720266,-0.033530276,1.8872755,7.866118E-4,-0.16867283,0.3492729,8.922218222489642,0.3878694441484184,fall
23/10/2020, 15:21:58,9.14179,-3.5182838,1.9902613,-0.41460162,0.41653582,-0.36788264,9.99558866945976,0.693350009705625,fall
23/10/2020, 15:21:58,8.871153,-3.6907253,2.179468,-0.41460162,0.41653582,-0.36788264,9.852354399654297,0.693350009705625,fall
23/10/2020, 15:21:58,8.871153,-3.6907253,2.179468,-0.42926234,0.406762,-0.3544436,9.852354399654297,0.6894575816425755,fall
23/10/2020, 15:21:58,8.655601,-3.894302,2.3447242,-0.42926234,0.406762,-0.3544436,9.776642549263793,0.6894575816425755,fall
23/10/2020, 15:21:58,8.655601,-3.894302,2.3447242,-0.41704506,0.3713318,-0.3336742,9.776642549263793,0.650501621777471,fall
23/10/2020, 15:21:58,8.6077,-3.9422023,2.572251,-0.41704506,0.3713318,-0.3336742,9.810705383056588,0.650501621777471,fall
23/10/2020, 15:21:58,8.6077,-3.9422023,2.572251,-0.38772357,0.3371234,-0.30068746,9.810705383056588,0.5953105874957895,fall
23/10/2020, 15:21:58,8.717872,-3.9565725,2.8213332,-0.38772357,0.3371234,-0.30068746,9.980765173371827,0.5953105874957895,fall
23/10/2020, 15:21:58,8.717872,-3.9565725,2.8213332,-0.34618473,0.3371234,-0.2579269,9.980765173371827,0.5477429524148283,fall
23/10/2020, 15:21:58,8.760982,-3.908672,2.9530592,-0.34618473,0.3371234,-0.2579269,10.037583078078125,0.5477429524148283,fall
23/10/2020, 15:21:58,8.760982,-3.908672,2.9530592,-0.31930667,0.3701101,-0.21027943,10.037583078078125,0.5321237387830614,fall
23/10/2020, 15:21:58,8.775352,-3.8080812,2.8836036,-0.31930667,0.3701101,-0.21027943,9.991168399476399,0.5321237387830614,fall
23/10/2020, 15:21:58,8.775352,-3.8080812,2.8836036,-0.33641088,0.42508793,-0.15652332,9.991168399476399,0.5642442522749569,fall
23/10/2020, 15:21:58,8.650811,-3.7027004,2.6608667,-0.33641088,0.42508793,-0.15652332,9.778892381565067,0.5642442522749569,fall
23/10/2020, 15:21:58,8.650811,-3.7027004,2.6608667,-0.39994085,0.4764006,-0.094215095,9.778892381565067,0.6291158169429999,fall
23/10/2020, 15:21:58,8.440049,-3.5973196,2.562671,-0.39994085,0.4764006,-0.094215095,9.525881624313595,0.6291158169429999,fall
23/10/2020, 15:21:58,8.440049,-3.5973196,2.562671,-0.51111823,0.5069439,-0.023354748,9.525881624313595,0.7202634181895352,fall
23/10/2020, 15:21:58,8.320298,-3.7458107,2.3638844,-0.51111823,0.5069439,-0.023354748,9.425837357683301,0.7202634181895352,fall
23/10/2020, 15:21:58,8.320298,-3.7458107,2.3638844,-0.6577259,0.5228263,0.048727322,9.425837357683301,0.8416204770537101,fall
23/10/2020, 15:21:58,8.286768,-3.9637575,2.3566992,-0.6577259,0.5228263,0.048727322,9.483455493970768,0.8416204770537101,fall
23/10/2020, 15:21:58,8.286768,-3.9637575,2.3566992,-0.7786771,0.528935,0.12080939,9.483455493970768,0.9490548954368097,fall
23/10/2020, 15:21:58,8.265213,-4.2224197,2.3495142,-0.7786771,0.528935,0.12080939,9.574068716469192,0.9490548954368097,fall
23/10/2020, 15:21:58,8.265213,-4.2224197,2.3495142,-0.847094,0.54848266,0.19044802,9.574068716469192,1.0269722075229846,fall
23/10/2020, 15:21:58,8.351434,-4.392466,2.3974147,-0.847094,0.54848266,0.19044802,9.735902684202667,1.0269722075229846,fall
23/10/2020, 15:21:58,8.351434,-4.392466,2.3974147,-0.86908513,0.5985736,0.24542587,9.735902684202667,1.083435834935081,fall
23/10/2020, 15:21:58,8.392149,-4.4643164,2.4572902,-0.86908513,0.5985736,0.24542587,9.818174982529657,1.083435834935081,fall
23/10/2020, 15:21:58,8.392149,-4.4643164,2.4572902,-0.87275034,0.6547732,0.2796343,9.818174982529657,1.1263287312815067,fall
23/10/2020, 15:21:58,8.339458,-4.653523,2.5004005,-0.87275034,0.6547732,0.2796343,9.871871473636231,1.1263287312815067,fall
23/10/2020, 15:21:58,8.339458,-4.653523,2.5004005,-0.9032936,0.7085293,0.31139928,9.871871473636231,1.1895051984761815,fall
23/10/2020, 15:21:58,8.044871,-4.9169755,2.5985963,-0.9032936,0.7085293,0.31139928,9.780046302539082,1.1895051984761815,fall
23/10/2020, 15:21:59,18.266815,-1.3915064,4.888235,1.7710735,-1.7007222,0.004745042,18.960687474182368,2.4554388160757905,fall
23/10/2020, 15:21:59,18.266815,-1.3915064,4.888235,2.4430249,-1.4991368,0.056057703,18.960687474182368,2.866866610330181,fall
23/10/2020, 15:21:59,16.829803,-2.186653,5.3959794,2.4430249,-1.4991368,0.056057703,17.808434219886678,2.866866610330181,fall
23/10/2020, 15:21:59,16.829803,-2.186653,5.3959794,2.9439342,-1.2462387,0.14157881,17.808434219886678,3.1999850100271505,fall
23/10/2020, 15:21:59,14.463524,-1.5232325,5.415139,2.9439342,-1.2462387,0.14157881,15.51893979144015,3.1999850100271505,fall
23/10/2020, 15:21:59,14.463524,-1.5232325,5.415139,3.116198,-1.1265092,0.2759691,15.51893979144015,3.3250371816029056,fall
23/10/2020, 15:21:59,12.636124,-1.1951149,6.2917166,3.116198,-1.1265092,0.2759691,14.166355143640875,3.3250371816029056,fall
23/10/2020, 15:21:59,12.636124,-1.1951149,6.2917166,2.5969627,-1.1069615,0.61194485,14.166355143640875,2.888607875302516,fall
23/10/2020, 15:21:59,11.630216,-0.4766089,0.3520679,2.5969627,-1.1069615,0.61194485,11.645300502291793,2.888607875302516,fall
23/10/2020, 15:21:59,11.630216,-0.4766089,0.3520679,1.8895812,-0.6170478,0.7060181,11.645300502291793,2.109437517281923,fall
23/10/2020, 15:21:59,14.324613,6.6844997,6.72761,1.8895812,-0.6170478,0.7060181,17.1795751179164,2.109437517281923,fall
23/10/2020, 15:21:59,14.324613,6.6844997,6.72761,1.2200732,0.16485946,0.66447926,17.1795751179164,1.399031805264304,fall
23/10/2020, 15:21:59,13.836028,7.8724294,9.915381,1.2200732,0.16485946,0.66447926,18.754349007395295,1.399031805264304,fall
23/10/2020, 15:21:59,13.836028,7.8724294,9.915381,0.62020373,0.56436515,0.91615564,18.754349007395295,1.2419749763232846,fall
23/10/2020, 15:21:59,12.5738535,6.334827,11.378738,0.62020373,0.56436515,0.91615564,18.102693494257966,1.2419749763232846,fall
23/10/2020, 15:21:59,12.5738535,6.334827,11.378738,0.4626006,0.5203829,0.9674683,18.102693494257966,1.191970050181701,fall
23/10/2020, 15:21:59,11.019485,3.7697608,9.12263,0.4626006,0.5203829,0.9674683,14.794003421719978,1.191970050181701,fall
23/10/2020, 15:21:59,11.019485,3.7697608,9.12263,0.72282904,0.34445375,0.5044326,14.794003421719978,0.9463521969520319,fall
23/10/2020, 15:21:59,9.929751,3.2021413,4.988826,0.72282904,0.34445375,0.5044326,11.564689984681518,0.9463521969520319,fall
23/10/2020, 15:21:59,9.929751,3.2021413,4.988826,0.8230109,0.16852465,-0.06122838,11.564689984681518,0.8423161223175444,fall
23/10/2020, 15:21:59,8.502319,2.7183473,1.0059083,0.8230109,0.16852465,-0.06122838,8.982800098111438,0.8423161223175444,fall
23/10/2020, 15:21:59,8.502319,2.7183473,1.0059083,0.48947865,-0.097812496,-0.15163639,8.982800098111438,0.5216801954292336,fall
23/10/2020, 15:21:59,7.807764,-0.07664063,0.15088624,0.48947865,-0.097812496,-0.15163639,7.809597938134106,0.5216801954292336,fall
23/10/2020, 15:21:59,7.807764,-0.07664063,0.15088624,0.15350287,-0.46555325,0.06583154,7.809597938134106,0.49460767704629316,fall
23/10/2020, 15:21:59,9.06994,-3.661985,2.2920337,0.15350287,-0.46555325,0.06583154,10.046260821955835,0.49460767704629316,fall
23/10/2020, 15:21:59,9.06994,-3.661985,2.2920337,-0.18613808,-0.5535178,0.1733438,10.046260821955835,0.6091612512749268,fall
23/10/2020, 15:21:59,10.837463,-4.296665,4.768484,-0.18613808,-0.5535178,0.1733438,12.595649448083622,0.6091612512749268,fall
23/10/2020, 15:21:59,10.837463,-4.296665,4.768484,-0.63451296,-0.30306315,0.28940812,12.595649448083622,0.7604018881510967,fall
23/10/2020, 15:21:59,11.754756,-2.8476784,8.53106,-0.63451296,-0.30306315,0.28940812,14.800761766252103,0.7604018881510967,fall
23/10/2020, 15:21:59,11.754756,-2.8476784,8.53106,-0.1543731,-0.041612916,0.16723514,14.800761766252103,0.2313661119592077,fall
23/10/2020, 15:22:00,9.204061,-1.3148658,2.9746144,0.16938536,0.054903757,-0.0050287982,9.761758732719365,0.17813228529514427,fall
23/10/2020, 15:22:00,9.204061,-1.3148658,2.9746144,0.20115034,0.036577806,0.0010798516,9.761758732719365,0.20445185834266572,fall
23/10/2020, 15:22:00,9.565708,-0.99393314,3.1302907,0.20115034,0.036577806,0.0010798516,10.113822020284656,0.20445185834266572,fall
23/10/2020, 15:22:00,9.565708,-0.99393314,3.1302907,0.175494,0.052460294,-0.018467829,10.113822020284656,0.1840958644578268,fall
23/10/2020, 15:22:00,9.690249,-0.8214917,2.787803,0.175494,0.052460294,-0.018467829,10.116700455892682,0.1840958644578268,fall
23/10/2020, 15:22:00,9.690249,-0.8214917,2.787803,0.17305054,0.06834279,-0.007472259,10.116700455892682,0.1862070358515169,fall
23/10/2020, 15:22:00,9.472302,-0.8430469,2.931504,0.17305054,0.06834279,-0.007472259,9.951329423943772,0.1862070358515169,fall
23/10/2020, 15:22:00,9.472302,-0.8430469,2.931504,0.23291531,0.054903757,-0.0038070686,9.951329423943772,0.23932918516762522,fall
23/10/2020, 15:22:00,9.426797,-1.2502003,3.5805542,0.23291531,0.054903757,-0.0038070686,10.161095879670333,0.23932918516762522,fall
23/10/2020, 15:22:00,9.426797,-1.2502003,3.5805542,0.20481552,0.030469155,-0.019689558,10.161095879670333,0.20800347613660886,fall
23/10/2020, 15:22:00,9.972861,-0.96758795,3.896697,0.20481552,0.030469155,-0.019689558,10.750741211729535,0.20800347613660886,fall
23/10/2020, 15:22:00,9.972861,-0.96758795,3.896697,0.089972906,0.042686455,-0.024576478,10.750741211729535,0.1025731956874462,fall
23/10/2020, 15:22:00,9.999207,-0.6993457,3.2165112,0.089972906,0.042686455,-0.024576478,10.52706799287103,0.1025731956874462,fall
23/10/2020, 15:22:00,9.999207,-0.6993457,3.2165112,0.061873112,0.053682026,-0.025798209,10.52706799287103,0.08588125188481867,fall
23/10/2020, 15:22:00,9.486672,-1.0681788,3.168611,0.061873112,0.053682026,-0.025798209,10.058730293974866,0.08588125188481867,fall
23/10/2020, 15:22:00,9.486672,-1.0681788,3.168611,0.1669419,0.028025696,-0.05023281,10.058730293974866,0.17657398282354964,fall
23/10/2020, 15:22:00,9.045989,-1.5112574,3.3793726,0.1669419,0.028025696,-0.05023281,9.774148339195403,0.17657398282354964,fall
23/10/2020, 15:22:00,9.045989,-1.5112574,3.3793726,0.33676237,-0.06482579,-0.08566298,9.774148339195403,0.3534818559475291,fall
23/10/2020, 15:22:00,9.532178,-2.083667,4.423601,0.33676237,-0.06482579,-0.08566298,10.71318493576092,0.3534818559475291,fall
23/10/2020, 15:22:00,9.532178,-2.083667,4.423601,0.44916153,-0.10025595,-0.08566298,10.71318493576092,0.4681190896615246,fall
23/10/2020, 15:22:00,10.116563,-1.5783179,4.4212065,0.44916153,-0.10025595,-0.08566298,11.152712575138205,0.4681190896615246,fall
23/10/2020, 15:22:00,10.116563,-1.5783179,4.4212065,0.57133454,-0.05505195,-0.086884715,11.152712575138205,0.5805194469424905,fall
23/10/2020, 15:22:00,9.850716,-1.3028907,3.6763551,0.57133454,-0.05505195,-0.086884715,10.594796346652274,0.5805194469424905,fall
23/10/2020, 15:22:00,9.850716,-1.3028907,3.6763551,0.68984234,-0.040391188,-0.12598006,10.594796346652274,0.7024136127119728,fall
23/10/2020, 15:22:00,10.183623,-0.5245093,4.0116577,0.68984234,-0.040391188,-0.12598006,10.957859801876689,0.7024136127119728,fall
23/10/2020, 15:22:00,10.183623,-0.5245093,4.0116577,0.62875587,-0.046499837,-0.19806214,10.957859801876689,0.6608515610728202,fall
23/10/2020, 15:22:00,10.9069195,-0.58198977,4.7397437,0.62875587,-0.046499837,-0.19806214,11.90650137733903,0.6608515610728202,fall
23/10/2020, 15:22:00,10.9069195,-0.58198977,4.7397437,0.50658286,-0.006182745,-0.26770076,11.90650137733903,0.5729992270925894,fall
23/10/2020, 15:22:00,11.500884,-1.1088941,5.613926,0.50658286,-0.006182745,-0.26770076,12.845860991341056,0.5729992270925894,fall
23/10/2020, 15:22:00,11.500884,-1.1088941,5.613926,0.37952292,0.09277739,-0.34833494,12.845860991341056,0.5234333951758812,fall
23/10/2020, 15:22:01,2.560276,-4.143384,3.4512234,-1.4787284,0.6437776,-1.4723265,5.969387484045379,2.183765716323385,fall
23/10/2020, 15:22:01,2.1291726,-3.9517825,3.1039455,-1.4787284,0.6437776,-1.4723265,5.4575120782062445,2.183765716323385,fall
23/10/2020, 15:22:01,2.1291726,-3.9517825,3.1039455,-1.4188637,0.4886179,-1.3220538,5.4575120782062445,1.9999369345630666,fall
23/10/2020, 15:22:01,1.8561403,-3.8511915,3.0153298,-1.4188637,0.4886179,-1.3220538,5.231553001685027,1.9999369345630666,fall
23/10/2020, 15:22:01,1.8561403,-3.8511915,3.0153298,-1.3455598,0.30658013,-1.148568,5.231553001685027,1.7954751943951208,fall
23/10/2020, 15:22:01,1.8896705,-3.8847218,3.159031,-1.3455598,0.30658013,-1.148568,5.351765503487876,1.7954751943951208,fall
23/10/2020, 15:22:01,1.8896705,-3.8847218,3.159031,-1.2844733,0.12087718,-0.954313,5.351765503487876,1.6047417905372439,fall
23/10/2020, 15:22:01,2.198628,-3.8320315,3.647615,-1.2844733,0.12087718,-0.954313,5.729181883290591,1.6047417905372439,fall
23/10/2020, 15:22:01,2.198628,-3.8320315,3.647615,-1.231939,-0.019621775,-0.7429537,5.729181883290591,1.4387629538411808,fall
23/10/2020, 15:22:01,2.4740553,-3.6931202,3.9924977,-1.231939,-0.019621775,-0.7429537,5.974958111996954,1.4387629538411808,fall
23/10/2020, 15:22:01,2.4740553,-3.6931202,3.9924977,-1.2062826,-0.10636461,-0.5267075,5.974958111996954,1.3205498620026899,fall
23/10/2020, 15:22:01,2.6345215,-3.532654,4.3445654,-1.2062826,-0.10636461,-0.5267075,6.1883435997751235,1.3205498620026899,fall
23/10/2020, 15:22:01,2.6345215,-3.532654,4.3445654,-1.1977305,-0.16867283,-0.31656995,6.1883435997751235,1.2502901698419198,fall
23/10/2020, 15:22:01,2.663262,-3.3841627,4.358936,-1.1977305,-0.16867283,-0.31656995,6.127466232639802,1.2502901698419198,fall
23/10/2020, 15:22:01,2.663262,-3.3841627,4.358936,-1.2490432,-0.23464626,-0.114984505,6.127466232639802,1.2760835729143474,fall
23/10/2020, 15:22:01,2.567461,-2.929109,4.29427,-1.2490432,-0.23464626,-0.114984505,5.797610828709353,1.2760835729143474,fall
23/10/2020, 15:22:01,2.567461,-2.929109,4.29427,-1.3284557,-0.31161526,0.06460981,5.797610828709353,1.3660428280695325,fall
23/10/2020, 15:22:01,2.5147705,-2.3447242,4.390071,-1.3284557,-0.31161526,0.06460981,5.5762464812824035,1.3660428280695325,fall
23/10/2020, 15:22:01,2.5147705,-2.3447242,4.390071,-1.3895421,-0.3983581,0.22709991,5.5762464812824035,1.463246666112826,fall
23/10/2020, 15:22:01,2.5914114,-2.201023,4.5768824,-1.3895421,-0.3983581,0.22709991,5.701558352741135,1.463246666112826,fall
23/10/2020, 15:22:01,2.5914114,-2.201023,4.5768824,-1.4432982,-0.480214,0.37859443,5.701558352741135,1.567497681140628,fall
23/10/2020, 15:22:01,2.7494826,-2.179468,4.9720607,-1.4432982,-0.480214,0.37859443,6.085320250439258,1.567497681140628,fall
23/10/2020, 15:22:01,2.7494826,-2.179468,4.9720607,-1.4432982,-0.5486309,0.5080978,6.085320250439258,1.6255057714253516,fall
23/10/2020, 15:22:01,2.912344,-2.2704787,5.4271145,-1.4432982,-0.5486309,0.5080978,6.564327288128027,1.6255057714253516,fall
23/10/2020, 15:22:01,2.912344,-2.2704787,5.4271145,-1.399316,-0.6146043,0.61805356,6.564327288128027,1.648579319613494,fall
23/10/2020, 15:22:01,2.9889846,-2.2441335,5.5396805,-1.399316,-0.6146043,0.61805356,6.6826808783193945,1.648579319613494,fall
23/10/2020, 15:22:01,2.9889846,-2.2441335,5.5396805,-1.3431164,-0.6989037,0.71334845,6.6826808783193945,1.673706674828749,fall
23/10/2020, 15:22:01,3.0943654,-1.8609302,5.6714063,-1.3431164,-0.6989037,0.71334845,6.723318173749889,1.673706674828749,fall
23/10/2020, 15:22:01,3.0943654,-1.8609302,5.6714063,-1.2551519,-0.8088594,0.80253476,6.723318173749889,1.6952055310890317,fall
23/10/2020, 15:22:01,3.2045362,-1.4585669,6.1144853,-1.2551519,-0.8088594,0.80253476,7.0557352352197595,1.6952055310890317,fall
23/10/2020, 15:22:02,17.064514,15.316151,21.148024,-0.7530208,-0.31650218,-0.5670246,31.193284808370674,0.9943494738801868,fall
23/10/2020, 15:22:02,16.463366,7.510782,10.293795,-0.7530208,-0.31650218,-0.5670246,20.818656441697573,0.9943494738801868,fall
23/10/2020, 15:22:02,16.463366,7.510782,10.293795,-2.5697334,0.11232507,0.38959,20.818656441697573,2.601523964333727,fall
23/10/2020, 15:22:02,13.737833,-3.4608033,4.643943,-2.5697334,0.11232507,0.38959,14.908769918456102,2.601523964333727,fall
23/10/2020, 15:22:02,13.737833,-3.4608033,4.643943,-2.811636,0.47884408,1.244801,14.908769918456102,3.1119315743776506,fall
23/10/2020, 15:22:02,10.454261,-9.7142,4.2008643,-2.811636,0.47884408,1.244801,14.87630708338138,3.1119315743776506,fall
23/10/2020, 15:22:02,10.454261,-9.7142,4.2008643,-1.0889965,0.51793945,0.94059026,14.87630708338138,1.5293412815148983,fall
23/10/2020, 15:22:02,7.443721,-6.5240335,5.3289185,-1.0889965,0.51793945,0.94059026,11.24141295597347,1.5293412815148983,fall
23/10/2020, 15:22:02,7.443721,-6.5240335,5.3289185,0.5774432,0.25893265,0.2551997,11.24141295597347,0.6823588743797068,fall
23/10/2020, 15:22:02,4.912185,2.1124072,4.7229786,0.5774432,0.25893265,0.2551997,7.13430826019894,0.6823588743797068,fall
23/10/2020, 15:22:02,4.912185,2.1124072,4.7229786,0.6030995,-0.58772624,0.08537922,7.13430826019894,0.8464282462743897,fall
23/10/2020, 15:22:02,5.0678616,3.5685792,5.609136,0.6030995,-0.58772624,0.08537922,8.359448910394374,0.8464282462743897,fall
23/10/2020, 15:22:02,5.0678616,3.5685792,5.609136,-0.16414694,-1.2279127,0.2796343,8.359448910394374,1.2700035712311928,fall
23/10/2020, 15:22:02,8.813672,-0.82388675,7.0221977,-0.16414694,-1.2279127,0.2796343,11.299153310271222,1.2700035712311928,fall
23/10/2020, 15:22:02,8.813672,-0.82388675,7.0221977,-0.45003176,-1.290221,0.21121742,11.299153310271222,1.3826827354880276,fall
23/10/2020, 15:22:02,11.824212,-3.5973196,6.638994,-0.45003176,-1.290221,0.21121742,14.0295738964415,1.3826827354880276,fall
23/10/2020, 15:22:02,11.824212,-3.5973196,6.638994,-0.31075454,-0.91514987,0.026736183,14.0295738964415,0.966841500021096,fall
23/10/2020, 15:22:02,12.152329,-3.2692018,5.47262,-0.31075454,-0.91514987,0.026736183,13.722840844129609,0.966841500021096,fall
23/10/2020, 15:22:02,12.152329,-3.2692018,5.47262,-0.13238196,-0.47410536,-0.04045897,13.722840844129609,0.4939005996843829,fall
23/10/2020, 15:22:02,10.703342,-0.48618898,4.0356083,-0.13238196,-0.47410536,-0.04045897,11.449194440891537,0.4939005996843829,fall
23/10/2020, 15:22:02,10.703342,-0.48618898,4.0356083,-0.10428217,-0.3299412,-0.13697563,11.449194440891537,0.3721535956211616,fall
23/10/2020, 15:22:02,8.768167,1.331631,2.4716604,-0.10428217,-0.3299412,-0.13697563,9.206687270440863,0.3721535956211616,fall
23/10/2020, 15:22:02,8.768167,1.331631,2.4716604,-0.121386394,-0.46921843,-0.24693134,9.206687270440863,0.5439445589255771,fall
23/10/2020, 15:22:02,7.8484793,0.4526587,1.5423926,-0.121386394,-0.46921843,-0.24693134,8.011398239049774,0.5439445589255771,fall
23/10/2020, 15:22:02,7.8484793,0.4526587,1.5423926,-0.03464356,-0.62559986,-0.3336742,8.011398239049774,0.7098688817323294,fall
23/10/2020, 15:22:02,8.713081,-0.6346802,1.5184424,-0.03464356,-0.62559986,-0.3336742,8.867145710622209,0.7098688817323294,fall
23/10/2020, 15:22:02,8.713081,-0.6346802,1.5184424,0.10585539,-0.634152,-0.43874297,8.867145710622209,0.7783633511521595,fall
23/10/2020, 15:22:02,9.814791,-0.4382886,1.6453785,0.10585539,-0.634152,-0.43874297,9.961399710713511,0.7783633511521595,fall
23/10/2020, 15:22:02,9.814791,-0.4382886,1.6453785,0.17305054,-0.46799672,-0.48150352,9.961399710713511,0.6934068442077558,fall
23/10/2020, 15:22:02,10.015972,0.53169435,1.7220191,0.17305054,-0.46799672,-0.48150352,10.176823986004553,0.6934068442077558,fall
23/10/2020, 15:22:03,9.436378,-0.7783814,3.297942,0.29888874,-0.09292557,-0.09543683,10.026341274070464,0.3272274899791075,fall
23/10/2020, 15:22:03,9.465117,-0.33290774,3.9853127,0.29888874,-0.09292557,-0.09543683,10.275309888653549,0.3272274899791075,fall
23/10/2020, 15:22:03,9.465117,-0.33290774,3.9853127,0.25490648,-0.117360175,-0.080776066,10.275309888653549,0.29201968194180805,fall
23/10/2020, 15:22:03,9.093889,-0.059875492,4.102669,0.25490648,-0.117360175,-0.080776066,9.976687701424613,0.29201968194180805,fall
23/10/2020, 15:22:03,9.093889,-0.059875492,4.102669,0.18160266,-0.20898993,-0.052676268,9.976687701424613,0.2818352467754549,fall
23/10/2020, 15:22:03,8.986114,-0.9651929,3.999683,0.18160266,-0.20898993,-0.052676268,9.883283735210783,0.2818352467754549,fall
23/10/2020, 15:22:03,8.986114,-0.9651929,3.999683,0.1547246,-0.28595895,-0.05511973,9.883283735210783,0.32977326233937204,fall
23/10/2020, 15:22:03,9.536968,-0.47181886,3.5039136,0.1547246,-0.28595895,-0.05511973,10.171223470512782,0.32977326233937204,fall
23/10/2020, 15:22:03,9.536968,-0.47181886,3.5039136,0.14372903,-0.27374163,-0.05756319,10.171223470512782,0.3144933014008823,fall
23/10/2020, 15:22:03,9.445957,0.13651612,2.7662477,0.14372903,-0.27374163,-0.05756319,9.843620796316719,0.3144933014008823,fall
23/10/2020, 15:22:03,9.445957,0.13651612,2.7662477,0.14739421,-0.2407549,-0.014802639,9.843620796316719,0.28267842916498515,fall
23/10/2020, 15:22:03,8.921448,0.05269043,1.8465601,0.14739421,-0.2407549,-0.014802639,9.110696492923793,0.28267842916498515,fall
23/10/2020, 15:22:03,8.921448,0.05269043,1.8465601,0.17060709,-0.24686356,-0.019689558,9.110696492923793,0.30072591268666415,fall
23/10/2020, 15:22:03,8.605306,-0.038320314,1.7866846,0.17060709,-0.24686356,-0.019689558,8.78891325051227,0.30072591268666415,fall
23/10/2020, 15:22:03,8.605306,-0.038320314,1.7866846,0.21581109,-0.28718066,-0.053898,8.78891325051227,0.3632521893042405,fall
23/10/2020, 15:22:03,8.866363,-0.40715334,2.311194,0.21581109,-0.28718066,-0.053898,9.171683407979346,0.3632521893042405,fall
23/10/2020, 15:22:03,8.866363,-0.40715334,2.311194,0.26468033,-0.29939798,-0.073445685,9.171683407979346,0.40631156911516664,fall
23/10/2020, 15:22:03,9.275911,-0.94603276,2.8500733,0.26468033,-0.29939798,-0.073445685,9.74989369383432,0.40631156911516664,fall
23/10/2020, 15:22:03,9.275911,-0.94603276,2.8500733,0.3062191,-0.27129817,-0.100323744,9.74989369383432,0.4212335320411594,fall
23/10/2020, 15:22:03,9.513018,-0.847837,3.0201197,0.3062191,-0.27129817,-0.100323744,10.01685855078739,0.4212335320411594,fall
23/10/2020, 15:22:03,9.513018,-0.847837,3.0201197,0.34042758,-0.2236507,-0.1357539,10.01685855078739,0.429347982076166,fall
23/10/2020, 15:22:03,9.553733,-0.59156984,2.9410841,0.34042758,-0.2236507,-0.1357539,10.013677777079412,0.429347982076166,fall
23/10/2020, 15:22:03,9.553733,-0.59156984,2.9410841,0.22314148,-0.19188571,-0.15530159,10.013677777079412,0.33276241780134413,fall
23/10/2020, 15:22:03,9.889036,0.57959473,2.7422974,0.22314148,-0.19188571,-0.15530159,10.278577804551132,0.33276241780134413,fall
23/10/2020, 15:22:03,9.889036,0.57959473,2.7422974,0.01911256,-0.12957747,-0.15407985,10.278577804551132,0.20222812119491215,fall
23/10/2020, 15:22:03,9.618399,0.73048097,2.8979738,0.01911256,-0.12957747,-0.15407985,10.072013073713249,0.20222812119491215,fall
23/10/2020, 15:22:03,9.618399,0.73048097,2.8979738,-0.11649947,-0.11491671,-0.116206236,10.072013073713249,0.20070342856826365,fall
23/10/2020, 15:22:03,9.081915,-0.5963599,3.3147073,-0.11649947,-0.11491671,-0.116206236,9.686284518312808,0.20070342856826365,fall
23/10/2020, 15:22:03,9.081915,-0.5963599,3.3147073,-0.09939525,-0.158899,-0.09910201,9.686284518312808,0.21201300812372914,fall
23/10/2020, 15:22:03,9.237591,-1.3843213,3.1231055,-0.09939525,-0.158899,-0.09910201,9.849021132895395,0.21201300812372914,fall
23/10/2020, 15:22:04,10.966795,-2.066902,3.0704153,2.356282,-2.5950286,-1.0056257,11.574546439393073,3.6465766930599743,fall
23/10/2020, 15:22:04,10.832674,-1.8034497,2.7710378,2.356282,-2.5950286,-1.0056257,11.325983760716284,3.6465766930599743,fall
23/10/2020, 15:22:04,10.832674,-1.8034497,2.7710378,2.3135214,-2.6646674,-0.9054438,11.325983760716284,3.643166457072897,fall
23/10/2020, 15:22:04,10.935659,-1.4849122,2.8428884,2.3135214,-2.6646674,-0.9054438,11.396298741909893,3.643166457072897,fall
23/10/2020, 15:22:04,10.935659,-1.4849122,2.8428884,2.2536566,-2.6878803,-0.786936,11.396298741909893,3.5948486502626826,fall
23/10/2020, 15:22:04,11.306888,-0.9963282,3.288362,2.2536566,-2.6878803,-0.786936,11.817432142793493,3.5948486502626826,fall
23/10/2020, 15:22:04,11.306888,-0.9963282,3.288362,2.1852398,-2.5876985,-0.66598475,11.817432142793493,3.4518099531807365,fall
23/10/2020, 15:22:04,11.548784,-0.5005591,3.6979103,2.1852398,-2.5876985,-0.66598475,12.13670127536992,3.4518099531807365,fall
23/10/2020, 15:22:04,11.548784,-0.5005591,3.6979103,2.0655103,-2.3531263,-0.54503345,12.13670127536992,3.178143715988383,fall
23/10/2020, 15:22:04,11.311678,-0.19639161,3.647615,2.0655103,-2.3531263,-0.54503345,11.88687184190691,3.178143715988383,fall
23/10/2020, 15:22:04,11.311678,-0.19639161,3.647615,1.8468207,-2.0928977,-0.4399647,11.88687184190691,2.825692176878758,fall
23/10/2020, 15:22:04,10.801538,0.21315674,3.182981,1.8468207,-2.0928977,-0.4399647,11.262772180854709,2.825692176878758,fall
23/10/2020, 15:22:04,10.801538,0.21315674,3.182981,1.5487186,-1.9304075,-0.36055225,11.262772180854709,2.5009998699111073,fall
23/10/2020, 15:22:04,10.262659,0.53169435,2.6584718,1.5487186,-1.9304075,-0.36055225,10.61472291503618,2.5009998699111073,fall
23/10/2020, 15:22:04,10.262659,0.53169435,2.6584718,1.1993037,-1.8876469,-0.30313092,10.61472291503618,2.256862579637838,fall
23/10/2020, 15:22:04,9.965676,0.5460645,2.203418,1.1993037,-1.8876469,-0.30313092,10.220956005110263,2.256862579637838,fall
23/10/2020, 15:22:04,9.965676,0.5460645,2.203418,0.8584411,-1.9071946,-0.26159212,10.220956005110263,2.1077815070312704,fall
23/10/2020, 15:22:04,9.874666,0.28261232,2.208208,0.8584411,-1.9071946,-0.26159212,10.12250391484022,2.1077815070312704,fall
23/10/2020, 15:22:04,9.874666,0.28261232,2.208208,0.60432124,-1.9352944,-0.24082269,10.12250391484022,2.0417061748974525,fall
23/10/2020, 15:22:04,10.035132,-0.26345217,2.4788454,0.60432124,-1.9352944,-0.24082269,10.34011430325504,2.0417061748974525,fall
23/10/2020, 15:22:04,10.035132,-0.26345217,2.4788454,0.49070036,-1.8790948,-0.23349231,10.34011430325504,1.9560937919066868,fall
23/10/2020, 15:22:04,10.219549,-0.41912845,4.4738965,0.49070036,-1.8790948,-0.23349231,11.16380777346493,1.9560937919066868,fall
23/10/2020, 15:22:04,10.219549,-0.41912845,4.4738965,0.48703516,-1.6029838,-0.32023516,11.16380777346493,1.705670240376044,fall
23/10/2020, 15:22:04,10.071057,0.18681154,5.870193,0.48703516,-1.6029838,-0.32023516,11.658484463987406,1.705670240376044,fall
23/10/2020, 15:22:04,10.071057,0.18681154,5.870193,0.4613788,-1.2963296,-0.24570961,11.658484463987406,1.3977532328718176,fall
23/10/2020, 15:22:04,9.759705,0.27542725,5.740862,0.4613788,-1.2963296,-0.24570961,11.326305184094617,1.3977532328718176,fall
23/10/2020, 15:22:04,9.759705,0.27542725,5.740862,0.2891149,-1.1729349,-0.15041466,11.326305184094617,1.2173693962250138,fall
23/10/2020, 15:22:04,10.190808,0.5891748,5.101392,0.2891149,-1.1729349,-0.15041466,11.411568643345193,1.2173693962250138,fall
23/10/2020, 15:22:04,10.190808,0.5891748,5.101392,0.009338722,-1.0678661,-0.19561867,11.411568643345193,1.0856757605659253,fall
23/10/2020, 15:22:04,9.891431,0.5340894,4.87147,0.009338722,-1.0678661,-0.19561867,11.038880176023225,1.0856757605659253,fall
23/10/2020, 15:22:05,9.623189,-5.858218,-0.60354495,4.471097,0.09155566,1.5111382,11.282231734218907,4.720448010242261,fall
23/10/2020, 15:22:05,10.506951,-5.980364,-1.0514137,4.471097,0.09155566,1.5111382,12.135330596976765,4.720448010242261,fall
23/10/2020, 15:22:05,10.506951,-5.980364,-1.0514137,4.4906445,0.06345587,1.5160251,12.135330596976765,4.740068171495907,fall
23/10/2020, 15:22:05,11.263778,-5.6426663,-0.9484278,4.4906445,0.06345587,1.5160251,12.633759833204575,4.740068171495907,fall
23/10/2020, 15:22:05,11.263778,-5.6426663,-0.9484278,4.4613233,0.12820756,1.5367945,12.633759833204575,4.720336840654382,fall
23/10/2020, 15:22:05,11.572735,-5.2019825,-0.7568262,4.4613233,0.12820756,1.5367945,12.710688390128128,4.720336840654382,fall
23/10/2020, 15:22:05,11.572735,-5.2019825,-0.7568262,4.3635845,0.27114996,1.6235373,12.710688390128128,4.663717993517321,fall
23/10/2020, 15:22:05,11.278148,-4.8594947,-0.57719976,4.3635845,0.27114996,1.6235373,12.294082464729001,4.663717993517321,fall
23/10/2020, 15:22:05,11.278148,-4.8594947,-0.57719976,4.1607776,0.39332297,1.7249409,12.294082464729001,4.521304461569503,fall
23/10/2020, 15:22:05,10.9069195,-4.387676,-0.69695073,4.1607776,0.39332297,1.7249409,11.777025577309665,4.521304461569503,fall
23/10/2020, 15:22:05,10.9069195,-4.387676,-0.69695073,3.8846662,0.4556312,1.8006881,11.777025577309665,4.305892371152238,fall
23/10/2020, 15:22:05,10.609937,-3.7266505,-0.90052736,3.8846662,0.4556312,1.8006881,11.28138424019924,4.305892371152238,fall
23/10/2020, 15:22:05,10.609937,-3.7266505,-0.90052736,3.5670164,0.42508793,1.828788,11.28138424019924,4.030976455517546,fall
23/10/2020, 15:22:05,11.213482,-3.1422658,-1.099314,3.5670164,0.42508793,1.828788,11.697200602783257,4.030976455517546,fall
23/10/2020, 15:22:05,11.213482,-3.1422658,-1.099314,3.0966504,0.18074195,1.7945795,11.697200602783257,3.5836331732530726,fall
23/10/2020, 15:22:05,12.061319,-2.7303224,-0.8095166,3.0966504,0.18074195,1.7945795,12.392957751330506,3.5836331732530726,fall
23/10/2020, 15:22:05,12.061319,-2.7303224,-0.8095166,2.659271,0.061012406,1.8666617,12.392957751330506,3.2495954451123685,fall
23/10/2020, 15:22:05,13.014537,-2.6249416,-0.32332766,2.659271,0.061012406,1.8666617,13.280550769134416,3.2495954451123685,fall
23/10/2020, 15:22:05,13.014537,-2.6249416,-0.32332766,2.379495,0.18074195,1.9460741,13.280550769134416,3.0792642254650433,fall
23/10/2020, 15:22:05,13.297149,-2.8907888,-0.2778223,2.379495,0.18074195,1.9460741,13.610584437924917,3.0792642254650433,fall
23/10/2020, 15:22:05,13.297149,-2.8907888,-0.2778223,2.2756479,0.35544932,1.9143091,13.610584437924917,2.9949118492478517,fall
23/10/2020, 15:22:05,12.439732,-3.2189064,-0.46942386,2.2756479,0.35544932,1.9143091,12.858018487195158,2.9949118492478517,fall
23/10/2020, 15:22:05,12.439732,-3.2189064,-0.46942386,2.2707608,0.51183075,1.860553,12.858018487195158,2.9799299945675037,fall
23/10/2020, 15:22:05,11.227852,-2.9674294,-0.60833496,2.2707608,0.51183075,1.860553,11.62928915390912,2.9799299945675037,fall
23/10/2020, 15:22:05,11.227852,-2.9674294,-0.60833496,2.2255569,0.59735185,1.8300097,11.62928915390912,2.942595457085339,fall
23/10/2020, 15:22:05,10.30098,-2.071692,-0.73048097,2.2255569,0.59735185,1.8300097,10.532601348212449,2.942595457085339,fall
23/10/2020, 15:22:05,10.30098,-2.071692,-0.73048097,2.1143794,0.54848266,1.828788,10.532601348212449,2.8488417294899766,fall
23/10/2020, 15:22:05,9.879456,-1.2861255,-0.859812,2.1143794,0.54848266,1.828788,9.99985189425411,2.8488417294899766,fall
23/10/2020, 15:22:05,9.879456,-1.2861255,-0.859812,1.9751023,0.39698815,1.8446705,9.99985189425411,2.7315633052031854,fall
23/10/2020, 15:22:05,10.061478,-0.79993653,-0.9029224,1.9751023,0.39698815,1.8446705,10.133533442390195,2.7315633052031854,fall
23/10/2020, 15:22:06,10.145303,0.6490503,0.80233157,0.07897733,0.29558456,0.1782307,10.19765515082465,0.3540816771899227,fall
23/10/2020, 15:22:06,9.036409,0.17723145,1.3196558,0.07897733,0.29558456,0.1782307,9.133980337199864,0.3540816771899227,fall
23/10/2020, 15:22:06,9.036409,0.17723145,1.3196558,0.13762037,0.18807234,0.14280054,9.133980337199864,0.27331770199911243,fall
23/10/2020, 15:22:06,8.780142,-1.3172607,2.4501052,0.13762037,0.18807234,0.14280054,9.210270455803649,0.27331770199911243,fall
23/10/2020, 15:22:06,8.780142,-1.3172607,2.4501052,0.14861594,0.07445144,0.049949054,9.210270455803649,0.17356446290723684,fall
23/10/2020, 15:22:06,9.740545,-1.6884888,2.811753,0.14861594,0.07445144,0.049949054,10.277897251184418,0.17356446290723684,fall
23/10/2020, 15:22:06,9.740545,-1.6884888,2.811753,0.09974674,0.035356075,-0.06000665,10.277897251184418,0.1216563284847819,fall
23/10/2020, 15:22:06,10.99314,-0.93405765,2.8285182,0.09974674,0.035356075,-0.06000665,11.389561473000954,0.1216563284847819,fall
23/10/2020, 15:22:06,10.99314,-0.93405765,2.8285182,7.866118E-4,0.14409006,-0.05511973,11.389561473000954,0.15427490985580603,fall
23/10/2020, 15:22:06,11.64698,-0.84065187,3.1398706,7.866118E-4,0.14409006,-0.05511973,12.092048337605439,0.15427490985580603,fall
23/10/2020, 15:22:06,11.64698,-0.84065187,3.1398706,-0.09695179,0.3383451,0.007188502,12.092048337605439,0.3520351373292467,fall
23/10/2020, 15:22:06,11.285333,-0.55803955,2.4022048,-0.09695179,0.3383451,0.007188502,11.551654838069478,0.3520351373292467,fall
23/10/2020, 15:22:06,11.285333,-0.55803955,2.4022048,-0.17514251,0.4764006,0.015740613,11.551654838069478,0.5078190732047941,fall
23/10/2020, 15:22:06,10.128538,0.4023633,0.5412744,-0.17514251,0.4764006,0.015740613,10.150968373403284,0.5078190732047941,fall
23/10/2020, 15:22:06,10.128538,0.4023633,0.5412744,-0.13604715,0.51183075,0.010853692,10.150968373403284,0.5297143991120933,fall
23/10/2020, 15:22:06,8.813672,0.8095166,0.038320314,-0.13604715,0.51183075,0.010853692,8.850853115297774,0.5297143991120933,fall
23/10/2020, 15:22:06,8.813672,0.8095166,0.038320314,0.0777556,0.4727354,0.018184073,8.850853115297774,0.47943232785849166,fall
23/10/2020, 15:22:06,7.95865,0.38559815,1.2478052,0.0777556,0.4727354,0.018184073,8.065098601664234,0.47943232785849166,fall
23/10/2020, 15:22:06,7.95865,0.38559815,1.2478052,0.19015476,0.329793,0.013297152,8.065098601664234,0.38091872404955335,fall
23/10/2020, 15:22:06,8.085587,-0.15088624,2.0261867,0.19015476,0.329793,0.013297152,8.336960419813915,0.38091872404955335,fall
23/10/2020, 15:22:06,8.085587,-0.15088624,2.0261867,0.14739421,0.1746333,-0.019689558,8.336960419813915,0.2293676510792639,fall
23/10/2020, 15:22:06,8.998089,-0.66342044,2.2537134,0.14739421,0.1746333,-0.019689558,9.299728670367315,0.2293676510792639,fall
23/10/2020, 15:22:06,8.998089,-0.66342044,2.2537134,0.09485982,0.14409006,-0.022133019,9.299728670367315,0.17392584917597229,fall
23/10/2020, 15:22:06,10.102193,-0.27542725,2.5195606,0.09485982,0.14409006,-0.022133019,10.41529388081,0.17392584917597229,fall
23/10/2020, 15:22:06,10.102193,-0.27542725,2.5195606,0.0056735314,0.23449807,0.018184073,10.41529388081,0.2352704692458867,fall
23/10/2020, 15:22:06,10.36804,0.16525635,2.4980054,0.0056735314,0.23449807,0.018184073,10.666001865354835,0.2352704692458867,fall
23/10/2020, 15:22:06,10.36804,0.16525635,2.4980054,-0.13482542,0.3456755,0.08904441,10.666001865354835,0.38157352016663576,fall
23/10/2020, 15:22:06,10.245894,-0.6346802,2.6273365,-0.13482542,0.3456755,0.08904441,10.59641773332581,0.38157352016663576,fall
23/10/2020, 15:22:06,10.245894,-0.6346802,2.6273365,-0.24111594,0.45318773,0.15013091,10.59641773332581,0.5348413885053459,fall
23/10/2020, 15:22:06,10.521321,-0.46942386,0.70174074,-0.24111594,0.45318773,0.15013091,10.555140958672961,0.5348413885053459,fall
23/10/2020, 15:22:07,9.857901,-0.25147706,1.2094849,0.01911256,0.1465335,-0.06489357,9.935003731487132,0.16139558141651658,fall
23/10/2020, 15:22:07,9.759705,-0.09101075,1.7579445,0.01911256,0.1465335,-0.06489357,9.917181322252008,0.16139558141651658,fall
23/10/2020, 15:22:07,9.759705,-0.09101075,1.7579445,-0.07740411,0.13675967,-0.06367184,9.917181322252008,0.16955443650964006,fall
23/10/2020, 15:22:07,9.422008,-0.07185059,2.555486,-0.07740411,0.13675967,-0.06367184,9.7626788072272,0.16955443650964006,fall
23/10/2020, 15:22:07,9.422008,-0.07185059,2.555486,-0.14582099,0.058568943,-0.045345888,9.7626788072272,0.1635552867369094,fall
23/10/2020, 15:22:07,9.697434,-0.71371585,2.550696,-0.14582099,0.058568943,-0.045345888,10.052645139717079,0.1635552867369094,fall
23/10/2020, 15:22:07,9.697434,-0.71371585,2.550696,-0.17636424,0.028025696,-0.05756319,10.052645139717079,0.1876254423976843,fall
23/10/2020, 15:22:07,10.36804,-0.8310718,1.8106349,-0.17636424,0.028025696,-0.05756319,10.557714435092892,0.1876254423976843,fall
23/10/2020, 15:22:07,10.36804,-0.8310718,1.8106349,-0.08351276,0.1013295,-0.025798209,10.557714435092892,0.13381926599428787,fall
23/10/2020, 15:22:07,9.927357,-0.23710695,1.1112891,-0.08351276,0.1013295,-0.025798209,9.992176675352281,0.13381926599428787,fall
23/10/2020, 15:22:07,9.927357,-0.23710695,1.1112891,-0.01753934,0.11843372,0.0010798516,9.992176675352281,0.11973028377592258,fall
23/10/2020, 15:22:07,9.663904,-0.34727785,1.2070899,-0.01753934,0.11843372,0.0010798516,9.745189178707166,0.11973028377592258,fall
23/10/2020, 15:22:07,9.663904,-0.34727785,1.2070899,0.009338722,0.07200798,-0.04656762,9.745189178707166,0.08626067193370286,fall
23/10/2020, 15:22:07,9.69504,-0.98195803,1.1304493,0.009338722,0.07200798,-0.04656762,9.809992503672326,0.08626067193370286,fall
23/10/2020, 15:22:07,9.69504,-0.98195803,1.1304493,0.109520584,0.06956452,-0.07588914,9.809992503672326,0.15031015483468427,fall
23/10/2020, 15:22:07,9.975257,-0.58677983,1.5040723,0.109520584,0.06956452,-0.07588914,10.105062825078187,0.15031015483468427,fall
23/10/2020, 15:22:07,9.975257,-0.58677983,1.5040723,0.14006384,0.059790675,-0.0905499,10.105062825078187,0.17717812462597363,fall
23/10/2020, 15:22:07,10.164463,-0.51492923,1.9016455,0.14006384,0.059790675,-0.0905499,10.353633026054734,0.17717812462597363,fall
23/10/2020, 15:22:07,10.164463,-0.51492923,1.9016455,0.13273346,0.053682026,-0.11254104,10.353633026054734,0.18211375178277484,fall
23/10/2020, 15:22:07,10.015972,-0.5125342,1.695674,0.13273346,0.053682026,-0.11254104,10.171415795504515,0.18211375178277484,fall
23/10/2020, 15:22:07,10.015972,-0.5125342,1.695674,0.18282439,0.042686455,-0.11009759,10.171415795504515,0.21764275550680068,fall
23/10/2020, 15:22:07,9.489068,-0.44786867,1.7507594,0.18282439,0.042686455,-0.11009759,9.659614733550843,0.21764275550680068,fall
23/10/2020, 15:22:07,9.489068,-0.44786867,1.7507594,0.21581109,-0.022065235,-0.11864969,9.659614733550843,0.24726311868647552,fall
23/10/2020, 15:22:07,9.587264,-0.08861572,1.7651294,0.21581109,-0.022065235,-0.11864969,9.748803356607846,0.24726311868647552,fall
23/10/2020, 15:22:07,9.587264,-0.08861572,1.7651294,0.1669419,-0.089260384,-0.15530159,9.748803356607846,0.24485831708875222,fall
23/10/2020, 15:22:07,9.826766,-0.081430666,1.1232642,0.1669419,-0.089260384,-0.15530159,9.89109112776343,0.24485831708875222,fall
23/10/2020, 15:22:07,9.826766,-0.081430666,1.1232642,0.1877113,-0.09903423,-0.15041466,9.89109112776343,0.26013050549637945,fall
23/10/2020, 15:22:07,9.333391,-0.011975098,0.8143067,0.1877113,-0.09903423,-0.15041466,9.368854244988087,0.26013050549637945,fall
23/10/2020, 15:22:07,9.333391,-0.011975098,0.8143067,0.2903366,-0.1307992,-0.12842353,9.368854244988087,0.3433604236265987,fall
23/10/2020, 15:22:07,8.54064,0.035925295,0.91010743,0.2903366,-0.1307992,-0.12842353,8.589069546926682,0.3433604236265987,fall
23/10/2020, 15:22:08,11.014695,-1.7555494,0.6346802,-0.86542,-0.16989456,1.09575,11.17176272612946,1.4065859079548446,fall
23/10/2020, 15:22:08,10.585987,-1.9064356,0.7496411,-0.86542,-0.16989456,1.09575,10.782373636281228,1.4065859079548446,fall
23/10/2020, 15:22:08,10.585987,-1.9064356,0.7496411,-0.8324332,-0.28595895,0.96869004,10.782373636281228,1.3088460489329894,fall
23/10/2020, 15:22:08,10.128538,-2.1315675,0.8981324,-0.8324332,-0.28595895,0.96869004,10.389297684564076,1.3088460489329894,fall
23/10/2020, 15:22:08,10.128538,-2.1315675,0.8981324,-0.77134675,-0.35926273,0.86972994,10.389297684564076,1.2167479935283738,fall
23/10/2020, 15:22:08,9.632769,-2.3327491,1.2717555,-0.77134675,-0.35926273,0.86972994,9.992462756298673,1.2167479935283738,fall
23/10/2020, 15:22:08,9.632769,-2.3327491,1.2717555,-0.6259609,-0.40935367,0.774435,9.992462756298673,1.0766368958009334,fall
23/10/2020, 15:22:08,9.0076685,-2.5004005,1.6717237,-0.6259609,-0.40935367,0.774435,9.496565421400657,1.0766368958009334,fall
23/10/2020, 15:22:08,9.0076685,-2.5004005,1.6717237,-0.38772357,-0.45700115,0.68036175,9.496565421400657,0.9066817090416489,fall
23/10/2020, 15:22:08,8.322693,-2.6249416,2.0621119,-0.38772357,-0.45700115,0.68036175,8.967153409235191,0.9066817090416489,fall
23/10/2020, 15:22:08,8.322693,-2.6249416,2.0621119,-0.0810693,-0.511979,0.58140165,8.967153409235191,0.7789239919000599,fall
23/10/2020, 15:22:08,7.692803,-2.7159522,2.2537134,-0.0810693,-0.511979,0.58140165,8.4637365641188,0.7789239919000599,fall
23/10/2020, 15:22:08,7.692803,-2.7159522,2.2537134,0.23291531,-0.5938349,0.48488492,8.4637365641188,0.8012507642395712,fall
23/10/2020, 15:22:08,7.197034,-2.8476784,2.323169,0.23291531,-0.5938349,0.48488492,8.081069438577739,0.8012507642395712,fall
23/10/2020, 15:22:08,7.197034,-2.8476784,2.323169,0.52368706,-0.7074558,0.38959,8.081069438577739,0.962560249852607,fall
23/10/2020, 15:22:08,6.926397,-2.802173,2.6273365,0.52368706,-0.7074558,0.38959,7.920230004953723,0.962560249852607,fall
23/10/2020, 15:22:08,6.926397,-2.802173,2.6273365,0.8034633,-0.8174115,0.29796025,7.920230004953723,1.1842698533689364,fall
23/10/2020, 15:22:08,6.9048414,-2.6201515,2.8692336,0.8034633,-0.8174115,0.29796025,7.92303796296119,1.1842698533689364,fall
23/10/2020, 15:22:08,6.9048414,-2.6201515,2.8692336,1.0307051,-0.89682394,0.21121742,7.92303796296119,1.3824829016745748,fall
23/10/2020, 15:22:08,7.0413575,-2.6584718,3.0201197,1.0307051,-0.89682394,0.21121742,8.109828045109435,1.3824829016745748,fall
23/10/2020, 15:22:08,7.0413575,-2.6584718,3.0201197,1.1956385,-0.95058006,0.10614863,8.109828045109435,1.5311503829638213,fall
23/10/2020, 15:22:08,7.3790555,-2.6512868,3.1853762,1.1956385,-0.95058006,0.10614863,8.463238346519661,1.5311503829638213,fall
23/10/2020, 15:22:08,7.3790555,-2.6512868,3.1853762,1.3239202,-0.98723197,-0.020911288,8.463238346519661,1.651614080953879,fall
23/10/2020, 15:22:08,7.6089773,-2.7422974,3.3458424,1.3239202,-0.98723197,-0.020911288,8.752793383875101,1.651614080953879,fall
23/10/2020, 15:22:08,7.6089773,-2.7422974,3.3458424,1.4302107,-0.9847885,-0.14552775,8.752793383875101,1.7425525372649942,fall
23/10/2020, 15:22:08,7.7478886,-2.8141482,3.439248,1.4302107,-0.9847885,-0.14552775,8.931832657912437,1.7425525372649942,fall
23/10/2020, 15:22:08,7.7478886,-2.8141482,3.439248,1.4986277,-0.92981064,-0.2579269,8.931832657912437,1.7824025905962624,fall
23/10/2020, 15:22:08,7.8341093,-2.672842,3.3506324,1.4986277,-0.92981064,-0.2579269,8.929954691562202,1.7824025905962624,fall
23/10/2020, 15:22:08,7.8341093,-2.672842,3.3506324,1.5230622,-0.8528417,-0.3581088,8.929954691562202,1.7819369746275802,fall
23/10/2020, 15:22:08,7.814949,-2.3830445,3.1470559,1.5230622,-0.8528417,-0.3581088,8.755357790673552,1.7819369746275802,fall
23/10/2020, 15:22:09,14.607224,2.6225464,7.822134,4.0141697,-2.2333968,0.29429504,16.776010757898526,4.6030673493000975,fall
23/10/2020, 15:22:09,14.607224,2.6225464,7.822134,4.3061633,-1.9939375,0.11592247,16.776010757898526,4.746816533673496,fall
23/10/2020, 15:22:09,14.870677,4.775669,6.2869267,4.3061633,-1.9939375,0.11592247,16.83655242371051,4.746816533673496,fall
23/10/2020, 15:22:09,14.870677,4.775669,6.2869267,4.165664,-1.7434828,0.048727322,16.83655242371051,4.516067417335753,fall
23/10/2020, 15:22:09,14.250367,5.951624,4.140989,4.165664,-1.7434828,0.048727322,15.988826724762623,4.516067417335753,fall
23/10/2020, 15:22:09,14.250367,5.951624,4.140989,3.7124023,-1.5919883,0.07316192,15.988826724762623,4.040013695036728,fall
23/10/2020, 15:22:09,13.328284,5.2882032,3.2452517,3.7124023,-1.5919883,0.07316192,14.701697630589656,4.040013695036728,fall
23/10/2020, 15:22:09,13.328284,5.2882032,3.2452517,3.1418543,-1.5651102,0.042618673,14.701697630589656,3.5103610449359888,fall
23/10/2020, 15:22:09,13.35942,4.5696974,3.3386574,3.1418543,-1.5651102,0.042618673,14.508716870891647,3.5103610449359888,fall
23/10/2020, 15:22:09,13.35942,4.5696974,3.3386574,2.5749717,-1.5577798,-0.073445685,14.508716870891647,3.010407160360407,fall
23/10/2020, 15:22:09,14.327007,4.3014555,4.2248144,2.5749717,-1.5577798,-0.073445685,15.543960699700222,3.010407160360407,fall
23/10/2020, 15:22:09,14.327007,4.3014555,4.2248144,2.1009405,-1.5761058,-0.14064083,15.543960699700222,2.630178754385649,fall
23/10/2020, 15:22:09,15.416741,2.914739,5.9180937,2.1009405,-1.5761058,-0.14064083,16.768883389882333,2.630178754385649,fall
23/10/2020, 15:22:09,15.416741,2.914739,5.9180937,1.7942863,-1.5455625,-0.13697563,16.768883389882333,2.372127512041881,fall
23/10/2020, 15:22:09,16.434626,3.1470559,6.0426345,1.7942863,-1.5455625,-0.13697563,17.790849097570582,2.372127512041881,fall
23/10/2020, 15:22:09,16.434626,3.1470559,6.0426345,1.6330179,-1.3928462,-0.17973618,17.790849097570582,2.1538507748368896,fall
23/10/2020, 15:22:09,16.38912,4.912185,4.0044727,1.6330179,-1.3928462,-0.17973618,17.571813308327012,2.1538507748368896,fall
23/10/2020, 15:22:09,16.38912,4.912185,4.0044727,1.3691243,-1.2230258,-0.13208872,17.571813308327012,1.8405816649270885,fall
23/10/2020, 15:22:09,14.952107,5.240303,2.2561085,1.3691243,-1.2230258,-0.13208872,16.003634530777063,1.8405816649270885,fall
23/10/2020, 15:22:09,14.952107,5.240303,2.2561085,0.90975374,-1.0935224,0.09881825,16.003634530777063,1.4259061039986345,fall
23/10/2020, 15:22:09,13.464801,4.4643164,0.9699829,0.90975374,-1.0935224,0.09881825,14.21871474573495,1.4259061039986345,fall
23/10/2020, 15:22:09,13.464801,4.4643164,0.9699829,0.39296198,-1.0251056,0.33583388,14.21871474573495,1.148061406082935,fall
23/10/2020, 15:22:09,11.982284,2.9530592,3.6907253,0.39296198,-1.0251056,0.33583388,12.880882428556744,1.148061406082935,fall
23/10/2020, 15:22:09,11.982284,2.9530592,3.6907253,0.16449843,-1.4600414,0.6217187,12.880882428556744,1.5954042694918205,fall
23/10/2020, 15:22:09,10.914104,-8.176597,3.1087356,0.16449843,-1.4600414,0.6217187,13.987088532973074,1.5954042694918205,fall
23/10/2020, 15:22:09,10.914104,-8.176597,3.1087356,1.9567764,-2.07335,0.5227586,13.987088532973074,2.8984531024147597,fall
23/10/2020, 15:22:09,16.827408,-8.995694,-2.7231374,1.9567764,-2.07335,0.5227586,19.274326061412097,2.8984531024147597,fall
23/10/2020, 15:22:09,16.827408,-8.995694,-2.7231374,2.5480936,-2.105115,-0.09910201,19.274326061412097,3.3066767128418846,fall
23/10/2020, 15:22:09,25.133335,13.457615,-5.4199295,2.5480936,-2.105115,-0.09910201,29.02012350977495,3.3066767128418846,fall
23/10/2020, 15:22:09,25.133335,13.457615,-5.4199295,0.7118335,-0.34704542,-0.78082734,29.02012350977495,1.1121325298548752,fall
23/10/2020, 15:22:10,8.954978,0.8167017,1.3244458,-0.18735981,-0.09170385,0.06705327,9.08915778625099,0.21911055516205602,fall
23/10/2020, 15:22:10,8.981323,0.488584,1.7244141,-0.18735981,-0.09170385,0.06705327,9.15841064490111,0.21911055516205602,fall
23/10/2020, 15:22:10,8.981323,0.488584,1.7244141,-0.19957711,-0.14057304,0.0927096,9.15841064490111,0.26112616036754355,fall
23/10/2020, 15:22:10,9.153765,-0.3903882,3.151846,-0.19957711,-0.14057304,0.0927096,9.689063130887318,0.26112616036754355,fall
23/10/2020, 15:22:10,9.153765,-0.3903882,3.151846,-0.100616984,-0.17844668,0.13669188,9.689063130887318,0.2462755897981807,fall
23/10/2020, 15:22:10,9.287886,-1.0753639,3.7266505,-0.100616984,-0.17844668,0.13669188,10.065244725232423,0.2462755897981807,fall
23/10/2020, 15:22:10,9.287886,-1.0753639,3.7266505,-0.013874149,-0.20654647,0.12569632,10.065244725232423,0.24218484767090082,fall
23/10/2020, 15:22:10,9.323812,-0.9987232,3.6763551,-0.013874149,-0.20654647,0.12569632,10.072065156118233,0.24218484767090082,fall
23/10/2020, 15:22:10,9.323812,-0.9987232,3.6763551,0.006895262,-0.2444201,0.10737036,10.072065156118233,0.2670526589807522,fall
23/10/2020, 15:22:10,9.220825,-0.69216067,3.4847536,0.006895262,-0.2444201,0.10737036,9.881609756685643,0.2670526589807522,fall
23/10/2020, 15:22:10,9.220825,-0.69216067,3.4847536,0.048434082,-0.29939798,0.0927096,9.881609756685643,0.3171436236173953,fall
23/10/2020, 15:22:10,9.192085,-0.8909473,3.04886,0.048434082,-0.29939798,0.0927096,9.725418569122875,0.3171436236173953,fall
23/10/2020, 15:22:10,9.192085,-0.8909473,3.04886,0.18404612,-0.35193235,0.06460981,9.725418569122875,0.40237268603119436,fall
23/10/2020, 15:22:10,9.340576,-1.0609937,2.7662477,0.18404612,-0.35193235,0.06460981,9.799193711936308,0.40237268603119436,fall
23/10/2020, 15:22:10,9.340576,-1.0609937,2.7662477,0.31110603,-0.344602,0.032844834,9.799193711936308,0.46542053384338095,fall
23/10/2020, 15:22:10,9.508228,-0.5484595,2.1555176,0.31110603,-0.344602,0.032844834,9.764910100104759,0.46542053384338095,fall
23/10/2020, 15:22:10,9.508228,-0.5484595,2.1555176,0.31477123,-0.31405872,-0.014802639,9.764910100104759,0.44489653717051164,fall
23/10/2020, 15:22:10,9.09868,-0.011975098,1.5352076,0.31477123,-0.31405872,-0.014802639,9.227295122927982,0.44489653717051164,fall
23/10/2020, 15:22:10,9.09868,-0.011975098,1.5352076,0.20603725,-0.3006197,-0.027019938,9.227295122927982,0.36544989497878916,fall
23/10/2020, 15:22:10,8.643626,0.1580713,1.8010547,0.20603725,-0.3006197,-0.027019938,8.83068846330115,0.36544989497878916,fall
23/10/2020, 15:22:10,8.643626,0.1580713,1.8010547,0.13639864,-0.35926273,-0.031906858,8.83068846330115,0.38560647036084245,fall
23/10/2020, 15:22:10,8.53585,-0.4526587,2.095642,0.13639864,-0.35926273,-0.031906858,8.80098537560937,0.38560647036084245,fall
23/10/2020, 15:22:10,8.53585,-0.4526587,2.095642,0.17793746,-0.4313448,-0.06855876,8.80098537560937,0.4716146593746227,fall
23/10/2020, 15:22:10,9.144185,-0.69695073,2.435735,0.17793746,-0.4313448,-0.06855876,9.48865985156213,0.4716146593746227,fall
23/10/2020, 15:22:10,9.144185,-0.69695073,2.435735,0.2402457,-0.44600555,-0.11009759,9.48865985156213,0.5184210916931972,fall
23/10/2020, 15:22:10,10.152488,-0.7041358,3.0296998,0.2402457,-0.44600555,-0.11009759,10.618281202477773,0.5184210916931972,fall
23/10/2020, 15:22:10,10.152488,-0.7041358,3.0296998,0.30255395,-0.3629279,-0.107654124,10.618281202477773,0.4846080630292383,fall
23/10/2020, 15:22:10,10.480606,-0.60833496,3.056045,0.30255395,-0.3629279,-0.107654124,10.934010544519733,0.4846080630292383,fall
23/10/2020, 15:22:10,10.480606,-0.60833496,3.056045,0.32698852,-0.25419396,-0.107654124,10.934010544519733,0.4279316203615658,fall
23/10/2020, 15:22:10,10.207574,0.1580713,2.179468,0.32698852,-0.25419396,-0.107654124,10.438852028213658,0.4279316203615658,fall
23/10/2020, 15:22:11,8.6077,1.1256592,3.539839,0.18526785,0.020695316,0.024292722,9.3749706308261,0.18799630042565446,fall
23/10/2020, 15:22:11,8.974138,1.0370435,2.926714,0.18526785,0.020695316,0.024292722,9.496118740645052,0.18799630042565446,fall
23/10/2020, 15:22:11,8.974138,1.0370435,2.926714,0.26345855,0.008478016,0.042618673,9.496118740645052,0.26701804361990217,fall
23/10/2020, 15:22:11,9.244776,1.2621753,2.804568,0.26345855,0.008478016,0.042618673,9.742923974795701,0.26701804361990217,fall
23/10/2020, 15:22:11,9.244776,1.2621753,2.804568,0.25124127,0.029247427,0.06338808,9.742923974795701,0.2607597260402354,fall
23/10/2020, 15:22:11,9.438772,1.22146,3.1973512,0.25124127,0.029247427,0.06338808,10.040191231919968,0.2607597260402354,fall
23/10/2020, 15:22:11,9.438772,1.22146,3.1973512,0.19992861,0.014586667,0.043840405,10.040191231919968,0.2051979571561272,fall
23/10/2020, 15:22:11,9.467513,0.855022,3.5997145,0.19992861,0.014586667,0.043840405,10.164782892650136,0.2051979571561272,fall
23/10/2020, 15:22:11,9.467513,0.855022,3.5997145,0.20725898,0.035356075,0.038953483,10.164782892650136,0.21383103724414504,fall
23/10/2020, 15:22:11,9.275911,0.7711963,3.4536183,0.20725898,0.035356075,0.038953483,9.927978346337387,0.21383103724414504,fall
23/10/2020, 15:22:11,9.275911,0.7711963,3.4536183,0.20481552,0.059790675,0.047505595,9.927978346337387,0.21858889333675052,fall
23/10/2020, 15:22:11,9.0004835,1.3651612,3.283572,0.20481552,0.059790675,0.047505595,9.677510698586312,0.21858889333675052,fall
23/10/2020, 15:22:11,9.0004835,1.3651612,3.283572,0.16572016,0.034134343,0.035288293,9.677510698586312,0.17283978135949307,fall
23/10/2020, 15:22:11,8.878338,1.0825489,3.2859669,0.16572016,0.034134343,0.035288293,9.528608160534217,0.17283978135949307,fall
23/10/2020, 15:22:11,8.878338,1.0825489,3.2859669,0.11318577,-7.409463E-5,0.015740613,9.528608160534217,0.11427506764972357,fall
23/10/2020, 15:22:11,9.16095,1.0106983,2.543511,0.11318577,-7.409463E-5,0.015740613,9.561064710303215,0.11427506764972357,fall
23/10/2020, 15:22:11,9.16095,1.0106983,2.543511,0.10463367,0.035356075,-0.011137449,9.561064710303215,0.11100585103644939,fall
23/10/2020, 15:22:11,9.3453665,1.4609619,2.1435425,0.10463367,0.035356075,-0.011137449,9.69871429425055,0.11100585103644939,fall
23/10/2020, 15:22:11,9.3453665,1.4609619,2.1435425,0.07653388,0.08300355,-1.4187838E-4,9.69871429425055,0.11290280687458223,fall
23/10/2020, 15:22:11,9.431587,1.2549903,2.7542725,0.07653388,0.08300355,-1.4187838E-4,9.905344770115862,0.11290280687458223,fall
23/10/2020, 15:22:11,9.431587,1.2549903,2.7542725,0.041103702,0.10010777,-0.0025853384,9.905344770115862,0.10824861776159302,fall
23/10/2020, 15:22:11,9.467513,0.8334668,3.175796,0.041103702,0.10010777,-0.0025853384,10.020686173772004,0.10824861776159302,fall
23/10/2020, 15:22:11,9.467513,0.8334668,3.175796,-0.0016568489,0.11476853,-0.016024368,10.020686173772004,0.1158936599089846,fall
23/10/2020, 15:22:11,9.474698,1.453777,3.2165112,-0.0016568489,0.11476853,-0.016024368,10.110851374163495,0.1158936599089846,fall
23/10/2020, 15:22:11,9.474698,1.453777,3.2165112,-0.06274335,0.1343162,0.007188502,10.110851374163495,0.14842252465064373,fall
23/10/2020, 15:22:11,9.333391,1.3747413,3.899092,-0.06274335,0.1343162,0.007188502,10.208086152058945,0.14842252465064373,fall
23/10/2020, 15:22:11,9.333391,1.3747413,3.899092,-0.06152162,0.10377296,0.035288293,10.208086152058945,0.12569407560529688,fall
23/10/2020, 15:22:11,9.096285,0.5604346,4.567302,-0.06152162,0.10377296,0.035288293,10.193955803352983,0.12569407560529688,fall
23/10/2020, 15:22:11,9.096285,0.5604346,4.567302,-0.008987229,0.064677596,0.042618673,10.193955803352983,0.07797636206236039,fall
23/10/2020, 15:22:11,8.847202,0.6011499,4.102669,-0.008987229,0.064677596,0.042618673,9.770683740145582,0.07797636206236039,fall
23/10/2020, 15:22:12,9.412427,0.8909473,3.7218604,-0.03342183,0.046351645,0.051170785,10.160699435770645,0.07670686357460144,fall
23/10/2020, 15:22:12,9.410032,0.8981324,3.4631984,-0.03342183,0.046351645,0.051170785,10.067228638760119,0.07670686357460144,fall
23/10/2020, 15:22:12,9.410032,0.8981324,3.4631984,-0.03708702,0.09277739,0.03406656,10.067228638760119,0.10556335087434775,fall
23/10/2020, 15:22:12,9.182506,1.1496094,3.3314724,-0.03708702,0.09277739,0.03406656,9.835584346860898,0.10556335087434775,fall
23/10/2020, 15:22:12,9.182506,1.1496094,3.3314724,-0.07618238,0.09644258,0.013297152,9.835584346860898,0.12361933746952908,fall
23/10/2020, 15:22:12,9.06994,1.4585669,3.2236965,-0.07618238,0.09644258,0.013297152,9.735678760912814,0.12361933746952908,fall
23/10/2020, 15:22:12,9.06994,1.4585669,3.2236965,-0.11405601,0.085447006,0.0059667714,9.735678760912814,0.14263788908968636,fall
23/10/2020, 15:22:12,9.062755,1.3100758,3.4536183,-0.11405601,0.085447006,0.0059667714,9.786587723952241,0.14263788908968636,fall
23/10/2020, 15:22:12,9.062755,1.3100758,3.4536183,-0.1299385,0.0768949,0.010853692,9.786587723952241,0.15137582975558064,fall
23/10/2020, 15:22:12,9.026829,1.094524,3.4655933,-0.1299385,0.0768949,0.010853692,9.730979272206381,0.15137582975558064,fall
23/10/2020, 15:22:12,9.026829,1.094524,3.4655933,-0.122608125,0.07078625,0.0035233118,9.730979272206381,0.14161871222848563,fall
23/10/2020, 15:22:12,8.885523,1.3052857,3.4248781,-0.122608125,0.07078625,0.0035233118,9.611767634571152,0.14161871222848563,fall
23/10/2020, 15:22:12,8.885523,1.3052857,3.4248781,-0.09695179,0.046351645,0.0035233118,9.611767634571152,0.10751994395241735,fall
23/10/2020, 15:22:12,8.885523,1.0849439,3.558999,-0.09695179,0.046351645,0.0035233118,9.633072913094159,0.10751994395241735,fall
23/10/2020, 15:22:12,8.885523,1.0849439,3.558999,-0.08962141,0.018251857,0.0023015817,9.633072913094159,0.09149002483481945,fall
23/10/2020, 15:22:12,9.168135,0.9915381,3.7649708,-0.08962141,0.018251857,0.0023015817,9.960564565827116,0.09149002483481945,fall
23/10/2020, 15:22:12,9.168135,0.9915381,3.7649708,-0.10428217,0.028025696,-0.0050287982,9.960564565827116,0.10809948909414366,fall
23/10/2020, 15:22:12,9.189691,1.092129,3.7338357,-0.10428217,0.028025696,-0.0050287982,9.979212788943782,0.10809948909414366,fall
23/10/2020, 15:22:12,9.189691,1.092129,3.7338357,-0.10428217,0.050016835,0.004745042,9.979212788943782,0.11575392144999717,fall
23/10/2020, 15:22:12,9.06994,1.1687696,3.3889527,-0.10428217,0.050016835,0.004745042,9.752683096626072,0.11575392144999717,fall
23/10/2020, 15:22:12,9.06994,1.1687696,3.3889527,-0.11283428,0.057347216,0.018184073,9.752683096626072,0.12787078991920675,fall
23/10/2020, 15:22:12,9.050779,1.3052857,3.408113,-0.11283428,0.057347216,0.018184073,9.758873484545445,0.12787078991920675,fall
23/10/2020, 15:22:12,9.050779,1.3052857,3.408113,-0.10306044,0.058568943,0.026736183,9.758873484545445,0.12151789472639707,fall
23/10/2020, 15:22:12,9.010064,1.1136842,3.652405,-0.10306044,0.058568943,0.026736183,9.785786143225014,0.12151789472639707,fall
23/10/2020, 15:22:12,9.010064,1.1136842,3.652405,-0.09695179,0.054903757,0.051170785,9.785786143225014,0.12260718316341791,fall
23/10/2020, 15:22:12,8.931028,1.1759547,3.6045046,-0.09695179,0.054903757,0.051170785,9.702504338386191,0.12260718316341791,fall
23/10/2020, 15:22:12,8.931028,1.1759547,3.6045046,-0.09450833,0.042686455,0.06216635,9.702504338386191,0.12090745514935147,fall
23/10/2020, 15:22:12,8.883128,1.4418018,3.5566041,-0.09450833,0.042686455,0.06216635,9.676682875169545,0.12090745514935147,fall
23/10/2020, 15:22:12,8.883128,1.4418018,3.5566041,-0.08717795,0.004812825,0.06338808,9.676682875169545,0.10789442231562761,fall
23/10/2020, 15:22:12,8.866363,1.1663746,3.652405,-0.08717795,0.004812825,0.06338808,9.659859074195191,0.10789442231562761,fall
23/10/2020, 15:22:13,8.935819,1.5663428,3.2476466,-0.059078157,0.07567317,-0.030685129,9.635844200183305,0.10078806707552876,fall
23/10/2020, 15:22:13,8.808882,1.1520045,3.3937428,-0.059078157,0.07567317,-0.030685129,9.510047443050448,0.10078806707552876,fall
23/10/2020, 15:22:13,8.808882,1.1520045,3.3937428,-0.04319567,0.034134343,-0.03312859,9.510047443050448,0.06425358053685913,fall
23/10/2020, 15:22:13,9.024434,0.97956306,3.776946,-0.04319567,0.034134343,-0.03312859,9.83185008130424,0.06425358053685913,fall
23/10/2020, 15:22:13,9.024434,0.97956306,3.776946,0.0032300716,0.019473586,-0.04045897,9.83185008130424,0.045017576105649416,fall
23/10/2020, 15:22:13,9.105865,0.96758795,3.6907253,0.0032300716,0.019473586,-0.04045897,9.872914899741053,0.045017576105649416,fall
23/10/2020, 15:22:13,9.105865,0.96758795,3.6907253,0.027664673,0.021917047,-0.034350317,9.872914899741053,0.04925073942055633,fall
23/10/2020, 15:22:13,9.275911,1.1759547,3.6500099,0.027664673,0.021917047,-0.034350317,10.037328954165458,0.04925073942055633,fall
23/10/2020, 15:22:13,9.275911,1.1759547,3.6500099,0.025221212,0.035356075,-0.03557205,10.037328954165458,0.0561385086564812,fall
23/10/2020, 15:22:13,9.285491,1.2981006,3.7242556,0.025221212,0.035356075,-0.03557205,10.088383792903832,0.0561385086564812,fall
23/10/2020, 15:22:13,9.285491,1.2981006,3.7242556,0.015447372,0.050016835,-0.030685129,10.088383792903832,0.060678515366549515,fall
23/10/2020, 15:22:13,9.134604,1.1975098,3.7074904,0.015447372,0.050016835,-0.030685129,9.930786150363684,0.060678515366549515,fall
23/10/2020, 15:22:13,9.134604,1.1975098,3.7074904,0.021556022,0.041464724,-0.028241668,9.930786150363684,0.05460382021303448,fall
23/10/2020, 15:22:13,9.09868,1.0226734,3.5925295,0.021556022,0.041464724,-0.028241668,9.835552790685686,0.05460382021303448,fall
23/10/2020, 15:22:13,9.09868,1.0226734,3.5925295,0.022777751,0.028025696,-0.03557205,9.835552790685686,0.05069157920747246,fall
23/10/2020, 15:22:13,9.08431,1.1999048,3.5134938,0.022777751,0.028025696,-0.03557205,9.813719506482062,0.05069157920747246,fall
23/10/2020, 15:22:13,9.08431,1.1999048,3.5134938,0.03743851,0.024360506,-0.045345888,9.813719506482062,0.06365002696251276,fall
23/10/2020, 15:22:13,9.017249,1.21188,3.408113,0.03743851,0.024360506,-0.045345888,9.715691882840709,0.06365002696251276,fall
23/10/2020, 15:22:13,9.017249,1.21188,3.408113,0.045990624,0.009699745,-0.045345888,9.715691882840709,0.06531058126405631,fall
23/10/2020, 15:22:13,9.110655,1.101709,3.5063088,0.045990624,0.009699745,-0.045345888,9.824051890448017,0.06531058126405631,fall
23/10/2020, 15:22:13,9.110655,1.101709,3.5063088,0.060651384,-0.002517555,-0.05756319,9.824051890448017,0.08365673478790536,fall
23/10/2020, 15:22:13,9.16095,1.1256592,3.4991236,0.060651384,-0.002517555,-0.05756319,9.870864906996156,0.08365673478790536,fall
23/10/2020, 15:22:13,9.16095,1.1256592,3.4991236,0.088751175,0.010921476,-0.06000665,9.870864906996156,0.10768865986824404,fall
23/10/2020, 15:22:13,9.196876,0.98195803,3.5087037,0.088751175,0.010921476,-0.06000665,9.892308304012214,0.10768865986824404,fall
23/10/2020, 15:22:13,9.196876,0.98195803,3.5087037,0.124181345,0.032912616,-0.06122838,9.892308304012214,0.1423136016436607,fall
23/10/2020, 15:22:13,9.19927,1.1400293,3.5110989,0.124181345,0.032912616,-0.06122838,9.912318353961359,0.1423136016436607,fall
23/10/2020, 15:22:13,9.19927,1.1400293,3.5110989,0.1144075,0.053682026,-0.06000665,9.912318353961359,0.13989865705122057,fall
23/10/2020, 15:22:13,9.0148535,1.5016773,3.300337,0.1144075,0.053682026,-0.06000665,9.716730040204652,0.13989865705122057,fall
23/10/2020, 15:22:13,9.0148535,1.5016773,3.300337,0.069203496,0.058568943,-0.053898,9.716730040204652,0.10547245751743485,fall
23/10/2020, 15:22:13,8.923843,1.7363893,3.159031,0.069203496,0.058568943,-0.053898,9.624422309179728,0.10547245751743485,fall
23/10/2020, 15:22:14,9.101074,0.22273682,3.6811452,0.008116991,-0.21265511,0.036510024,9.819877470980886,0.21591911480464646,fall
23/10/2020, 15:22:14,9.216036,0.30895755,3.657195,0.008116991,-0.21265511,0.036510024,9.919972145061545,0.21591911480464646,fall
23/10/2020, 15:22:14,9.216036,0.30895755,3.657195,0.11318577,-0.15279035,0.06949673,9.919972145061545,0.20244926737833108,fall
23/10/2020, 15:22:14,8.947793,0.32332766,3.755391,0.11318577,-0.15279035,0.06949673,9.709299725040035,0.20244926737833108,fall
23/10/2020, 15:22:14,8.947793,0.32332766,3.755391,0.20725898,-0.12957747,0.09637479,9.709299725040035,0.2627445674740036,fall
23/10/2020, 15:22:14,8.710687,0.20597169,3.5997145,0.20725898,-0.12957747,0.09637479,9.427429736956102,0.2627445674740036,fall
23/10/2020, 15:22:14,8.710687,0.20597169,3.5997145,0.21458937,-0.12102537,0.11347901,9.427429736956102,0.2712438467788884,fall
23/10/2020, 15:22:14,8.760982,0.60833496,3.293152,0.21458937,-0.12102537,0.11347901,9.379217452730904,0.2712438467788884,fall
23/10/2020, 15:22:14,8.760982,0.60833496,3.293152,0.18404612,-0.110029794,0.09881825,9.379217452730904,0.2361028933467084,fall
23/10/2020, 15:22:14,8.464,1.331631,3.288362,0.18404612,-0.110029794,0.09881825,9.17746465684923,0.2361028933467084,fall
23/10/2020, 15:22:14,8.464,1.331631,3.288362,0.13273346,-0.11613844,0.109813824,9.17746465684923,0.2077628132267215,fall
23/10/2020, 15:22:14,8.3322735,1.84177,2.943479,0.13273346,-0.11613844,0.109813824,9.02679163995699,0.2077628132267215,fall
23/10/2020, 15:22:14,8.3322735,1.84177,2.943479,0.025221212,-0.17233802,0.11958766,9.02679163995699,0.21127638853520336,fall
23/10/2020, 15:22:14,8.260423,1.583108,2.9051588,0.025221212,-0.17233802,0.11958766,8.898357234787422,0.21127638853520336,fall
23/10/2020, 15:22:14,8.260423,1.583108,2.9051588,-0.11161255,-0.23831145,0.15623957,8.898357234787422,0.3060400528044764,fall
23/10/2020, 15:22:14,8.425679,0.35925296,3.5805542,-0.11161255,-0.23831145,0.15623957,9.16195947931591,0.3060400528044764,fall
23/10/2020, 15:22:14,8.425679,0.35925296,3.5805542,-0.13726889,-0.2761851,0.1696786,9.16195947931591,0.3520110520483959,fall
23/10/2020, 15:22:14,8.935819,-0.45984375,4.2367897,-0.13726889,-0.2761851,0.1696786,9.900035283344101,0.3520110520483959,fall
23/10/2020, 15:22:14,8.935819,-0.45984375,4.2367897,-0.059078157,-0.28107202,0.13058324,9.900035283344101,0.31550545531834306,fall
23/10/2020, 15:22:14,9.501043,-0.91729254,4.3206153,-0.059078157,-0.28107202,0.13058324,10.47754581264867,0.31550545531834306,fall
23/10/2020, 15:22:14,9.501043,-0.91729254,4.3206153,0.0044518015,-0.21265511,0.10737036,10.47754581264867,0.23826541886691854,fall
23/10/2020, 15:22:14,9.987232,-0.25387207,4.026028,0.0044518015,-0.21265511,0.10737036,10.771172680956221,0.23826541886691854,fall
23/10/2020, 15:22:14,9.987232,-0.25387207,4.026028,0.06431657,-0.07704309,0.11103555,10.771172680956221,0.14967014188677974,fall
23/10/2020, 15:22:14,9.855506,0.7185059,4.361331,0.06431657,-0.07704309,0.11103555,10.801317332790552,0.14967014188677974,fall
23/10/2020, 15:22:14,9.855506,0.7185059,4.361331,0.07653388,-0.006182745,0.15135264,10.801317332790552,0.16971530102871868,fall
23/10/2020, 15:22:14,9.091495,0.4143384,4.8259645,0.07653388,-0.006182745,0.15135264,10.301304894893558,0.16971530102871868,fall
23/10/2020, 15:22:14,9.091495,0.4143384,4.8259645,0.044768892,-0.07093444,0.17578726,10.301304894893558,0.19477450339794866,fall
23/10/2020, 15:22:14,8.5502205,-0.47900394,4.981641,0.044768892,-0.07093444,0.17578726,9.90719235741631,0.19477450339794866,fall
23/10/2020, 15:22:14,8.5502205,-0.47900394,4.981641,0.030108131,-0.19310744,0.13791361,9.90719235741631,0.2392010627983278,fall
23/10/2020, 15:22:14,8.626861,-0.60354495,4.8666797,0.030108131,-0.19310744,0.13791361,9.923283813079914,0.2392010627983278,fall
23/10/2020, 15:22:15,9.414823,-0.5748047,3.6212697,-0.03586529,0.1379814,-0.031906858,10.10360722288964,0.14609323464576435,fall
23/10/2020, 15:22:15,9.905801,0.059875492,3.8296363,-0.03586529,0.1379814,-0.031906858,10.620479716534339,0.14609323464576435,fall
23/10/2020, 15:22:15,9.905801,0.059875492,3.8296363,-0.03586529,0.23327634,0.0010798516,10.620479716534339,0.23601977578813485,fall
23/10/2020, 15:22:15,9.630374,0.7711963,4.1218286,-0.03586529,0.23327634,0.0010798516,10.503728713953564,0.23601977578813485,fall
23/10/2020, 15:22:15,9.630374,0.7711963,4.1218286,-0.11405601,0.26381958,0.08904441,10.503728713953564,0.30089607667349777,fall
23/10/2020, 15:22:15,9.053174,0.49337405,3.6332448,-0.11405601,0.26381958,0.08904441,9.767489196461858,0.30089607667349777,fall
23/10/2020, 15:22:15,9.053174,0.49337405,3.6332448,-0.1177212,0.23083289,0.12813978,9.767489196461858,0.2890707644125396,fall
23/10/2020, 15:22:15,8.725057,0.0,3.2548318,-0.1177212,0.23083289,0.12813978,9.31238656319948,0.2890707644125396,fall
23/10/2020, 15:22:15,8.725057,0.0,3.2548318,-0.06640854,0.18074195,0.11958766,9.31238656319948,0.22666926350790906,fall
23/10/2020, 15:22:15,8.945398,0.043110352,3.4895437,-0.06640854,0.18074195,0.11958766,9.602027122773228,0.22666926350790906,fall
23/10/2020, 15:22:15,8.945398,0.043110352,3.4895437,-0.07251719,0.14897697,0.12813978,9.602027122773228,0.20945806715765383,fall
23/10/2020, 15:22:15,9.424402,0.21794678,3.542234,-0.07251719,0.14897697,0.12813978,10.070465711043305,0.20945806715765383,fall
23/10/2020, 15:22:15,9.424402,0.21794678,3.542234,-0.07496065,0.18196368,0.16356994,10.070465711043305,0.2559003839293129,fall
23/10/2020, 15:22:15,9.474698,-0.05269043,3.4775686,-0.07496065,0.18196368,0.16356994,10.092876858867465,0.2559003839293129,fall
23/10/2020, 15:22:15,9.474698,-0.05269043,3.4775686,-0.04808259,0.23816326,0.1611265,10.092876858867465,0.2915397439905975,fall
23/10/2020, 15:22:15,9.17053,0.16765137,3.2141163,-0.04808259,0.23816326,0.1611265,9.71891337197263,0.2915397439905975,fall
23/10/2020, 15:22:15,9.17053,0.16765137,3.2141163,-0.05541297,0.23327634,0.1330267,9.71891337197263,0.27419801405162564,fall
23/10/2020, 15:22:15,8.971744,0.46942386,3.4416432,-0.05541297,0.23327634,0.1330267,9.620678243765107,0.27419801405162564,fall
23/10/2020, 15:22:15,8.971744,0.46942386,3.4416432,-0.11405601,0.18318541,0.123252854,9.620678243765107,0.2485094281726265,fall
23/10/2020, 15:22:15,9.062755,0.26345217,3.9685476,-0.11405601,0.18318541,0.123252854,9.897085352018038,0.2485094281726265,fall
23/10/2020, 15:22:15,9.062755,0.26345217,3.9685476,-0.2069075,0.14897697,0.11225728,9.897085352018038,0.2785795133368015,fall
23/10/2020, 15:22:15,9.182506,-0.23471193,4.143384,-0.2069075,0.14897697,0.11225728,10.076761867182125,0.2785795133368015,fall
23/10/2020, 15:22:15,9.182506,-0.23471193,4.143384,-0.24722458,0.1343162,0.07560538,10.076761867182125,0.2913365945900203,fall
23/10/2020, 15:22:15,9.216036,-0.5843848,3.8823268,-0.24722458,0.1343162,0.07560538,10.017448974361775,0.2913365945900203,fall
23/10/2020, 15:22:15,9.216036,-0.5843848,3.8823268,-0.21423787,0.1343162,0.035288293,10.017448974361775,0.25531151800724833,fall
23/10/2020, 15:22:15,9.17053,-0.23231691,3.1901662,-0.21423787,0.1343162,0.035288293,9.712350801407613,0.25531151800724833,fall
23/10/2020, 15:22:15,9.17053,-0.23231691,3.1901662,-0.16170348,0.162416,0.0035233118,9.712350801407613,0.22921471533060195,fall
23/10/2020, 15:22:15,9.0004835,0.34488282,3.1398706,-0.16170348,0.162416,0.0035233118,9.538681003213219,0.22921471533060195,fall
23/10/2020, 15:22:15,9.0004835,0.34488282,3.1398706,-0.15926002,0.14897697,-0.0025853384,9.538681003213219,0.2180930408233073,fall
23/10/2020, 15:22:15,8.950189,0.3305127,3.68354,-0.15926002,0.14897697,-0.0025853384,9.684192428468931,0.2180930408233073,fall
23/10/2020, 15:22:16,9.292676,0.17004639,3.178191,-0.13238196,0.11110334,0.023070993,9.822608624376132,0.17435941793624934,fall
23/10/2020, 15:22:16,9.580078,0.56522465,3.1159205,-0.13238196,0.11110334,0.023070993,10.08991261695257,0.17435941793624934,fall
23/10/2020, 15:22:16,9.580078,0.56522465,3.1159205,-0.16903386,0.13675967,0.045062132,10.08991261695257,0.2220501000062146,fall
23/10/2020, 15:22:16,9.606423,0.38320315,3.515889,-0.16903386,0.13675967,0.045062132,10.2367812194134,0.2220501000062146,fall
23/10/2020, 15:22:16,9.606423,0.38320315,3.515889,-0.1946902,0.17952022,0.08904441,10.2367812194134,0.2793934300142516,fall
23/10/2020, 15:22:16,9.438772,0.11496094,3.3602126,-0.1946902,0.17952022,0.08904441,10.019713826670115,0.2793934300142516,fall
23/10/2020, 15:22:16,9.438772,0.11496094,3.3602126,-0.23012036,0.18807234,0.08782268,10.019713826670115,0.3099022567506778,fall
23/10/2020, 15:22:16,9.1849,0.49337405,2.799778,-0.23012036,0.18807234,0.08782268,9.614809823373331,0.3099022567506778,fall
23/10/2020, 15:22:16,9.1849,0.49337405,2.799778,-0.19835538,0.16730292,0.0804923,9.614809823373331,0.2716875665056678,fall
23/10/2020, 15:22:16,9.041199,0.364043,3.0201197,-0.19835538,0.16730292,0.0804923,9.539230817580547,0.2716875665056678,fall
23/10/2020, 15:22:16,9.041199,0.364043,3.0201197,-0.1299385,0.13309447,0.10126171,9.539230817580547,0.21178311294371047,fall
23/10/2020, 15:22:16,9.230406,-0.100590825,3.3051271,-0.1299385,0.13309447,0.10126171,9.804813885138733,0.21178311294371047,fall
23/10/2020, 15:22:16,9.230406,-0.100590825,3.3051271,-0.07251719,0.12454237,0.08660095,9.804813885138733,0.16813467583965083,fall
23/10/2020, 15:22:16,9.393267,-0.014370117,2.914739,-0.07251719,0.12454237,0.08660095,9.83510895714603,0.16813467583965083,fall
23/10/2020, 15:22:16,9.393267,-0.014370117,2.914739,-0.005322039,0.1465335,0.046283863,9.83510895714603,0.1537614644562233,fall
23/10/2020, 15:22:16,9.187295,0.31135255,2.914739,-0.005322039,0.1465335,0.046283863,9.6436005677746,0.1537614644562233,fall
23/10/2020, 15:22:16,9.187295,0.31135255,2.914739,0.05087754,0.1257641,0.036510024,9.6436005677746,0.1404924032288904,fall
23/10/2020, 15:22:16,8.983719,0.1460962,3.3865578,0.05087754,0.1257641,0.036510024,9.601943695052961,0.1404924032288904,fall
23/10/2020, 15:22:16,8.983719,0.1460962,3.3865578,0.044768892,0.07078625,0.020627532,9.601943695052961,0.08625799878173601,fall
23/10/2020, 15:22:16,9.1130495,-0.100590825,3.6116896,0.044768892,0.07078625,0.020627532,9.803167414981743,0.08625799878173601,fall
23/10/2020, 15:22:16,9.1130495,-0.100590825,3.6116896,0.0032300716,0.042686455,-0.009915719,9.803167414981743,0.04394187386259823,fall
23/10/2020, 15:22:16,9.455538,0.14130616,3.5039136,0.0032300716,0.042686455,-0.009915719,10.084868528978209,0.04394187386259823,fall
23/10/2020, 15:22:16,9.455538,0.14130616,3.5039136,-0.04686086,0.06589933,-0.009915719,10.084868528978209,0.08146768020636092,fall
23/10/2020, 15:22:16,9.522598,0.48618898,3.1326857,-0.04686086,0.06589933,-0.009915719,10.036432479819913,0.08146768020636092,fall
23/10/2020, 15:22:16,9.522598,0.48618898,3.1326857,-0.07984757,0.10255123,0.007188502,10.036432479819913,0.13016936317526642,fall
23/10/2020, 15:22:16,9.187295,0.62510014,2.806963,-0.07984757,0.10255123,0.007188502,9.626846833718751,0.13016936317526642,fall
23/10/2020, 15:22:16,9.187295,0.62510014,2.806963,-0.07984757,0.08789047,0.015740613,9.626846833718751,0.11978370199484475,fall
23/10/2020, 15:22:16,8.899893,0.25147706,3.0416749,-0.07984757,0.08789047,0.015740613,9.408672520436918,0.11978370199484475,fall
23/10/2020, 15:22:16,8.899893,0.25147706,3.0416749,-0.04197394,0.026803967,0.012075421,9.408672520436918,0.05124529396486521,fall
23/10/2020, 15:22:16,9.031619,-0.059875492,3.6691701,-0.04197394,0.026803967,0.012075421,9.748668507071303,0.05124529396486521,fall
23/10/2020, 15:22:17,9.273516,0.15567628,3.3769777,0.4809265,0.45807466,-0.05511973,9.870476524990574,0.6664539665756785,fall
23/10/2020, 15:22:17,9.273516,0.15567628,3.3769777,0.42594868,0.3468972,-0.038015507,9.870476524990574,0.5506497378917411,fall
23/10/2020, 15:22:17,10.027947,-0.17483643,3.8152664,0.42594868,0.3468972,-0.038015507,10.730636273381347,0.5506497378917411,fall
23/10/2020, 15:22:17,10.027947,-0.17483643,3.8152664,0.36364043,0.34078857,-0.0050287982,10.730636273381347,0.49839392140629757,fall
23/10/2020, 15:22:17,10.097403,-0.16286133,3.3434474,0.36364043,0.34078857,-0.0050287982,10.637795982111037,0.49839392140629757,fall
23/10/2020, 15:22:17,10.097403,-0.16286133,3.3434474,0.33431894,0.361558,0.013297152,10.637795982111037,0.4926156163644989,fall
23/10/2020, 15:22:17,10.257869,0.16286133,3.5110989,0.33431894,0.361558,0.013297152,10.843348683258569,0.4926156163644989,fall
23/10/2020, 15:22:17,10.257869,0.16286133,3.5110989,0.31599295,0.36888835,0.026736183,10.843348683258569,0.48646169670202244,fall
23/10/2020, 15:22:17,10.197993,-0.033530276,4.181704,0.31599295,0.36888835,0.026736183,11.02210687220434,0.48646169670202244,fall
23/10/2020, 15:22:17,10.197993,-0.033530276,4.181704,0.40640098,0.3542276,0.035288293,11.02210687220434,0.54026309642213,fall
23/10/2020, 15:22:17,10.209969,-0.39996827,4.869075,0.40640098,0.3542276,0.035288293,11.318627229848383,0.54026309642213,fall
23/10/2020, 15:22:17,10.209969,-0.39996827,4.869075,0.55667377,0.29802802,0.008410231,11.318627229848383,0.6314880163225687,fall
23/10/2020, 15:22:17,10.535691,-0.18920656,5.230723,0.55667377,0.29802802,0.008410231,11.764227623370397,0.6314880163225687,fall
23/10/2020, 15:22:17,10.535691,-0.18920656,5.230723,0.7888025,0.2516023,-0.052676268,11.764227623370397,0.8296311793443086,fall
23/10/2020, 15:22:17,10.763218,-0.2562671,4.912185,0.7888025,0.2516023,-0.052676268,11.833938326335693,0.8296311793443086,fall
23/10/2020, 15:22:17,10.763218,-0.2562671,4.912185,1.067357,0.2235025,-0.15285812,11.833938326335693,1.1011674805582181,fall
23/10/2020, 15:22:17,11.548784,-0.9484278,4.608018,1.067357,0.2235025,-0.15285812,12.470275146944598,1.1011674805582181,fall
23/10/2020, 15:22:17,11.548784,-0.9484278,4.608018,1.2188514,0.30291495,-0.27136594,12.470275146944598,1.2849108097814577,fall
23/10/2020, 15:22:17,12.537928,-0.043110352,5.637876,1.2188514,0.30291495,-0.27136594,13.747259140234979,1.2849108097814577,fall
23/10/2020, 15:22:17,12.537928,-0.043110352,5.637876,1.3349158,0.46173984,-0.36910436,13.747259140234979,1.459945814809259,fall
23/10/2020, 15:22:17,12.334352,0.16525635,6.1456203,1.3349158,0.46173984,-0.36910436,13.781588696604194,1.459945814809259,fall
23/10/2020, 15:22:17,12.334352,0.16525635,6.1456203,1.3898937,0.4189793,-0.4851687,13.781588696604194,1.5306001003584075,fall
23/10/2020, 15:22:17,12.662469,1.0274634,4.967271,1.3898937,0.4189793,-0.4851687,13.640659064844872,1.5306001003584075,fall
23/10/2020, 15:22:17,12.662469,1.0274634,4.967271,1.2909335,0.48250926,-0.68308896,13.640659064844872,1.5381596086046687,fall
23/10/2020, 15:22:17,13.955779,3.0009596,6.9958525,1.2909335,0.48250926,-0.68308896,15.896901588823582,1.5381596086046687,fall
23/10/2020, 15:22:17,13.955779,3.0009596,6.9958525,1.8614814,0.6914251,-0.87001365,15.896901588823582,2.167972673754198,fall
23/10/2020, 15:22:17,12.581038,-0.43589357,12.89239,1.8614814,0.6914251,-0.87001365,18.019052658198213,2.167972673754198,fall
23/10/2020, 15:22:17,12.581038,-0.43589357,12.89239,3.4839387,0.7940504,-1.1693375,18.019052658198213,3.759746676161318,fall
23/10/2020, 15:22:17,12.23376,-2.064507,8.923843,3.4839387,0.7940504,-1.1693375,15.282737016841295,3.759746676161318,fall
23/10/2020, 15:22:17,12.23376,-2.064507,8.923843,3.3348877,1.230208,-1.3159451,15.282737016841295,3.7903297629733066,fall
23/10/2020, 15:22:18,10.080638,-2.1770728,3.2021413,-0.5941959,0.3713318,-0.50471634,10.798732135699206,0.8635361398055237,fall
23/10/2020, 15:22:18,10.080638,-2.1770728,3.2021413,-0.48057503,0.6804295,-0.45584717,10.798732135699206,0.9495964037318112,fall
23/10/2020, 15:22:18,9.350157,-2.4908204,3.1111305,-0.48057503,0.6804295,-0.45584717,10.164091254479695,0.9495964037318112,fall
23/10/2020, 15:22:18,9.350157,-2.4908204,3.1111305,-0.31075454,0.9369928,-0.40575626,10.164091254479695,1.0673153617965343,fall
23/10/2020, 15:22:18,8.121511,-2.6464968,2.703977,-0.31075454,0.9369928,-0.40575626,8.959597410220038,1.0673153617965343,fall
23/10/2020, 15:22:18,8.121511,-2.6464968,2.703977,-0.12505159,0.9186669,-0.38009992,8.959597410220038,1.0020293021326758,fall
23/10/2020, 15:22:18,7.36708,-2.6584718,2.2944288,-0.12505159,0.9186669,-0.38009992,8.161234398775202,1.0020293021326758,fall
23/10/2020, 15:22:18,7.36708,-2.6584718,2.2944288,0.069203496,0.53504366,-0.38376513,8.161234398775202,0.6620698713258505,fall
23/10/2020, 15:22:18,7.932305,-2.6656568,2.1363575,0.069203496,0.53504366,-0.38376513,8.63662029642641,0.6620698713258505,fall
23/10/2020, 15:22:18,7.932305,-2.6656568,2.1363575,0.2695672,-0.068490975,-0.38620856,8.63662029642641,0.4759354360941064,fall
23/10/2020, 15:22:18,10.1189575,-2.5818312,2.3447242,0.2695672,-0.068490975,-0.38620856,10.703125019663878,0.4759354360941064,fall
23/10/2020, 15:22:18,10.1189575,-2.5818312,2.3447242,0.4638223,-0.5852828,-0.38132167,10.703125019663878,0.8385065919622807,fall
23/10/2020, 15:22:18,13.419295,-2.4620802,2.4572902,0.4638223,-0.5852828,-0.38132167,13.862813594101407,0.8385065919622807,fall
23/10/2020, 15:22:18,13.419295,-2.4620802,2.4572902,0.59210396,-0.72944695,-0.39842588,13.862813594101407,1.020501409159897,fall
23/10/2020, 15:22:18,17.320782,-2.090852,2.318379,0.59210396,-0.72944695,-0.39842588,17.59988698793266,1.020501409159897,fall
23/10/2020, 15:22:18,17.320782,-2.090852,2.318379,0.7118335,-0.3983581,-0.42530394,17.59988698793266,0.9199345183719422,fall
23/10/2020, 15:22:18,19.722986,-1.7579445,2.3064039,0.7118335,-0.3983581,-0.42530394,19.935045850543375,0.9199345183719422,fall
23/10/2020, 15:22:18,19.722986,-1.7579445,2.3064039,0.9280797,0.1868506,-0.37399128,19.935045850543375,1.0178971471974507,fall
23/10/2020, 15:22:18,18.791325,-1.9255958,2.2896388,0.9280797,0.1868506,-0.37399128,19.02798584919952,1.0178971471974507,fall
23/10/2020, 15:22:18,18.791325,-1.9255958,2.2896388,1.1773126,0.7170814,-0.17851445,19.02798584919952,1.39001373034324,fall
23/10/2020, 15:22:18,15.191609,-2.059717,2.3135889,1.1773126,0.7170814,-0.17851445,15.504196944997117,1.39001373034324,fall
23/10/2020, 15:22:18,15.191609,-2.059717,2.3135889,1.3715677,1.0371747,0.0010798516,15.504196944997117,1.7195727827813931,fall
23/10/2020, 15:22:18,11.833792,-1.585503,2.1411476,1.3715677,1.0371747,0.0010798516,12.130002456070759,1.7195727827813931,fall
23/10/2020, 15:22:18,11.833792,-1.585503,2.1411476,1.4729713,1.1483521,0.042618673,12.130002456070759,1.8682006083043783,fall
23/10/2020, 15:22:18,9.148975,-0.974773,2.1100123,1.4729713,1.1483521,0.042618673,9.439601931267593,1.8682006083043783,fall
23/10/2020, 15:22:18,9.148975,-0.974773,2.1100123,1.4851886,1.1092569,0.048727322,9.439601931267593,1.8543490310749515,fall
23/10/2020, 15:22:18,7.053333,-0.70174074,2.1315675,1.4851886,1.1092569,0.048727322,7.401724370014336,1.8543490310749515,fall
23/10/2020, 15:22:18,7.053333,-0.70174074,2.1315675,1.4998493,0.9284407,0.1330267,7.401724370014336,1.7689675520002965,fall
23/10/2020, 15:22:18,5.647456,-0.82388675,2.0525317,1.4998493,0.9284407,0.1330267,6.0650999184608345,1.7689675520002965,fall
23/10/2020, 15:22:18,5.647456,-0.82388675,2.0525317,1.5572706,0.61689955,0.28329948,6.0650999184608345,1.6987982555271532,fall
23/10/2020, 15:22:19,10.427916,0.51492923,1.0514137,-0.2716592,-0.18333359,-0.23837923,10.493428705226487,0.40525865676863226,fall
23/10/2020, 15:22:19,10.427916,0.51492923,1.0514137,-0.38772357,-0.035504267,-0.21394463,10.493428705226487,0.4442549044079788,fall
23/10/2020, 15:22:19,9.019644,0.76161623,-0.51971924,-0.38772357,-0.035504267,-0.21394463,9.066649952209096,0.4442549044079788,fall
23/10/2020, 15:22:19,9.019644,0.76161623,-0.51971924,-0.38161486,-0.022065235,-0.25059655,9.066649952209096,0.4570726543522128,fall
23/10/2020, 15:22:19,7.8508744,1.343606,0.5556446,-0.38161486,-0.022065235,-0.25059655,7.9843751904293185,0.4570726543522128,fall
23/10/2020, 15:22:19,7.8508744,1.343606,0.5556446,-0.27776784,-0.16989456,-0.23471405,7.9843751904293185,0.4013848734818991,fall
23/10/2020, 15:22:19,8.279583,-0.23710695,1.3986914,-0.27776784,-0.16989456,-0.23471405,8.40024116676507,0.4013848734818991,fall
23/10/2020, 15:22:19,8.279583,-0.23710695,1.3986914,-0.19957711,-0.2847372,-0.23471405,8.40024116676507,0.41951993790384023,fall
23/10/2020, 15:22:19,10.30577,-1.4298267,2.2704787,-0.19957711,-0.2847372,-0.23471405,10.649336683103131,0.41951993790384023,fall
23/10/2020, 15:22:19,10.30577,-1.4298267,2.2704787,-0.07373892,-0.16012073,-0.2090577,10.649336683103131,0.2734615113724226,fall
23/10/2020, 15:22:19,11.340418,-0.55324954,2.6345215,-0.07373892,-0.16012073,-0.2090577,11.65555085726294,0.2734615113724226,fall
23/10/2020, 15:22:19,11.340418,-0.55324954,2.6345215,-0.024869718,0.021917047,-0.15285812,11.65555085726294,0.15641120684834436,fall
