DATE,TIME,ax,ay,az,gx,gy,gz,ma,mg,label
23/10/2020, 15:55:12,-0.18920656,3.4631984,9.369317,-0.09079031,0.1744729,-0.011446816,9.990677880543501,0.19701447161831678,walk
23/10/2020, 15:55:12,-0.31135255,3.4967287,9.649534,-0.09079031,0.1744729,-0.011446816,10.268279431911148,0.19701447161831678,walk
23/10/2020, 15:55:12,-0.31135255,3.4967287,9.649534,-0.07857301,0.15981214,-0.015112006,10.268279431911148,0.17872327786780634,walk
23/10/2020, 15:55:12,-0.33769777,3.4703834,9.800421,-0.07857301,0.15981214,-0.015112006,10.402203990688795,0.17872327786780634,walk
23/10/2020, 15:55:12,-0.33769777,3.4703834,9.800421,-0.054138403,0.14026447,-0.03221623,10.402203990688795,0.15376271537233144,walk
23/10/2020, 15:55:12,-0.3784131,3.4440382,10.047108,-0.054138403,0.14026447,-0.03221623,10.627745214555556,0.15376271537233144,walk
23/10/2020, 15:55:12,-0.3784131,3.4440382,10.047108,-0.06879917,0.110942945,-0.038324878,10.627745214555556,0.13605314683599426,walk
23/10/2020, 15:55:12,0.82388675,3.4703834,10.825489,-0.06879917,0.110942945,-0.038324878,11.39796312542972,0.13605314683599426,walk
23/10/2020, 15:55:12,0.82388675,3.4703834,10.825489,0.035047885,0.15126003,-0.024885846,11.39796312542972,0.15724902940883742,walk
23/10/2020, 15:55:12,-1.3675562,2.8428884,11.5751295,0.035047885,0.15126003,-0.024885846,11.997326675109047,0.15724902940883742,walk
23/10/2020, 15:55:12,-1.3675562,2.8428884,11.5751295,0.039934807,-0.06376445,0.047196224,11.997326675109047,0.08881541432338555,walk
23/10/2020, 15:55:12,2.7542725,4.0523734,9.472302,0.039934807,-0.06376445,0.047196224,10.664532830461756,0.08881541432338555,walk
23/10/2020, 15:55:12,2.7542725,4.0523734,9.472302,0.19753799,0.03641741,0.06430045,10.664532830461756,0.21090763898057857,walk
23/10/2020, 15:55:12,0.6682105,3.915857,4.7972245,0.19753799,0.03641741,0.06430045,6.2284673103919115,0.21090763898057857,walk
23/10/2020, 15:55:12,0.6682105,3.915857,4.7972245,-0.11644664,0.20623788,0.049639687,6.2284673103919115,0.24198756543670652,walk
23/10/2020, 15:55:12,2.5985963,4.0356083,4.9361353,-0.11644664,0.20623788,0.049639687,6.885075803093899,0.24198756543670652,walk
23/10/2020, 15:55:12,2.5985963,4.0356083,4.9361353,-0.027260344,-0.031999473,0.055748336,6.885075803093899,0.06982098246026873,walk
23/10/2020, 15:55:12,3.7482057,4.150569,10.468631,-0.027260344,-0.031999473,0.055748336,11.868803605430816,0.06982098246026873,walk
23/10/2020, 15:55:12,3.7482057,4.150569,10.468631,0.1694382,-0.20059821,0.055748336,11.868803605430816,0.26843401773022313,walk
23/10/2020, 15:55:12,1.0657837,3.7003052,17.478853,0.1694382,-0.20059821,0.055748336,17.898001670889236,0.26843401773022313,walk
23/10/2020, 15:55:12,1.0657837,3.7003052,17.478853,-0.14698988,0.15492523,0.011766055,17.898001670889236,0.21388382702475922,walk
23/10/2020, 15:55:12,-4.773274,2.6129665,11.115286,-0.14698988,0.15492523,0.011766055,12.375836065748963,0.21388382702475922,walk
23/10/2020, 15:55:12,-4.773274,2.6129665,11.115286,0.24029854,0.23678114,0.047196224,12.375836065748963,0.3406408337476497,walk
23/10/2020, 15:55:12,-1.1951149,3.3434474,1.4274317,0.24029854,0.23678114,0.047196224,3.8268135050418715,0.3406408337476497,walk
23/10/2020, 15:55:12,-1.1951149,3.3434474,1.4274317,0.13522975,-0.08331213,0.088735044,3.8268135050418715,0.18193928922941213,walk
23/10/2020, 15:55:12,4.378096,4.4475513,12.022999,0.13522975,-0.08331213,0.088735044,13.54625180628217,0.18193928922941213,walk
23/10/2020, 15:55:12,4.378096,4.4475513,12.022999,-0.08590339,-0.09186424,0.083848126,13.54625180628217,0.15115865859778133,walk
23/10/2020, 15:55:12,-2.804568,2.8859987,15.764019,-0.08590339,-0.09186424,0.083848126,16.26956932529879,0.15115865859778133,walk
23/10/2020, 15:55:12,-2.804568,2.8859987,15.764019,0.24885064,0.13049063,0.069187365,16.26956932529879,0.2893809584648293,walk
23/10/2020, 15:55:12,-3.432063,2.7806177,2.1555176,0.24885064,0.13049063,0.069187365,4.914992171070488,0.2893809584648293,walk
23/10/2020, 15:55:13,2.1603076,-12.075689,12.427757,-1.6717091,-2.0576277,2.003186,17.462484135103228,3.322829659320658,walk
23/10/2020, 15:55:13,7.3000197,-10.176438,3.046465,-1.6717091,-2.0576277,2.003186,12.88918670226478,3.322829659320658,walk
23/10/2020, 15:55:13,7.3000197,-10.176438,3.046465,-0.87391925,-2.3264084,1.4436337,12.88918670226478,2.874019662740434,walk
23/10/2020, 15:55:13,14.429994,-8.214917,9.901011,-0.87391925,-2.3264084,1.4436337,19.332346172611082,2.874019662740434,walk
23/10/2020, 15:55:13,14.429994,-8.214917,9.901011,-0.65156436,-2.2812042,0.72281295,19.332346172611082,2.48009826141564,walk
23/10/2020, 15:55:13,11.361973,-9.307046,16.084951,-0.65156436,-2.2812042,0.72281295,21.781671004291074,2.48009826141564,walk
23/10/2020, 15:55:13,11.361973,-9.307046,16.084951,0.0643694,-1.962333,0.13516077,21.781671004291074,1.9680351918158439,walk
23/10/2020, 15:55:13,7.2185893,-10.92608,8.284373,0.0643694,-1.962333,0.13516077,15.49574428577437,1.9680351918158439,walk
23/10/2020, 15:55:13,7.2185893,-10.92608,8.284373,0.4626534,-1.6556786,-0.47570422,15.49574428577437,1.7837080479392706,walk
23/10/2020, 15:55:13,10.748848,-11.215877,9.716595,0.4626534,-1.6556786,-0.47570422,18.323368479261717,1.7837080479392706,walk
23/10/2020, 15:55:13,10.748848,-11.215877,9.716595,0.70944285,-1.5359491,-1.1574296,18.323368479261717,2.0499004994727312,walk
23/10/2020, 15:55:13,13.850399,-9.630374,8.135881,0.70944285,-1.5359491,-1.1574296,18.728860669904968,2.0499004994727312,walk
23/10/2020, 15:55:13,13.850399,-9.630374,8.135881,0.9049197,-1.2891597,-1.8831372,18.728860669904968,2.4549985874259086,walk
23/10/2020, 15:55:13,12.231365,-7.9873905,8.701106,0.9049197,-1.2891597,-1.8831372,17.00335110815486,2.4549985874259086,walk
23/10/2020, 15:55:13,12.231365,-7.9873905,8.701106,0.7998509,-1.0264877,-2.4817848,17.00335110815486,2.8022659299939305,walk
23/10/2020, 15:55:13,10.087823,-5.9468336,6.468948,0.7998509,-1.0264877,-2.4817848,13.378201968435997,2.8022659299939305,walk
23/10/2020, 15:55:13,10.087823,-5.9468336,6.468948,0.2060901,-0.83101094,-2.8764038,13.378201968435997,3.001124984892575,walk
23/10/2020, 15:55:13,8.725057,-3.537444,4.631968,0.2060901,-0.83101094,-2.8764038,10.492628466260202,3.001124984892575,walk
23/10/2020, 15:55:13,8.725057,-3.537444,4.631968,-0.6454557,-0.65874696,-3.1989405,10.492628466260202,3.329231301690813,walk
23/10/2020, 15:55:13,7.7359133,-1.1687696,4.998406,-0.6454557,-0.65874696,-3.1989405,9.28409599650237,3.329231301690813,walk
23/10/2020, 15:55:13,7.7359133,-1.1687696,4.998406,-1.278312,-0.47426575,-3.3822,9.28409599650237,3.646681553253497,walk
23/10/2020, 15:55:13,6.4138627,0.68737066,5.508545,-1.278312,-0.47426575,-3.3822,8.482580997505112,3.646681553253497,walk
23/10/2020, 15:55:13,6.4138627,0.68737066,5.508545,-1.5715271,-0.29955837,-3.3760912,8.482580997505112,3.735963703084859,walk
23/10/2020, 15:55:13,5.4582496,2.304009,5.7145166,-1.5715271,-0.29955837,-3.3760912,8.23144252688661,3.735963703084859,walk
23/10/2020, 15:55:13,5.4582496,2.304009,5.7145166,-1.703474,-0.11996403,-3.2319272,8.23144252688661,3.6553479089132233,walk
23/10/2020, 15:55:13,4.8379397,3.7122805,5.7791824,-1.703474,-0.11996403,-3.2319272,8.401525880785194,3.6553479089132233,walk
23/10/2020, 15:55:13,4.8379397,3.7122805,5.7791824,-1.8024341,0.04741298,-3.0535545,8.401525880785194,3.546154526475822,walk
23/10/2020, 15:55:13,4.145779,4.888235,5.4486694,-1.8024341,0.04741298,-3.0535545,8.412510061280765,3.546154526475822,walk
23/10/2020, 15:55:13,4.145779,4.888235,5.4486694,-1.8586338,0.22945076,-2.8397517,8.412510061280765,3.4016697263691373,walk
23/10/2020, 15:55:13,3.391348,5.53489,5.592371,-1.8586338,0.22945076,-2.8397517,8.56801394614671,3.4016697263691373,walk
23/10/2020, 15:55:14,2.2201831,-1.5160475,9.917776,-0.30947998,-0.0038996818,0.1400477,10.275694430439662,0.33971521105504016,walk
23/10/2020, 15:55:14,2.1100123,-1.6884888,9.924961,-0.30947998,-0.0038996818,0.1400477,10.286301525920797,0.33971521105504016,walk
23/10/2020, 15:55:14,2.1100123,-1.6884888,9.924961,-0.28748885,-0.053990614,0.17792132,10.286301525920797,0.3423752648053482,walk
23/10/2020, 15:55:14,2.0237916,-1.8992506,10.106983,-0.28748885,-0.053990614,0.17792132,10.48112562108254,0.3423752648053482,walk
23/10/2020, 15:55:14,2.0237916,-1.8992506,10.106983,-0.23373272,-0.11019019,0.2219036,10.48112562108254,0.340608383841001,walk
23/10/2020, 15:55:14,1.8633252,-1.8681153,9.929751,-0.23373272,-0.11019019,0.2219036,10.274327157020045,0.340608383841001,walk
23/10/2020, 15:55:14,1.8633252,-1.8681153,9.929751,-0.21540676,-0.16394632,0.26099896,10.274327157020045,0.3760304858457712,walk
23/10/2020, 15:55:14,1.7459693,-1.5807129,9.577683,-0.21540676,-0.16394632,0.26099896,9.863015884811894,0.3760304858457712,walk
23/10/2020, 15:55:14,1.7459693,-1.5807129,9.577683,-0.28382364,-0.21037205,0.31475508,9.863015884811894,0.4731627811387444,walk
23/10/2020, 15:55:14,1.719624,-1.2549903,9.093889,-0.28382364,-0.21037205,0.31475508,9.339749945479836,0.4731627811387444,walk
23/10/2020, 15:55:14,1.719624,-1.2549903,9.093889,-0.42920953,-0.24458049,0.35751563,9.339749945479836,0.609801497303159,walk
23/10/2020, 15:55:14,1.6597486,-1.1136842,8.677156,-0.42920953,-0.24458049,0.35751563,8.904386657128345,0.609801497303159,walk
23/10/2020, 15:55:14,1.6597486,-1.1136842,8.677156,-0.6295732,-0.25924128,0.40760657,8.904386657128345,0.7935437020803718,walk
23/10/2020, 15:55:14,1.5088624,-1.3052857,8.229287,-0.6295732,-0.25924128,0.40760657,8.467679928116247,0.7935437020803718,walk
23/10/2020, 15:55:14,1.5088624,-1.3052857,8.229287,-0.78839815,-0.24824569,0.46747136,8.467679928116247,0.9495930875256618,walk
23/10/2020, 15:55:14,1.223855,-1.4897022,8.181387,-0.78839815,-0.24824569,0.46747136,8.405481914312901,0.9495930875256618,walk
23/10/2020, 15:55:14,1.223855,-1.4897022,8.181387,-0.829937,-0.2409153,0.550549,8.405481914312901,1.0246656737377209,walk
23/10/2020, 15:55:14,0.49337405,-1.8561403,8.432864,-0.829937,-0.2409153,0.550549,8.648807607709395,1.0246656737377209,walk
23/10/2020, 15:55:14,0.49337405,-1.8561403,8.432864,-0.77251565,-0.24580222,0.6605047,8.648807607709395,1.0456890679302209,walk
23/10/2020, 15:55:14,-0.15088624,-2.0046315,8.734636,-0.77251565,-0.24580222,0.6605047,8.962989768841771,1.0456890679302209,walk
23/10/2020, 15:55:14,-0.15088624,-2.0046315,8.734636,-0.6405688,-0.25924128,0.78756464,8.962989768841771,1.0477559237980205,walk
23/10/2020, 15:55:14,-0.85023195,-2.2704787,8.964559,-0.6405688,-0.25924128,0.78756464,9.286618271544514,1.0477559237980205,walk
23/10/2020, 15:55:14,-0.85023195,-2.2704787,8.964559,-0.44509202,-0.26412818,0.91951144,9.286618271544514,1.0551643884072046,walk
23/10/2020, 15:55:14,-1.219065,-2.0190015,8.756192,-0.44509202,-0.26412818,0.91951144,9.068262695715028,1.0551643884072046,walk
23/10/2020, 15:55:14,-1.219065,-2.0190015,8.756192,-0.24350655,-0.22991973,1.0245802,9.068262695715028,1.077925411136557,walk
23/10/2020, 15:55:14,-1.4082716,-1.719624,8.157437,-0.24350655,-0.22991973,1.0245802,8.454828165778782,1.077925411136557,walk
23/10/2020, 15:55:14,-1.4082716,-1.719624,8.157437,-0.10056415,-0.16028112,1.1320925,8.454828165778782,1.1477963933644784,walk
23/10/2020, 15:55:14,-1.4825171,-1.583108,7.5395217,-0.10056415,-0.16028112,1.1320925,7.845283626083233,1.1477963933644784,walk
23/10/2020, 15:55:14,-1.4825171,-1.583108,7.5395217,0.013056746,-0.060099263,1.288474,7.845283626083233,1.289940911523252,walk
23/10/2020, 15:55:14,-1.2621753,-1.22625,7.2353544,0.013056746,-0.060099263,1.288474,7.446282922877351,1.289940911523252,walk
23/10/2020, 15:55:15,-5.237908,-7.6449027,5.4510646,-0.2447283,-0.06865137,0.076517746,10.751479969830616,0.26544286669650374,walk
23/10/2020, 15:55:15,-5.6857767,-7.5970025,5.010381,-0.2447283,-0.06865137,0.076517746,10.730630171118571,0.26544286669650374,walk
23/10/2020, 15:55:15,-5.6857767,-7.5970025,5.010381,-0.13843778,-0.07476002,0.017874705,10.730630171118571,0.15834640486932702,walk
23/10/2020, 15:55:15,-5.863008,-7.209009,4.7253737,-0.13843778,-0.07476002,0.017874705,10.42467425486622,0.15834640486932702,walk
23/10/2020, 15:55:15,-5.863008,-7.209009,4.7253737,-0.056581866,-0.07476002,-0.013890276,10.42467425486622,0.09478136882791098,walk
23/10/2020, 15:55:15,-5.848638,-7.046148,4.617598,-0.056581866,-0.07476002,-0.013890276,10.255582776831861,0.09478136882791098,walk
23/10/2020, 15:55:15,-5.848638,-7.046148,4.617598,-0.013821316,-0.0698731,-0.039546605,10.255582776831861,0.08146909316942122,walk
23/10/2020, 15:55:15,-5.6666164,-6.8832865,4.536167,-0.013821316,-0.0698731,-0.039546605,10.003348786977137,0.08146909316942122,walk
23/10/2020, 15:55:15,-5.6666164,-6.8832865,4.536167,-0.007712665,-0.07476002,-0.054207366,10.003348786977137,0.09266598234149101,walk
23/10/2020, 15:55:15,-5.503755,-7.070098,4.4834766,-0.007712665,-0.07476002,-0.054207366,10.018940439732752,0.09266598234149101,walk
23/10/2020, 15:55:15,-5.503755,-7.070098,4.4834766,-0.008934394,-0.09308597,-0.07619851,10.018940439732752,0.12062766560566904,walk
23/10/2020, 15:55:15,-5.4271145,-7.3718705,4.7253737,-0.008934394,-0.09308597,-0.07619851,10.30180584225288,0.12062766560566904,walk
23/10/2020, 15:55:15,-5.4271145,-7.3718705,4.7253737,-0.016264774,-0.11141192,-0.10185484,10.30180584225288,0.15182742596248985,walk
23/10/2020, 15:55:15,-5.503755,-7.561077,4.7780643,-0.016264774,-0.11141192,-0.10185484,10.501957212293847,0.15182742596248985,walk
23/10/2020, 15:55:15,-5.503755,-7.561077,4.7780643,-0.004047475,-0.1309596,-0.10063311,10.501957212293847,0.16520841742915915,walk
23/10/2020, 15:55:15,-5.6929617,-7.4988065,4.991221,-0.004047475,-0.1309596,-0.10063311,10.656181210532191,0.16520841742915915,walk
23/10/2020, 15:55:15,-5.6929617,-7.4988065,4.991221,0.014278475,-0.18227226,-0.08963754,10.656181210532191,0.20362204835831965,walk
23/10/2020, 15:55:15,-5.702542,-7.3742657,5.0726514,0.014278475,-0.18227226,-0.08963754,10.612755041533259,0.20362204835831965,walk
23/10/2020, 15:55:15,-5.702542,-7.3742657,5.0726514,0.036269616,-0.260463,-0.083528884,10.612755041533259,0.275923057241925,walk
23/10/2020, 15:55:15,-5.5061502,-7.3766603,5.0678616,0.036269616,-0.260463,-0.083528884,10.507903176353496,0.275923057241925,walk
23/10/2020, 15:55:15,-5.5061502,-7.3766603,5.0678616,0.0558173,-0.34476238,-0.083528884,10.507903176353496,0.3591013050372899,walk
23/10/2020, 15:55:15,-5.345684,-7.589817,5.125342,0.0558173,-0.34476238,-0.083528884,10.604281696547067,0.3591013050372899,walk
23/10/2020, 15:55:15,-5.345684,-7.589817,5.125342,0.09857784,-0.42661828,-0.10307657,10.604281696547067,0.44982832873355527,walk
23/10/2020, 15:55:15,-5.3121533,-7.9538603,4.998406,0.09857784,-0.42661828,-0.10307657,10.791984450315928,0.44982832873355527,walk
23/10/2020, 15:55:15,-5.3121533,-7.9538603,4.998406,0.21097702,-0.50358725,-0.1531675,10.791984450315928,0.567072922769797,walk
23/10/2020, 15:55:15,-5.4247193,-8.480764,4.993616,0.21097702,-0.50358725,-0.1531675,11.237755392720764,0.567072922769797,walk
23/10/2020, 15:55:15,-5.4247193,-8.480764,4.993616,0.37224537,-0.5829997,-0.22402784,11.237755392720764,0.7270789146388091,walk
23/10/2020, 15:55:15,-5.47262,-8.847202,4.87147,0.37224537,-0.5829997,-0.22402784,11.487113564593379,0.7270789146388091,walk
23/10/2020, 15:55:15,-5.47262,-8.847202,4.87147,0.5274051,-0.6477514,-0.28389263,11.487113564593379,0.8822318360033988,walk
23/10/2020, 15:55:15,-5.398374,-8.952583,4.756509,0.5274051,-0.6477514,-0.28389263,11.485450226875633,0.8822318360033988,walk
23/10/2020, 15:55:16,-8.416099,-3.7218604,1.4154567,-0.62224287,0.06573893,0.86697704,9.310557340627016,1.0691851919797644,walk
23/10/2020, 15:55:16,-8.466394,-3.7577858,1.3483961,-0.62224287,0.06573893,0.86697704,9.360500018134994,1.0691851919797644,walk
23/10/2020, 15:55:16,-8.466394,-3.7577858,1.3483961,-0.7126509,0.07429104,0.6886045,9.360500018134994,0.993763844727268,walk
23/10/2020, 15:55:16,-8.634046,-3.6500099,1.3196558,-0.7126509,0.07429104,0.6886045,9.466298477251852,0.993763844727268,walk
23/10/2020, 15:55:16,-8.634046,-3.6500099,1.3196558,-0.75541145,0.08528661,0.5090102,9.466298477251852,0.9148834013500764,walk
23/10/2020, 15:55:16,-8.789722,-3.4967287,1.2549903,-0.75541145,0.08528661,0.5090102,9.542606178739176,0.9148834013500764,walk
23/10/2020, 15:55:16,-8.789722,-3.4967287,1.2549903,-0.77129394,0.09872565,0.3391897,9.542606178739176,0.8483458908584829,walk
23/10/2020, 15:55:16,-8.950189,-3.2069314,1.1711646,-0.77129394,0.09872565,0.3391897,9.579243807796658,0.8483458908584829,walk
23/10/2020, 15:55:16,-8.950189,-3.2069314,1.1711646,-0.7810678,0.117051594,0.18647344,9.579243807796658,0.8115049669561083,walk
23/10/2020, 15:55:16,-8.935819,-2.912344,1.1184741,-0.7810678,0.117051594,0.18647344,9.464754997549392,0.8115049669561083,walk
23/10/2020, 15:55:16,-8.935819,-2.912344,1.1184741,-0.80794585,0.13904274,0.045974497,9.464754997549392,0.8211108506446447,walk
23/10/2020, 15:55:16,-8.758587,-2.7327175,1.1112891,-0.80794585,0.13904274,0.045974497,9.242053493068253,0.8211108506446447,walk
23/10/2020, 15:55:16,-8.758587,-2.7327175,1.1112891,-0.8653671,0.1744729,-0.09330273,9.242053493068253,0.8876972648229725,walk
23/10/2020, 15:55:16,-8.49753,-2.6225464,1.1088941,-0.8653671,0.1744729,-0.09330273,8.961886618788036,0.8876972648229725,walk
23/10/2020, 15:55:16,-8.49753,-2.6225464,1.1088941,-0.93011886,0.2270073,-0.22891477,8.961886618788036,0.9844061033957793,walk
23/10/2020, 15:55:16,-8.408914,-2.6417067,1.1328443,-0.93011886,0.2270073,-0.22891477,8.886606705005075,0.9844061033957793,walk
23/10/2020, 15:55:16,-8.408914,-2.6417067,1.1328443,-0.983875,0.28809378,-0.3608616,8.886606705005075,1.0868436350693655,walk
23/10/2020, 15:55:16,-8.52627,-2.8285182,1.3867164,-0.983875,0.28809378,-0.3608616,9.089597122056647,1.0868436350693655,walk
23/10/2020, 15:55:16,-8.52627,-2.8285182,1.3867164,-1.0095314,0.3381847,-0.48792154,9.089597122056647,1.1711489789659077,walk
23/10/2020, 15:55:16,-8.818462,-3.0033545,1.81782,-1.0095314,0.3381847,-0.48792154,9.491569234544963,1.1711489789659077,walk
23/10/2020, 15:55:16,-8.818462,-3.0033545,1.81782,-1.033966,0.37361488,-0.59787726,9.491569234544963,1.251451507418739,walk
23/10/2020, 15:55:16,-9.125025,-2.8836036,2.1195924,-1.033966,0.37361488,-0.59787726,9.80173041590714,1.251451507418739,walk
23/10/2020, 15:55:16,-9.125025,-2.8836036,2.1195924,-1.07917,0.38461044,-0.6858418,9.80173041590714,1.3352572902597142,walk
23/10/2020, 15:55:16,-9.321417,-2.7183473,2.4141798,-1.07917,0.38461044,-0.6858418,10.005323003355105,1.3352572902597142,walk
23/10/2020, 15:55:16,-9.321417,-2.7183473,2.4141798,-1.1585824,0.37483662,-0.74204135,10.005323003355105,1.4259877803528642,walk
23/10/2020, 15:55:16,-9.481883,-2.5315359,2.7087672,-1.1585824,0.37483662,-0.74204135,10.180972428861102,1.4259877803528642,walk
23/10/2020, 15:55:16,-9.481883,-2.5315359,2.7087672,-1.2636511,0.3381847,-0.7676977,10.180972428861102,1.5167540446799812,walk
23/10/2020, 15:55:16,-9.527389,-2.3686745,3.0943654,-1.2636511,0.3381847,-0.7676977,10.293534327528654,1.5167540446799812,walk
23/10/2020, 15:55:16,-9.527389,-2.3686745,3.0943654,-1.3699417,0.2770982,-0.74937177,10.293534327528654,1.5859009285553647,walk
23/10/2020, 15:55:16,-9.398057,-2.3016138,3.6116896,-1.3699417,0.2770982,-0.74937177,10.327884716905427,1.5859009285553647,walk
23/10/2020, 15:55:17,-9.85311,-2.311194,2.3303542,-0.79206336,-0.07231656,1.2298309,10.385371974656573,1.4646084768204333,walk
23/10/2020, 15:55:17,-9.85311,-2.311194,2.3303542,-0.7627418,-0.11507711,1.2261657,10.385371974656573,1.448620035549295,walk
23/10/2020, 15:55:17,-9.3381815,-2.1746778,2.311194,-0.7627418,-0.11507711,1.2261657,9.862680915167452,1.448620035549295,walk
23/10/2020, 15:55:17,-9.3381815,-2.1746778,2.311194,-0.7468593,-0.17372015,1.1980659,9.862680915167452,1.4224413409602588,walk
23/10/2020, 15:55:17,-8.938213,-1.8944606,2.3495142,-0.7468593,-0.17372015,1.1980659,9.434026492574828,1.4224413409602588,walk
23/10/2020, 15:55:17,-8.938213,-1.8944606,2.3495142,-0.73952895,-0.2531326,1.1577488,9.434026492574828,1.3969114214436322,walk
23/10/2020, 15:55:17,-8.5502205,-1.7268091,2.3590944,-0.73952895,-0.2531326,1.1577488,9.036230770570464,1.3969114214436322,walk
23/10/2020, 15:55:17,-8.5502205,-1.7268091,2.3590944,-0.7651853,-0.31177565,1.121097,9.036230770570464,1.3926848207419242,walk
23/10/2020, 15:55:17,-8.064031,-1.5447876,1.81782,-0.7651853,-0.31177565,1.121097,8.409484439062124,1.3926848207419242,walk
23/10/2020, 15:55:17,-8.064031,-1.5447876,1.81782,-0.84093255,-0.34720582,1.0807798,8.409484439062124,1.412729410247621,walk
23/10/2020, 15:55:17,-7.7359133,-1.223855,1.2502003,-0.84093255,-0.34720582,1.0807798,7.93127833642922,1.412729410247621,walk
23/10/2020, 15:55:17,-7.7359133,-1.223855,1.2502003,-0.9533317,-0.3618666,1.025802,7.93127833642922,1.4463950204420974,walk
23/10/2020, 15:55:17,-7.680828,-0.8981324,0.7568262,-0.9533317,-0.3618666,1.025802,7.770106043425863,1.4463950204420974,walk
23/10/2020, 15:55:17,-7.680828,-0.8981324,0.7568262,-1.0987177,-0.34964928,0.9842631,7.770106043425863,1.515984522995712,walk
23/10/2020, 15:55:17,-8.052056,-0.6849756,0.3161426,-1.0987177,-0.34964928,0.9842631,8.08732023619265,1.515984522995712,walk
23/10/2020, 15:55:17,-8.052056,-0.6849756,0.3161426,-1.259986,-0.3178843,0.962272,8.08732023619265,1.6169671097137481,walk
23/10/2020, 15:55:17,-8.703502,-0.59156984,-0.07903565,-1.259986,-0.3178843,0.962272,8.723940816837965,1.6169671097137481,walk
23/10/2020, 15:55:17,-8.703502,-0.59156984,-0.07903565,-1.4554628,-0.27512375,0.95860684,8.723940816837965,1.7643673507582232,walk
23/10/2020, 15:55:17,-9.405242,-0.5388794,-0.3065625,-1.4554628,-0.27512375,0.95860684,9.425653718441007,1.7643673507582232,walk
23/10/2020, 15:55:17,-9.405242,-0.5388794,-0.3065625,-1.65827,-0.23602839,0.9610503,9.425653718441007,1.9311101529633992,walk
23/10/2020, 15:55:17,-10.044712,-0.6346802,-0.28261232,-1.65827,-0.23602839,0.9610503,10.068710403938487,1.9311101529633992,walk
23/10/2020, 15:55:17,-10.044712,-0.6346802,-0.28261232,-1.8488599,-0.21403724,0.96838063,10.068710403938487,2.0980600413827397,walk
23/10/2020, 15:55:17,-10.3393,-0.8382569,-0.098195806,-1.8488599,-0.21403724,0.96838063,10.373690025621482,2.0980600413827397,walk
23/10/2020, 15:55:17,-10.3393,-0.8382569,-0.098195806,-1.9979109,-0.1920461,0.95982856,10.373690025621482,2.224814679071301,walk
23/10/2020, 15:55:17,-10.413546,-1.094524,0.05508545,-1.9979109,-0.1920461,0.95982856,10.47105292656347,2.224814679071301,walk
23/10/2020, 15:55:17,-10.413546,-1.094524,0.05508545,-2.08221,-0.16883323,0.9341722,10.47105292656347,2.2884014359865943,walk
23/10/2020, 15:55:17,-10.260264,-1.3220508,0.34967285,-2.08221,-0.16883323,0.9341722,10.35099584282409,2.2884014359865943,walk
23/10/2020, 15:55:17,-10.260264,-1.3220508,0.34967285,-2.1029797,-0.13584653,0.9024072,10.35099584282409,2.292447717145213,walk
23/10/2020, 15:55:17,-9.924961,-1.4585669,0.68976563,-2.1029797,-0.13584653,0.9024072,10.055249707525912,2.292447717145213,walk
23/10/2020, 15:55:17,-9.924961,-1.4585669,0.68976563,-2.051667,-0.10041635,0.8657553,10.055249707525912,2.2291148675254413,walk
23/10/2020, 15:55:18,-8.308323,-2.7351124,0.91010743,0.1169038,-0.28978452,-0.6137597,8.79416653566809,0.6887252944859134,walk
23/10/2020, 15:55:18,-8.248447,-2.6896071,0.9412427,0.1169038,-0.28978452,-0.6137597,8.726786877624543,0.6887252944859134,walk
23/10/2020, 15:55:18,-8.248447,-2.6896071,0.9412427,0.16210781,-0.24946742,-0.5600036,8.726786877624543,0.6341269137512602,walk
23/10/2020, 15:55:18,-8.066426,-2.6177564,0.98914313,0.16210781,-0.24946742,-0.5600036,8.538049274764477,0.6341269137512602,walk
23/10/2020, 15:55:18,-8.066426,-2.6177564,0.98914313,0.17921203,-0.20915033,-0.5160213,8.538049274764477,0.5849263260929578,walk
23/10/2020, 15:55:18,-7.8844047,-2.5075855,1.0083033,0.17921203,-0.20915033,-0.5160213,8.334776392484976,0.5849263260929578,walk
23/10/2020, 15:55:18,-7.8844047,-2.5075855,1.0083033,0.17676857,-0.1676115,-0.47570422,8.334776392484976,0.5344485462476135,walk
23/10/2020, 15:55:18,-7.7694435,-2.3902297,1.0609937,0.17676857,-0.1676115,-0.47570422,8.197753233946045,0.5344485462476135,walk
23/10/2020, 15:55:18,-7.7694435,-2.3902297,1.0609937,0.15233397,-0.12729442,-0.44516098,8.197753233946045,0.4874195442507043,walk
23/10/2020, 15:55:18,-7.711963,-2.2680836,1.1735597,0.15233397,-0.12729442,-0.44516098,8.123781226709855,0.4874195442507043,walk
23/10/2020, 15:55:18,-7.711963,-2.2680836,1.1735597,0.09002573,-0.09064251,-0.41461772,8.123781226709855,0.4338531417013038,walk
23/10/2020, 15:55:18,-7.8029737,-2.1076174,1.1352394,0.09002573,-0.09064251,-0.41461772,8.161937191869649,0.4338531417013038,walk
23/10/2020, 15:55:18,-7.8029737,-2.1076174,1.1352394,0.008169825,-0.052768882,-0.38529623,8.161937191869649,0.38897876858633174,walk
23/10/2020, 15:55:18,-8.020921,-2.0429518,1.1687696,0.008169825,-0.052768882,-0.38529623,8.359117432778229,0.38897876858633174,walk
23/10/2020, 15:55:18,-8.020921,-2.0429518,1.1687696,-0.06757744,-0.012451792,-0.3400922,8.359117432778229,0.346964651942106,walk
23/10/2020, 15:55:18,-8.301138,-1.9782863,1.3148658,-0.06757744,-0.012451792,-0.3400922,8.634314074234343,0.346964651942106,walk
23/10/2020, 15:55:18,-8.301138,-1.9782863,1.3148658,-0.12133356,0.019313188,-0.26923186,8.634314074234343,0.2959402383660974,walk
23/10/2020, 15:55:18,-8.557405,-1.8345851,1.4897022,-0.12133356,0.019313188,-0.26923186,8.87773076346077,0.2959402383660974,walk
23/10/2020, 15:55:18,-8.557405,-1.8345851,1.4897022,-0.14943334,0.03886087,-0.17393692,8.87773076346077,0.2325823363179551,walk
23/10/2020, 15:55:18,-8.653206,-1.7794995,1.5926881,-0.14943334,0.03886087,-0.17393692,8.976705730270321,0.2325823363179551,walk
23/10/2020, 15:55:18,-8.653206,-1.7794995,1.5926881,-0.15920718,0.06085201,-0.05298564,8.976705730270321,0.1784863333157703,walk
23/10/2020, 15:55:18,-8.56938,-1.698069,1.6908839,-0.15920718,0.06085201,-0.05298564,8.898134455904883,0.1784863333157703,walk
23/10/2020, 15:55:18,-8.56938,-1.698069,1.6908839,-0.14821161,0.103612565,0.07896121,8.898134455904883,0.19732490537500544,walk
23/10/2020, 15:55:18,-8.5119,-1.6908839,1.7675245,-0.14821161,0.103612565,0.07896121,8.856391578711841,0.19732490537500544,walk
23/10/2020, 15:55:18,-8.5119,-1.6908839,1.7675245,-0.13110739,0.15614696,0.22679053,8.856391578711841,0.30496715552809767,walk
23/10/2020, 15:55:18,-8.784932,-1.7220191,1.8226099,-0.13110739,0.15614696,0.22679053,9.135769764810467,0.30496715552809767,walk
23/10/2020, 15:55:18,-8.784932,-1.7220191,1.8226099,-0.1188901,0.21234654,0.38683715,9.135769764810467,0.4570217636803263,walk
23/10/2020, 15:55:18,-9.158555,-1.5926881,1.8920655,-0.1188901,0.21234654,0.38683715,9.48660621800582,0.4570217636803263,walk
23/10/2020, 15:55:18,-9.158555,-1.5926881,1.8920655,-0.11522491,0.259994,0.5627663,9.48660621800582,0.6305391219656284,walk
23/10/2020, 15:55:18,-9.580078,-1.4322218,1.9088306,-0.11522491,0.259994,0.5627663,9.872830926481903,0.6305391219656284,walk
23/10/2020, 15:55:19,-8.729847,-3.2596216,0.9364527,2.311131,-0.57933456,-2.0676184,9.365484749206642,3.1546791841251385,walk
23/10/2020, 15:55:19,-9.505833,-3.3865578,0.6945557,2.311131,-0.57933456,-2.0676184,10.114941238656847,3.1546791841251385,walk
23/10/2020, 15:55:19,-9.505833,-3.3865578,0.6945557,2.4430778,-0.5573434,-2.0285232,10.114941238656847,3.2239986416831674,walk
23/10/2020, 15:55:19,-10.202784,-3.415298,0.50534916,2.4430778,-0.5573434,-2.0285232,10.77109237606341,3.2239986416831674,walk
23/10/2020, 15:55:19,-10.202784,-3.415298,0.50534916,2.5676942,-0.54023916,-1.9588845,10.77109237606341,3.274467923243549,walk
23/10/2020, 15:55:19,-10.830278,-3.4057178,0.42870852,2.5676942,-0.54023916,-1.9588845,11.36123387744973,3.274467923243549,walk
23/10/2020, 15:55:19,-10.830278,-3.4057178,0.42870852,2.6666543,-0.5487913,-1.8489288,11.36123387744973,3.291011247976317,walk
23/10/2020, 15:55:19,-11.270963,-3.3602126,0.45505372,2.6666543,-0.5487913,-1.8489288,11.769991626587977,3.291011247976317,walk
23/10/2020, 15:55:19,-11.270963,-3.3602126,0.45505372,2.7289627,-0.57933456,-1.6839952,11.769991626587977,3.2586355609850943,walk
23/10/2020, 15:55:19,-11.304493,-3.163821,0.49097902,2.7289627,-0.57933456,-1.6839952,11.749143988671294,3.2586355609850943,walk
23/10/2020, 15:55:19,-11.304493,-3.163821,0.49097902,2.74118,-0.64164275,-1.5166183,11.749143988671294,3.197796713333409,walk
23/10/2020, 15:55:19,-10.873389,-3.0033545,0.60354495,2.74118,-0.64164275,-1.5166183,11.296680871387464,3.197796713333409,walk
23/10/2020, 15:55:19,-10.873389,-3.0033545,0.60354495,2.6825368,-0.7198335,-1.3626802,11.296680871387464,3.093713218276509,walk
23/10/2020, 15:55:19,-10.873389,-3.0033545,0.60354495,2.5481467,-0.7894721,-1.2258464,11.296680871387464,2.935816300898418,walk
23/10/2020, 15:55:19,-10.087823,-2.8812087,0.63707525,2.5481467,-0.7894721,-1.2258464,10.510537538450873,2.935816300898418,walk
23/10/2020, 15:55:19,-9.220825,-2.7183473,0.6227051,2.5481467,-0.7894721,-1.2258464,9.633316720104995,2.935816300898418,walk
23/10/2020, 15:55:19,-9.220825,-2.7183473,0.6227051,2.338009,-0.8407848,-1.1244429,9.633316720104995,2.7271922584753217,walk
23/10/2020, 15:55:19,-8.571775,-2.6369166,0.44307864,2.338009,-0.8407848,-1.1244429,8.979141504814065,2.7271922584753217,walk
23/10/2020, 15:55:19,-8.571775,-2.6369166,0.44307864,2.0875545,-0.86888456,-1.0572478,8.979141504814065,2.4961203512599113,walk
23/10/2020, 15:55:19,-8.159832,-2.6608667,0.25387207,2.0875545,-0.86888456,-1.0572478,8.586473146785304,2.4961203512599113,walk
23/10/2020, 15:55:19,-8.159832,-2.6608667,0.25387207,1.8334345,-0.8749932,-1.0157089,8.586473146785304,2.2712903060436456,walk
23/10/2020, 15:55:19,-8.066426,-2.7063723,0.17723145,1.8334345,-0.8749932,-1.0157089,8.510175949159523,2.2712903060436456,walk
23/10/2020, 15:55:19,-8.066426,-2.7063723,0.17723145,1.5951971,-0.8542238,-0.98272216,8.510175949159523,2.0591490617967625,walk
23/10/2020, 15:55:19,-8.416099,-2.794988,-0.026345216,1.5951971,-0.8542238,-0.98272216,8.868109555108111,2.0591490617967625,walk
23/10/2020, 15:55:19,-8.416099,-2.794988,-0.026345216,1.374064,-0.807798,-0.9387399,8.868109555108111,1.849816757411088,walk
23/10/2020, 15:55:19,-9.065149,-2.8692336,-0.21794678,1.374064,-0.807798,-0.9387399,9.510885040916708,1.849816757411088,walk
23/10/2020, 15:55:19,-9.065149,-2.8692336,-0.21794678,1.1920261,-0.7564854,-0.8764317,9.510885040916708,1.6617247093742527,walk
23/10/2020, 15:55:19,-9.814791,-2.8596535,-0.244292,1.1920261,-0.7564854,-0.8764317,10.225820923459406,1.6617247093742527,walk
23/10/2020, 15:55:19,-9.814791,-2.8596535,-0.244292,1.0441968,-0.71372485,-0.7872454,10.225820923459406,1.4898004972201782,walk
23/10/2020, 15:55:19,-10.32014,-2.8596535,-0.33769777,1.0441968,-0.71372485,-0.7872454,10.714333624479941,1.4898004972201782,walk
23/10/2020, 15:55:20,-8.423284,-1.1280543,2.4261549,1.2494475,0.24166806,-0.019998927,8.838011088455685,1.272761712241671,walk
23/10/2020, 15:55:20,-8.583751,-1.1735597,2.4189699,1.2494475,0.24166806,-0.019998927,8.99496714971127,1.272761712241671,walk
23/10/2020, 15:55:20,-8.583751,-1.1735597,2.4189699,1.2873211,0.23189421,-0.06886813,8.99496714971127,1.3098524094608,walk
23/10/2020, 15:55:20,-8.657996,-1.22625,2.5411158,1.2873211,0.23189421,-0.06886813,9.106143877270304,1.3098524094608,walk
23/10/2020, 15:55:20,-8.657996,-1.22625,2.5411158,1.3141992,0.21967691,-0.120180786,9.106143877270304,1.3378418921267188,walk
23/10/2020, 15:55:20,-8.653206,-1.2885206,2.6417067,1.3141992,0.21967691,-0.120180786,9.13875655889829,1.3378418921267188,walk
23/10/2020, 15:55:20,-8.653206,-1.2885206,2.6417067,1.3288599,0.20135097,-0.17638038,9.13875655889829,1.3555519000519203,walk
23/10/2020, 15:55:20,-8.5502205,-1.3579761,2.6967921,1.3288599,0.20135097,-0.17638038,9.067693048369472,1.3555519000519203,walk
23/10/2020, 15:55:20,-8.5502205,-1.3579761,2.6967921,1.3313034,0.18424675,-0.2338017,9.067693048369472,1.3641769412916287,walk
23/10/2020, 15:55:20,-8.471185,-1.3939015,2.8357031,1.3313034,0.18424675,-0.2338017,9.041302135565903,1.3641769412916287,walk
23/10/2020, 15:55:20,-8.471185,-1.3939015,2.8357031,1.3349686,0.16958599,-0.29855338,9.041302135565903,1.3784174262711704,walk
23/10/2020, 15:55:20,-8.547825,-1.6286134,2.9650342,1.3349686,0.16958599,-0.29855338,9.192884170169435,1.3784174262711704,walk
23/10/2020, 15:55:20,-8.547825,-1.6286134,2.9650342,1.3386338,0.14759484,-0.3767441,9.192884170169435,1.398449402932011,walk
23/10/2020, 15:55:20,-8.653206,-1.8633252,3.0656252,1.3386338,0.14759484,-0.3767441,9.367390811184658,1.398449402932011,walk
23/10/2020, 15:55:20,-8.653206,-1.8633252,3.0656252,1.350851,0.12071678,-0.45982173,9.367390811184658,1.432063947152172,walk
23/10/2020, 15:55:20,-8.919053,-2.1052222,3.180586,1.350851,0.12071678,-0.45982173,9.700391556908711,1.432063947152172,walk
23/10/2020, 15:55:20,-8.919053,-2.1052222,3.180586,1.3777292,0.090173535,-0.5477863,9.700391556908711,1.4853749622006092,walk
23/10/2020, 15:55:20,-9.254355,-2.2824538,3.2428565,1.3777292,0.090173535,-0.5477863,10.068207783355318,1.4853749622006092,walk
23/10/2020, 15:55:20,-9.254355,-2.2824538,3.2428565,1.4290417,0.05107817,-0.6406378,10.068207783355318,1.5669033453101637,walk
23/10/2020, 15:55:20,-9.570498,-2.4956105,3.3147073,1.4290417,0.05107817,-0.6406378,10.431193454708934,1.5669033453101637,walk
23/10/2020, 15:55:20,-9.570498,-2.4956105,3.3147073,1.4876848,0.013204537,-0.7383762,10.431193454708934,1.6608973398797693,walk
23/10/2020, 15:55:20,-9.651929,-2.5459058,3.2260914,1.4876848,0.013204537,-0.7383762,10.49042580804291,1.6608973398797693,walk
23/10/2020, 15:55:20,-9.651929,-2.5459058,3.2260914,1.5402192,-0.021003902,-0.84344494,10.49042580804291,1.7561650499777999,walk
23/10/2020, 15:55:20,-9.656719,-2.5195606,3.0776002,1.5402192,-0.021003902,-0.84344494,10.443755770446451,1.7561650499777999,walk
23/10/2020, 15:55:20,-9.656719,-2.5195606,3.0776002,1.5756494,-0.045438502,-0.9582876,10.443755770446451,1.8447359557145548,walk
23/10/2020, 15:55:20,-9.486672,-2.5123756,2.938689,1.5756494,-0.045438502,-0.9582876,10.244260704096773,1.8447359557145548,walk
23/10/2020, 15:55:20,-9.486672,-2.5123756,2.938689,1.5976405,-0.057655804,-1.0804605,10.244260704096773,1.9295529019796,walk
23/10/2020, 15:55:20,-9.400452,-2.560276,2.7231374,1.5976405,-0.057655804,-1.0804605,10.116273125791471,1.9295529019796,walk
23/10/2020, 15:55:20,-9.400452,-2.560276,2.7231374,1.6220751,-0.053990614,-1.2038553,10.116273125791471,2.0207201884876294,walk
23/10/2020, 15:55:20,-9.266331,-2.550696,2.6177564,1.6220751,-0.053990614,-1.2038553,9.96110350031352,2.0207201884876294,walk
23/10/2020, 15:55:21,-7.767049,0.086220704,2.9770093,1.2909863,0.08162142,0.6030834,8.318477383376713,1.4272411274937629,walk
23/10/2020, 15:55:21,-8.353828,0.7711963,2.7063723,1.2909863,0.08162142,0.6030834,8.815080487334475,1.4272411274937629,walk
23/10/2020, 15:55:21,-8.353828,0.7711963,2.7063723,1.0209839,0.03153049,0.4857973,8.815080487334475,1.1311062589858252,walk
23/10/2020, 15:55:21,-8.866363,1.1591895,2.43813,1.0209839,0.03153049,0.4857973,9.268256733709334,1.1311062589858252,walk
23/10/2020, 15:55:21,-8.866363,1.1591895,2.43813,0.7522034,-0.010008331,0.3758416,9.268256733709334,0.8409322375506169,walk
23/10/2020, 15:55:21,-9.201666,1.0777588,2.0932472,0.7522034,-0.010008331,0.3758416,9.498099951029632,0.8409322375506169,walk
23/10/2020, 15:55:21,-9.201666,1.0777588,2.0932472,0.5200747,-0.027112553,0.30864644,9.498099951029632,0.6053721462889676,walk
23/10/2020, 15:55:21,-9.290281,0.7209009,2.0046315,0.5200747,-0.027112553,0.30864644,9.531399277164233,0.6053721462889676,walk
23/10/2020, 15:55:21,-9.290281,0.7209009,2.0046315,0.39179307,-0.024669092,0.27321628,9.531399277164233,0.47828601251222785,walk
23/10/2020, 15:55:21,-9.220825,0.26105714,1.9998415,0.39179307,-0.024669092,0.27321628,9.438809985573341,0.47828601251222785,walk
23/10/2020, 15:55:21,-9.220825,0.26105714,1.9998415,0.39179307,-0.010008331,0.2500034,9.438809985573341,0.4648695267314822,walk
23/10/2020, 15:55:21,-9.074729,0.18441652,1.9375709,0.39179307,-0.010008331,0.2500034,9.28110426408997,0.4648695267314822,walk
23/10/2020, 15:55:21,-9.074729,0.18441652,1.9375709,0.46754032,0.010761078,0.23900783,9.28110426408997,0.5251994842195602,walk
23/10/2020, 15:55:21,-8.8879175,0.19878663,1.8776954,0.46754032,0.010761078,0.23900783,9.086271738867751,0.5251994842195602,walk
23/10/2020, 15:55:21,-8.8879175,0.19878663,1.8776954,0.53840065,0.03641741,0.22801226,9.086271738867751,0.5858251275878886,walk
23/10/2020, 15:55:21,-8.725057,0.29698244,1.6070582,0.53840065,0.03641741,0.22801226,8.87679266610119,0.5858251275878886,walk
23/10/2020, 15:55:21,-8.725057,0.29698244,1.6070582,0.52496165,0.05963028,0.20968631,8.87679266610119,0.5684266467172422,walk
23/10/2020, 15:55:21,-8.610096,0.4742139,1.575923,0.52496165,0.05963028,0.20968631,8.765966276608893,0.5684266467172422,walk
23/10/2020, 15:55:21,-8.610096,0.4742139,1.575923,0.43944052,0.0645172,0.21212977,8.765966276608893,0.4922087753620263,walk
23/10/2020, 15:55:21,-8.631651,0.45744875,1.1879297,0.43944052,0.0645172,0.21212977,8.725011984796541,0.4922087753620263,walk
23/10/2020, 15:55:21,-8.631651,0.45744875,1.1879297,0.29894158,0.05596509,0.24022956,8.725011984796541,0.38756728866672774,walk
23/10/2020, 15:55:21,-8.293953,0.32572266,1.7723145,0.29894158,0.05596509,0.24022956,8.487452475000348,0.38756728866672774,walk
23/10/2020, 15:55:21,-8.293953,0.32572266,1.7723145,0.12423418,0.05474336,0.27199453,8.487452475000348,0.3039934066710604,walk
23/10/2020, 15:55:21,-8.01613,0.19639161,1.9998415,0.12423418,0.05474336,0.27199453,8.264156511503858,0.3039934066710604,walk
23/10/2020, 15:55:21,-8.01613,0.19639161,1.9998415,-0.05902533,0.011982808,0.2781032,8.264156511503858,0.28455046720756333,walk
23/10/2020, 15:55:21,-7.90117,-0.023950197,2.1722827,-0.05902533,0.011982808,0.2781032,8.194380364977489,0.28455046720756333,walk
23/10/2020, 15:55:21,-7.90117,-0.023950197,2.1722827,-0.2862671,-0.0038996818,0.28054667,8.194380364977489,0.4008372393146838,walk
23/10/2020, 15:55:21,-7.913145,-0.18920656,2.1291726,-0.2862671,-0.0038996818,0.28054667,8.196770080380889,0.4008372393146838,walk
23/10/2020, 15:55:21,-7.913145,-0.18920656,2.1291726,-0.58803445,-0.039329853,0.2500034,8.196770080380889,0.6401820457071925,walk
23/10/2020, 15:55:21,-7.9227247,-0.19639161,2.4189699,-0.58803445,-0.039329853,0.2500034,8.28610595785747,0.6401820457071925,walk
23/10/2020, 15:55:22,-7.1611085,-1.3100758,2.699187,-0.12622048,0.2270073,0.18769518,7.764237505085118,0.32045811340012953,walk
23/10/2020, 15:55:22,-7.3718705,-1.2885206,2.8500733,-0.12622048,0.2270073,0.18769518,8.00797591347016,0.32045811340012953,walk
23/10/2020, 15:55:22,-7.3718705,-1.2885206,2.8500733,-0.09934242,0.25877225,0.46258444,8.00797591347016,0.5392739158895684,walk
23/10/2020, 15:55:22,-7.31439,-1.2717555,2.8836036,-0.09934242,0.25877225,0.46258444,7.964473319016465,0.5392739158895684,walk
23/10/2020, 15:55:22,-7.31439,-1.2717555,2.8836036,-0.11766837,0.3088632,0.7118173,7.964473319016465,0.7848096709716026,walk
23/10/2020, 15:55:22,-7.4676714,-1.4250367,2.7494826,-0.11766837,0.3088632,0.7118173,8.084336726241327,0.7848096709716026,walk
23/10/2020, 15:55:22,-7.4676714,-1.4250367,2.7494826,-0.17386794,0.3662845,0.9415026,8.084336726241327,1.0250958392353353,walk
23/10/2020, 15:55:22,-7.6209526,-1.5352076,2.6584718,-0.17386794,0.3662845,0.9415026,8.216036363297409,1.0250958392353353,walk
23/10/2020, 15:55:22,-7.6209526,-1.5352076,2.6584718,-0.24228483,0.4224841,1.147975,8.216036363297409,1.2470129440653206,walk
23/10/2020, 15:55:22,-7.805369,-1.7435743,2.680027,-0.24228483,0.4224841,1.147975,8.434831334390203,1.2470129440653206,walk
23/10/2020, 15:55:22,-7.805369,-1.7435743,2.680027,-0.2984844,0.472575,1.3385649,8.434831334390203,1.4505778170900347,walk
23/10/2020, 15:55:22,-8.076006,-1.9591261,2.8476784,-0.2984844,0.472575,1.3385649,8.784606958039594,1.4505778170900347,walk
23/10/2020, 15:55:22,-8.076006,-1.9591261,2.8476784,-0.3107017,0.5055617,1.5206026,8.784606958039594,1.632286863671384,walk
23/10/2020, 15:55:22,-8.353828,-2.179468,3.2356715,-0.3107017,0.5055617,1.5206026,9.219875271752024,1.632286863671384,walk
23/10/2020, 15:55:22,-8.353828,-2.179468,3.2356715,-0.2532804,0.5092269,1.6940883,9.219875271752024,1.7870082033815151,walk
23/10/2020, 15:55:22,-8.660391,-2.3495142,3.6092947,-0.2532804,0.5092269,1.6940883,9.6721039503217,1.7870082033815151,walk
23/10/2020, 15:55:22,-8.660391,-2.3495142,3.6092947,-0.15309854,0.48601404,1.8700174,9.6721039503217,1.9381986273656118,walk
23/10/2020, 15:55:22,-8.799302,-2.4333398,3.8511915,-0.15309854,0.48601404,1.8700174,9.908609203357145,1.9381986273656118,walk
23/10/2020, 15:55:22,-8.799302,-2.4333398,3.8511915,-0.049251486,0.45791426,2.0447247,9.908609203357145,2.095950927738389,walk
23/10/2020, 15:55:22,-8.923843,-2.311194,3.9541774,-0.049251486,0.45791426,2.0447247,10.03055915341064,2.095950927738389,walk
23/10/2020, 15:55:22,-8.923843,-2.311194,3.9541774,0.038713075,0.41759717,2.1998844,10.03055915341064,2.239503860319199,walk
23/10/2020, 15:55:22,-9.09868,-2.203418,4.0356083,0.038713075,0.41759717,2.1998844,10.194466864748165,2.239503860319199,walk
23/10/2020, 15:55:22,-9.09868,-2.203418,4.0356083,0.0643694,0.36872795,2.3440487,10.194466864748165,2.373745607926959,walk
23/10/2020, 15:55:22,-9.496253,-2.1004322,3.9517825,0.0643694,0.36872795,2.3440487,10.497962716516678,2.373745607926959,walk
23/10/2020, 15:55:22,-9.496253,-2.1004322,3.9517825,0.010613285,0.32718915,2.4979866,10.497962716516678,2.5193455915177867,walk
23/10/2020, 15:55:22,-10.037527,-1.8609302,3.7386258,0.010613285,0.32718915,2.4979866,10.871629767622903,2.5193455915177867,walk
23/10/2020, 15:55:22,-10.037527,-1.8609302,3.7386258,-0.11766837,0.30275455,2.6580334,10.871629767622903,2.677806483722094,walk
23/10/2020, 15:55:22,-10.705738,-1.5615528,3.2428565,-0.11766837,0.30275455,2.6580334,11.294573604180194,2.677806483722094,walk
23/10/2020, 15:55:22,-10.705738,-1.5615528,3.2428565,-0.3192538,0.32230222,2.8278537,11.294573604180194,2.8640108495431247,walk
23/10/2020, 15:55:22,-11.625425,-1.4130616,2.6967921,-0.3192538,0.32230222,2.8278537,12.01748497875177,2.8640108495431247,walk
23/10/2020, 15:55:23,-11.4625635,-2.7063723,0.9508228,1.2555561,-0.9385232,-1.1244429,11.816043207656207,1.9291497603008898,walk
23/10/2020, 15:55:23,-10.736873,-2.6345215,0.97237796,1.2555561,-0.9385232,-1.1244429,11.098047447084495,1.9291497603008898,walk
23/10/2020, 15:55:23,-10.736873,-2.6345215,0.97237796,1.0087667,-1.0020531,-1.069465,11.098047447084495,1.7791784984431598,walk
23/10/2020, 15:55:23,-10.188414,-2.684817,0.92208254,1.0087667,-1.0020531,-1.069465,10.576495215288636,1.7791784984431598,walk
23/10/2020, 15:55:23,-10.188414,-2.684817,0.92208254,0.7228819,-1.0484788,-1.0486956,10.576495215288636,1.6497358966190658,walk
23/10/2020, 15:55:23,-9.704619,-2.668052,0.7544312,0.7228819,-1.0484788,-1.0486956,10.092933444546002,1.6497358966190658,walk
23/10/2020, 15:55:23,-9.704619,-2.668052,0.7544312,0.41256246,-1.0668048,-1.060913,10.092933444546002,1.5600693947031712,walk
23/10/2020, 15:55:23,-9.477093,-2.6512868,0.59156984,0.41256246,-1.0668048,-1.060913,9.858730326206393,1.5600693947031712,walk
23/10/2020, 15:55:23,-9.477093,-2.6512868,0.59156984,0.12667763,-1.0631397,-1.0767955,9.858730326206393,1.5184866333046727,walk
23/10/2020, 15:55:23,-9.383687,-2.548301,0.5628296,0.12667763,-1.0631397,-1.0767955,9.739825313810734,1.5184866333046727,walk
23/10/2020, 15:55:23,-9.383687,-2.548301,0.5628296,-0.12622048,-1.0448136,-1.1000082,9.739825313810734,1.5223617459698484,walk
23/10/2020, 15:55:23,-9.285491,-2.4668703,0.5676197,-0.12622048,-1.0448136,-1.1000082,9.624343309457364,1.5223617459698484,walk
23/10/2020, 15:55:23,-9.285491,-2.4668703,0.5676197,-0.32536247,-1.0142704,-1.1146691,9.624343309457364,1.54178221616068,walk
23/10/2020, 15:55:23,-9.17053,-2.3734643,0.55803955,-0.32536247,-1.0142704,-1.1146691,9.489118371690044,1.54178221616068,walk
23/10/2020, 15:55:23,-9.17053,-2.3734643,0.55803955,-0.4658614,-0.9727316,-1.1268864,9.489118371690044,1.5598418143761208,walk
23/10/2020, 15:55:23,-8.921448,-2.435735,0.62749517,-0.4658614,-0.9727316,-1.1268864,9.269238649520092,1.5598418143761208,walk
23/10/2020, 15:55:23,-8.921448,-2.435735,0.62749517,-0.55260426,-0.92141896,-1.1415471,9.269238649520092,1.5676460440713447,walk
23/10/2020, 15:55:23,-8.57896,-2.5123756,0.6730005,-0.55260426,-0.92141896,-1.1415471,8.96457041242927,1.5676460440713447,walk
23/10/2020, 15:55:23,-8.57896,-2.5123756,0.6730005,-0.58070403,-0.8627759,-1.1623166,8.96457041242927,1.5596728031979938,walk
23/10/2020, 15:55:23,-8.322693,-2.567461,0.73527104,-0.58070403,-0.8627759,-1.1623166,8.740691973820267,1.5596728031979938,walk
23/10/2020, 15:55:23,-8.322693,-2.567461,0.73527104,-0.55626947,-0.794359,-1.1867511,8.740691973820267,1.5325861227665243,walk
23/10/2020, 15:55:23,-8.102351,-2.7015822,0.61073,-0.55626947,-0.794359,-1.1867511,8.56268837781324,1.5325861227665243,walk
23/10/2020, 15:55:23,-8.102351,-2.7015822,0.61073,-0.48663083,-0.71372485,-1.2160727,8.56268837781324,1.4916586356563108,walk
23/10/2020, 15:55:23,-8.0305,-2.8596535,0.5508545,-0.48663083,-0.71372485,-1.2160727,8.54224768645209,1.4916586356563108,walk
23/10/2020, 15:55:23,-8.0305,-2.8596535,0.5508545,-0.3791186,-0.62698203,-1.2502811,8.54224768645209,1.449151542888074,walk
23/10/2020, 15:55:23,-8.059241,-2.9937747,0.5125342,-0.3791186,-0.62698203,-1.2502811,8.612592421911764,1.449151542888074,walk
23/10/2020, 15:55:23,-8.059241,-2.9937747,0.5125342,-0.23739791,-0.54023916,-1.2783809,8.612592421911764,1.4080034669925312,walk
23/10/2020, 15:55:23,-8.250843,-3.1614258,0.51971924,-0.23739791,-0.54023916,-1.2783809,8.851052613545718,1.4080034669925312,walk
23/10/2020, 15:55:23,-8.250843,-3.1614258,0.51971924,-0.07490782,-0.4644919,-1.2893764,8.851052613545718,1.3725361029918888,walk
23/10/2020, 15:55:23,-8.435259,-3.2213013,0.48379397,-0.07490782,-0.4644919,-1.2893764,9.042368656003212,1.3725361029918888,walk
23/10/2020, 15:55:24,-10.133328,3.1901662,1.2597803,-0.33757976,0.014426269,-0.05298564,10.698063011992367,0.34201708644562057,walk
23/10/2020, 15:55:24,-9.68067,3.1350808,1.7962648,-0.33757976,0.014426269,-0.05298564,10.332989224105827,0.34201708644562057,walk
23/10/2020, 15:55:24,-9.68067,3.1350808,1.7962648,-0.15554199,0.0645172,0.042309307,10.332989224105827,0.17362562021821001,walk
23/10/2020, 15:55:24,-9.362132,3.163821,2.2441335,-0.15554199,0.0645172,0.042309307,10.133874638563647,0.17362562021821001,walk
23/10/2020, 15:55:24,-9.362132,3.163821,2.2441335,0.10468649,0.11582986,0.1314956,10.133874638563647,0.20412474132050482,walk
23/10/2020, 15:55:24,-9.244776,3.175796,2.4261549,0.10468649,0.11582986,0.1314956,10.071632781149951,0.20412474132050482,walk
23/10/2020, 15:55:24,-9.244776,3.175796,2.4261549,0.3771323,0.15859042,0.20968631,10.071632781149951,0.4597260477637068,walk
23/10/2020, 15:55:24,-9.223221,3.2069314,2.4261549,0.3771323,0.15859042,0.20968631,10.061731384616023,0.4597260477637068,walk
23/10/2020, 15:55:24,-9.223221,3.2069314,2.4261549,0.595822,0.18424675,0.29154223,10.061731384616023,0.6884384978596223,walk
23/10/2020, 15:55:24,-9.280701,3.046465,2.44292,0.595822,0.18424675,0.29154223,10.068774089489972,0.6884384978596223,walk
23/10/2020, 15:55:24,-9.280701,3.046465,2.44292,0.7534251,0.19035539,0.3758416,10.068774089489972,0.8632157824922085,walk
23/10/2020, 15:55:24,-9.467513,2.6776319,2.4189699,0.7534251,0.19035539,0.3758416,10.131877002045252,0.8632157824922085,walk
23/10/2020, 15:55:24,-9.467513,2.6776319,2.4189699,0.8694895,0.17935982,0.4699148,10.131877002045252,1.0044908336060439,walk
23/10/2020, 15:55:24,-9.604029,2.323169,2.4141798,0.8694895,0.17935982,0.4699148,10.171663855573254,1.0044908336060439,walk
23/10/2020, 15:55:24,-9.604029,2.323169,2.4141798,0.93668467,0.15736869,0.5554359,10.171663855573254,1.1002963720672096,walk
23/10/2020, 15:55:24,-9.613608,1.8824854,2.3303542,0.93668467,0.15736869,0.5554359,10.069546549318641,1.1002963720672096,walk
23/10/2020, 15:55:24,-9.613608,1.8824854,2.3303542,0.9415716,0.13415581,0.6250745,10.069546549318641,1.138100603819127,walk
23/10/2020, 15:55:24,-9.486672,1.3891114,2.2537134,0.9415716,0.13415581,0.6250745,9.84915263786352,1.138100603819127,walk
23/10/2020, 15:55:24,-9.486672,1.3891114,2.2537134,0.9208022,0.110942945,0.68249583,9.84915263786352,1.151514457419405,walk
23/10/2020, 15:55:24,-9.273516,0.96758795,2.1818628,0.9208022,0.110942945,0.68249583,9.575742546286708,1.151514457419405,walk
23/10/2020, 15:55:24,-9.273516,0.96758795,2.1818628,0.90858483,0.096282184,0.7411389,9.575742546286708,1.1764707776886985,walk
23/10/2020, 15:55:24,-8.959768,0.488584,2.2441335,0.90858483,0.096282184,0.7411389,9.249448485394513,1.1764707776886985,walk
23/10/2020, 15:55:24,-8.959768,0.488584,2.2441335,0.8878155,0.097503915,0.78512114,9.249448485394513,1.1891755719697454,walk
23/10/2020, 15:55:24,-8.57896,-0.098195806,2.1267774,0.8878155,0.097503915,0.78512114,8.839196028815614,1.1891755719697454,walk
23/10/2020, 15:55:24,-8.57896,-0.098195806,2.1267774,0.8584939,0.112164676,0.8071123,8.839196028815614,1.1836481569013342,walk
23/10/2020, 15:55:24,-8.53585,-0.68018556,2.0046315,0.8584939,0.112164676,0.8071123,8.794425951818944,1.1836481569013342,walk
23/10/2020, 15:55:24,-8.53585,-0.68018556,2.0046315,0.821842,0.15736869,0.80222535,8.794425951818944,1.1592043461432469,walk
23/10/2020, 15:55:24,-8.691526,-0.92926764,1.8250049,0.821842,0.15736869,0.80222535,8.929547175350693,1.1592043461432469,walk
23/10/2020, 15:55:24,-8.691526,-0.92926764,1.8250049,0.8035161,0.21967691,0.77656907,8.929547175350693,1.1388395718409796,walk
23/10/2020, 15:55:24,-9.182506,-1.5495777,2.1219873,0.8035161,0.21967691,0.77656907,9.551043430197156,1.1388395718409796,walk
23/10/2020, 15:55:25,-9.357342,-2.1171973,5.108577,0.91469353,1.0394578,2.0276206,10.869219194418841,2.455276336085339,walk
23/10/2020, 15:55:25,-9.80521,-2.2632935,5.3552637,0.91469353,1.0394578,2.0276206,11.399275953443002,2.455276336085339,walk
23/10/2020, 15:55:25,-9.80521,-2.2632935,5.3552637,1.1529309,1.0309056,1.9506516,11.399275953443002,2.4893890346762664,walk
23/10/2020, 15:55:25,-10.111773,-2.818938,5.6282964,1.1529309,1.0309056,1.9506516,11.911006484580302,2.4893890346762664,walk
23/10/2020, 15:55:25,-10.111773,-2.818938,5.6282964,1.342299,1.0211318,1.8663522,11.911006484580302,2.515501373299586,walk
23/10/2020, 15:55:25,-10.447076,-2.8500733,5.831873,1.342299,1.0211318,1.8663522,12.299392412018822,2.515501373299586,walk
23/10/2020, 15:55:25,-10.447076,-2.8500733,5.831873,1.3545163,0.97592777,1.7954919,12.299392412018822,2.4517219696815946,walk
23/10/2020, 15:55:25,-10.837463,-2.308799,5.7001467,1.3545163,0.97592777,1.7954919,12.460852200408494,2.4517219696815946,walk
23/10/2020, 15:55:25,-10.837463,-2.308799,5.7001467,1.1578177,0.88551974,1.708749,12.460852200408494,2.245998759350497,walk
23/10/2020, 15:55:25,-11.076965,-2.071692,6.0617948,1.1578177,0.88551974,1.708749,12.795953436701996,2.245998759350497,walk
23/10/2020, 15:55:25,-11.076965,-2.071692,6.0617948,0.9550106,0.8109942,1.5902412,12.795953436701996,2.024505839006412,walk
23/10/2020, 15:55:25,-11.1248665,-2.4980054,6.1384354,0.9550106,0.8109942,1.5902412,12.949249938386835,2.024505839006412,walk
23/10/2020, 15:55:25,-11.1248665,-2.4980054,6.1384354,0.75831205,0.7315818,1.4729551,12.949249938386835,1.811034469497824,walk
23/10/2020, 15:55:25,-10.720108,-2.5914114,6.1863356,0.75831205,0.7315818,1.4729551,12.645429084254124,1.811034469497824,walk
23/10/2020, 15:55:25,-10.720108,-2.5914114,6.1863356,0.5652787,0.6411738,1.3678864,12.645429084254124,1.6129963124660922,walk
23/10/2020, 15:55:25,-10.193204,-2.7686427,6.3228517,0.5652787,0.6411738,1.3678864,12.310371300933872,1.6129963124660922,walk
23/10/2020, 15:55:25,-10.193204,-2.7686427,6.3228517,0.45287955,0.55076575,1.2396047,12.310371300933872,1.4300568661299358,walk
23/10/2020, 15:55:25,-9.479487,-2.943479,6.330037,0.45287955,0.55076575,1.2396047,11.772600418571873,1.4300568661299358,walk
23/10/2020, 15:55:25,-9.479487,-2.943479,6.330037,0.44066226,0.47746193,1.0771146,11.772600418571873,1.25790657563846,walk
23/10/2020, 15:55:25,-8.976534,-3.3697927,6.2941117,0.44066226,0.47746193,1.0771146,11.469503300791882,1.25790657563846,walk
23/10/2020, 15:55:25,-8.976534,-3.3697927,6.2941117,0.50541395,0.4151537,0.87308574,11.469503300791882,1.0909053898052359,walk
23/10/2020, 15:55:25,-8.56938,-3.6955154,6.231841,0.50541395,0.4151537,0.87308574,11.22171767757024,1.0909053898052359,walk
23/10/2020, 15:55:25,-8.56938,-3.6955154,6.231841,0.6666823,0.3711714,0.6776089,11.22171767757024,1.020483877099526,walk
23/10/2020, 15:55:25,-8.298743,-3.8296363,6.0665846,0.6666823,0.3711714,0.6776089,10.969899840454518,1.020483877099526,walk
23/10/2020, 15:55:25,-8.298743,-3.8296363,6.0665846,0.89514583,0.32841086,0.48701903,10.969899840454518,1.0706667532404726,walk
23/10/2020, 15:55:25,-8.200547,-4.006868,5.8821683,0.89514583,0.32841086,0.48701903,10.858354790652045,1.0706667532404726,walk
23/10/2020, 15:55:25,-8.200547,-4.006868,5.8821683,1.1895827,0.28931552,0.30009434,10.858354790652045,1.2605027151846409,walk
23/10/2020, 15:55:25,-8.2125225,-4.071533,5.4414845,1.1895827,0.28931552,0.30009434,10.659862174582976,1.2605027151846409,walk
23/10/2020, 15:55:25,-8.2125225,-4.071533,5.4414845,1.4999021,0.25510707,0.13027386,10.659862174582976,1.5270092653149407,walk
23/10/2020, 15:55:25,-8.2125225,-3.9254372,5.010381,1.4999021,0.25510707,0.13027386,10.390308138647203,1.5270092653149407,walk
23/10/2020, 15:55:26,-8.583751,-2.8716285,0.4406836,1.0686314,-0.15661593,-2.0590663,9.062076413105252,2.3251356197730937,walk
23/10/2020, 15:55:26,-8.485555,-2.8812087,0.36883304,1.0686314,-0.15661593,-2.0590663,8.968948635380992,2.3251356197730937,walk
23/10/2020, 15:55:26,-8.485555,-2.8812087,0.36883304,1.2347867,-0.07842521,-2.092053,8.968948635380992,2.4305419804462938,walk
23/10/2020, 15:55:26,-8.468789,-2.8380983,0.29698244,1.2347867,-0.07842521,-2.092053,8.936631876122158,2.4305419804462938,walk
23/10/2020, 15:55:26,-8.468789,-2.8380983,0.29698244,1.382616,-0.011230063,-2.1030486,8.936631876122158,2.5168564709318386,walk
23/10/2020, 15:55:26,-8.4304695,-2.7375073,0.2083667,1.382616,-0.011230063,-2.1030486,8.86623817341678,2.5168564709318386,walk
23/10/2020, 15:55:26,-8.4304695,-2.7375073,0.2083667,1.4925717,0.04619125,-2.0932748,8.86623817341678,2.571323291013347,walk
23/10/2020, 15:55:26,-8.48316,-2.6512868,0.19639161,1.4925717,0.04619125,-2.0932748,8.889988497308677,2.571323291013347,walk
23/10/2020, 15:55:26,-8.48316,-2.6512868,0.19639161,1.5670973,0.09994737,-2.0602882,8.889988497308677,2.5904769586834897,walk
23/10/2020, 15:55:26,-8.464,-2.4812403,0.18920656,1.5670973,0.09994737,-2.0602882,8.822224444473223,2.5904769586834897,walk
23/10/2020, 15:55:26,-8.464,-2.4812403,0.18920656,1.6049709,0.14637311,-2.0004232,8.822224444473223,2.56886156309463,walk
23/10/2020, 15:55:26,-8.344249,-2.308799,0.10777588,1.6049709,0.14637311,-2.0004232,8.658444211156862,2.56886156309463,walk
23/10/2020, 15:55:26,-8.344249,-2.308799,0.10777588,1.5927536,0.18669021,-1.9258977,8.658444211156862,2.506152317558599,walk
23/10/2020, 15:55:26,-8.262817,-2.2225783,0.19160157,1.5927536,0.18669021,-1.9258977,8.558663243020305,2.506152317558599,walk
23/10/2020, 15:55:26,-8.262817,-2.2225783,0.19160157,1.5341105,0.22822903,-1.834268,8.558663243020305,2.4021079614253185,walk
23/10/2020, 15:55:26,-8.011341,-2.059717,0.1580713,1.5341105,0.22822903,-1.834268,8.273391477907166,2.4021079614253185,walk
23/10/2020, 15:55:26,-8.011341,-2.059717,0.1580713,1.4302635,0.2685461,-1.7255341,8.273391477907166,2.2572635227384077,walk
23/10/2020, 15:55:26,-7.812554,-2.0118165,0.1460962,1.4302635,0.2685461,-1.7255341,8.068751322495485,2.2572635227384077,walk
23/10/2020, 15:55:26,-7.812554,-2.0118165,0.1460962,1.2909863,0.3088632,-1.6058046,8.068751322495485,2.0834227584832026,walk
23/10/2020, 15:55:26,-7.568262,-1.961521,0.21794678,1.2909863,0.3088632,-1.6058046,7.82135901022178,2.0834227584832026,walk
23/10/2020, 15:55:26,-7.568262,-1.961521,0.21794678,1.1309397,0.35040203,-1.481188,7.82135901022178,1.8962395158336183,walk
23/10/2020, 15:55:26,-7.3886356,-1.9830762,0.2682422,1.1309397,0.35040203,-1.481188,7.654833878623427,1.8962395158336183,walk
23/10/2020, 15:55:26,-7.3886356,-1.9830762,0.2682422,0.96234095,0.4029364,-1.3492413,7.654833878623427,1.7055526425033387,walk
23/10/2020, 15:55:26,-7.230564,-2.0237916,0.31853762,0.96234095,0.4029364,-1.3492413,7.515201655155106,1.7055526425033387,walk
23/10/2020, 15:55:26,-7.230564,-2.0237916,0.31853762,0.8010726,0.45791426,-1.2160727,7.515201655155106,1.5265109034310609,walk
23/10/2020, 15:55:26,-7.194639,-2.0812721,0.37601808,0.8010726,0.45791426,-1.2160727,7.499061045037128,1.5265109034310609,walk
23/10/2020, 15:55:26,-7.194639,-2.0812721,0.37601808,0.65690845,0.51900077,-1.0755737,7.499061045037128,1.3629927585835393,walk
23/10/2020, 15:55:26,-7.213799,-2.1459377,0.46463382,0.65690845,0.51900077,-1.0755737,7.54054567852096,1.3629927585835393,walk
23/10/2020, 15:55:26,-7.213799,-2.1459377,0.46463382,0.53473544,0.58130896,-0.9277443,7.54054567852096,1.2184299898106365,walk
23/10/2020, 15:55:26,-7.28565,-2.215393,0.5556446,0.53473544,0.58130896,-0.9277443,7.635273406633455,1.2184299898106365,walk
23/10/2020, 15:55:27,-10.176438,-1.695674,3.539839,1.143157,0.090173535,0.45891923,10.90713837768082,1.2351299778711948,walk
23/10/2020, 15:55:27,-10.176438,-1.695674,3.539839,1.1517091,0.05963028,0.40638486,10.90713837768082,1.2227584492702603,walk
23/10/2020, 15:55:27,-10.130933,-1.9950514,3.527864,1.1517091,0.05963028,0.40638486,10.91154681243905,1.2227584492702603,walk
23/10/2020, 15:55:27,-10.130933,-1.9950514,3.527864,1.1651481,0.019313188,0.34163314,10.91154681243905,1.2143543091345161,walk
23/10/2020, 15:55:27,-9.924961,-2.184258,3.6092947,1.1651481,0.019313188,0.34163314,10.78437960537667,1.2143543091345161,walk
23/10/2020, 15:55:27,-9.924961,-2.184258,3.6092947,1.2030218,-0.007564872,0.26344243,10.78437960537667,1.2315520720072075,walk
23/10/2020, 15:55:27,-9.817185,-2.459685,3.776946,1.2030218,-0.007564872,0.26344243,10.802430353534431,1.2315520720072075,walk
23/10/2020, 15:55:27,-9.817185,-2.459685,3.776946,1.2641082,-0.018560443,0.1766996,10.802430353534431,1.2765330899425764,walk
23/10/2020, 15:55:27,-9.802815,-2.5530908,3.786526,1.2641082,-0.018560443,0.1766996,10.81439975531666,1.2765330899425764,walk
23/10/2020, 15:55:27,-9.802815,-2.5530908,3.786526,1.3300817,-0.014895253,0.07896121,10.81439975531666,1.3325066878168976,walk
23/10/2020, 15:55:27,-10.123748,-2.6249416,3.8008962,1.3300817,-0.014895253,0.07896121,11.127776060487907,1.3325066878168976,walk
23/10/2020, 15:55:27,-10.123748,-2.6249416,3.8008962,1.4107158,-0.021003902,-0.004116436,11.127776060487907,1.4108781766124765,walk
23/10/2020, 15:55:27,-10.538086,-2.7327175,3.9398074,1.4107158,-0.021003902,-0.004116436,11.577611269386361,1.4108781766124765,walk
23/10/2020, 15:55:27,-10.538086,-2.7327175,3.9398074,1.4864631,-0.03810812,-0.06886813,11.577611269386361,1.4885454331482932,walk
23/10/2020, 15:55:27,-10.720108,-2.806963,3.9517825,1.4864631,-0.03810812,-0.06886813,11.76504746997626,1.4885454331482932,walk
23/10/2020, 15:55:27,-10.720108,-2.806963,3.9517825,1.5561017,-0.055212345,-0.10796349,11.76504746997626,1.5608193218801532,walk
23/10/2020, 15:55:27,-10.679393,-2.8812087,3.9685476,1.5561017,-0.055212345,-0.10796349,11.751602619943627,1.5608193218801532,walk
23/10/2020, 15:55:27,-10.679393,-2.8812087,3.9685476,1.6086361,-0.06742964,-0.1360633,11.751602619943627,1.6157877983918145,walk
23/10/2020, 15:55:27,-10.6817875,-2.9865894,3.9278321,1.6086361,-0.06742964,-0.1360633,11.766399859276053,1.6157877983918145,walk
23/10/2020, 15:55:27,-10.6817875,-2.9865894,3.9278321,1.6330707,-0.08819905,-0.17271519,11.766399859276053,1.6445453910554988,walk
23/10/2020, 15:55:27,-11.1176815,-3.2284865,3.9541774,1.6330707,-0.08819905,-0.17271519,12.233621135369095,1.6445453910554988,walk
23/10/2020, 15:55:27,-11.1176815,-3.2284865,3.9541774,1.6636139,-0.11629884,-0.19959325,12.233621135369095,1.6795755843535167,walk
23/10/2020, 15:55:27,-11.757152,-3.5877395,4.026028,1.6636139,-0.11629884,-0.19959325,12.934890453152027,1.6795755843535167,walk
23/10/2020, 15:55:27,-11.757152,-3.5877395,4.026028,1.7247005,-0.16028112,-0.24357553,12.934890453152027,1.7491742969977166,walk
23/10/2020, 15:55:27,-11.946358,-3.7362306,4.0811133,1.7247005,-0.16028112,-0.24357553,13.16549916291317,1.7491742969977166,walk
23/10/2020, 15:55:27,-11.946358,-3.7362306,4.0811133,1.754022,-0.228698,-0.30954894,13.16549916291317,1.7957495673105273,walk
23/10/2020, 15:55:27,-11.520044,-3.532654,4.014053,1.754022,-0.228698,-0.30954894,12.700538820582027,1.7957495673105273,walk
23/10/2020, 15:55:27,-11.520044,-3.532654,4.014053,1.7320309,-0.32643643,-0.39140487,12.700538820582027,1.8054610055495275,walk
23/10/2020, 15:55:27,-10.660233,-3.2476466,3.8751419,1.7320309,-0.32643643,-0.39140487,11.79849526692944,1.8054610055495275,walk
23/10/2020, 15:55:27,-10.660233,-3.2476466,3.8751419,1.6611705,-0.4388356,-0.4830346,11.79849526692944,1.7847651059892482,walk
23/10/2020, 15:55:28,-7.5035963,-2.083667,2.4644752,-0.5745954,0.32230222,0.16326056,8.16818606810432,0.6787433966638308,walk
23/10/2020, 15:55:28,-7.2593045,-2.0118165,2.315984,-0.5745954,0.32230222,0.16326056,7.880906657131834,0.6787433966638308,walk
23/10/2020, 15:55:28,-7.2593045,-2.0118165,2.315984,-0.63812536,0.31497183,0.089956775,7.880906657131834,0.7172889605960037,walk
23/10/2020, 15:55:28,-7.1275783,-1.961521,2.3327491,-0.63812536,0.31497183,0.089956775,7.751880744444431,0.7172889605960037,walk
23/10/2020, 15:55:28,-7.1275783,-1.961521,2.3327491,-0.6821076,0.31497183,0.042309307,7.751880744444431,0.752507906434526,walk
23/10/2020, 15:55:28,-7.1563187,-1.947151,2.3255641,-0.6821076,0.31497183,0.042309307,7.772550561504982,0.752507906434526,walk
23/10/2020, 15:55:28,-7.1563187,-1.947151,2.3255641,-0.68821627,0.32230222,0.016652975,7.772550561504982,0.7601300395269451,walk
23/10/2020, 15:55:28,-7.237749,-1.8968556,2.2824538,-0.68821627,0.32230222,0.016652975,7.822574282625261,0.7601300395269451,walk
23/10/2020, 15:55:28,-7.237749,-1.8968556,2.2824538,-0.6845511,0.33207607,0.020318165,7.822574282625261,0.7611160105572932,walk
23/10/2020, 15:55:28,-7.194639,-1.6908839,2.2345533,-0.6845511,0.33207607,0.020318165,7.721084781185129,0.7611160105572932,walk
23/10/2020, 15:55:28,-7.194639,-1.6908839,2.2345533,-0.7175378,0.36384106,0.038644116,7.721084781185129,0.8054403801510736,walk
23/10/2020, 15:55:28,-7.055728,-1.3915064,2.186653,-0.7175378,0.36384106,0.038644116,7.516717240997084,0.8054403801510736,walk
23/10/2020, 15:55:28,-7.055728,-1.3915064,2.186653,-0.7737374,0.3943843,0.075296015,7.516717240997084,0.8717098031931825,walk
23/10/2020, 15:55:28,-7.082073,-1.4178516,2.1698878,-0.7737374,0.3943843,0.075296015,7.541516891515434,0.8717098031931825,walk
23/10/2020, 15:55:28,-7.082073,-1.4178516,2.1698878,-0.8103893,0.40782332,0.11561311,7.541516891515434,0.9145583856204033,walk
23/10/2020, 15:55:28,-7.1227884,-1.4920973,2.3878345,-0.8103893,0.40782332,0.11561311,7.659126782485685,0.9145583856204033,walk
23/10/2020, 15:55:28,-7.1227884,-1.4920973,2.3878345,-0.8128328,0.41393197,0.15959539,7.659126782485685,0.926016995381934,walk
23/10/2020, 15:55:28,-7.2976246,-1.6669337,2.5530908,-0.8128328,0.41393197,0.15959539,7.908998996603167,0.926016995381934,walk
23/10/2020, 15:55:28,-7.2976246,-1.6669337,2.5530908,-0.7908416,0.42126235,0.20846458,7.908998996603167,0.9199727466461836,walk
23/10/2020, 15:55:28,-7.4844365,-1.7962648,2.7375073,-0.7908416,0.42126235,0.20846458,8.169290267344413,0.9199727466461836,walk
23/10/2020, 15:55:28,-7.4844365,-1.7962648,2.7375073,-0.7627418,0.42614928,0.25611204,8.169290267344413,0.9104787994304735,walk
23/10/2020, 15:55:28,-7.6161623,-1.9112257,2.8141482,-0.7627418,0.42614928,0.25611204,8.341351316798129,0.9104787994304735,walk
23/10/2020, 15:55:28,-7.6161623,-1.9112257,2.8141482,-0.74319416,0.427371,0.29276395,8.341351316798129,0.9059217741083287,walk
23/10/2020, 15:55:28,-7.656878,-2.0237916,2.943479,-0.74319416,0.427371,0.29276395,8.449117223166493,0.9059217741083287,walk
23/10/2020, 15:55:28,-7.656878,-2.0237916,2.943479,-0.7260899,0.43225792,0.32208547,8.449117223166493,0.9043188016886602,walk
23/10/2020, 15:55:28,-7.719148,-2.1243825,3.1039455,-0.7260899,0.43225792,0.32208547,8.586776282031703,0.9043188016886602,walk
23/10/2020, 15:55:28,-7.719148,-2.1243825,3.1039455,-0.7102074,0.4395883,0.33430278,8.586776282031703,0.8996614843443591,walk
23/10/2020, 15:55:28,-7.7646537,-2.2273684,3.278782,-0.7102074,0.4395883,0.33430278,8.717879747292145,0.8996614843443591,walk
23/10/2020, 15:55:28,-7.7646537,-2.2273684,3.278782,-0.67111206,0.44936216,0.34041142,8.717879747292145,0.8764688731346827,walk
23/10/2020, 15:55:28,-7.8269243,-2.2944288,3.4991236,-0.67111206,0.44936216,0.34041142,8.875190915701731,0.8764688731346827,walk
23/10/2020, 15:55:29,-12.4541025,-3.5805542,4.1721244,-0.18119833,0.762125,3.5181313,13.613657116633256,3.604291179745541,walk
23/10/2020, 15:55:29,-12.715159,-3.7146754,3.9829175,-0.18119833,0.762125,3.5181313,13.832488015229416,3.604291179745541,walk
23/10/2020, 15:55:29,-12.715159,-3.7146754,3.9829175,-0.08834685,0.7425774,3.55967,13.832488015229416,3.637372214576831,walk
23/10/2020, 15:55:29,-13.160633,-3.8440065,3.8440065,-0.08834685,0.7425774,3.55967,14.239207695275413,3.637372214576831,walk
23/10/2020, 15:55:29,-13.160633,-3.8440065,3.8440065,0.027717505,0.7230297,3.569444,14.239207695275413,3.6420420394359176,walk
23/10/2020, 15:55:29,-13.665982,-3.894302,3.6236646,0.027717505,0.7230297,3.569444,14.664774230791384,3.6420420394359176,walk
23/10/2020, 15:55:29,-13.665982,-3.894302,3.6236646,0.14256014,0.7083689,3.5572267,14.664774230791384,3.6298720891537055,walk
23/10/2020, 15:55:29,-14.250367,-3.8368216,3.4799635,0.14256014,0.7083689,3.5572267,15.162595761492746,3.6298720891537055,walk
23/10/2020, 15:55:29,-14.250367,-3.8368216,3.4799635,0.22930296,0.690043,3.5315702,15.162595761492746,3.60565211864955,walk
23/10/2020, 15:55:29,-14.813196,-3.8056862,3.3266823,0.22930296,0.690043,3.5315702,15.651863920173986,3.60565211864955,walk
23/10/2020, 15:55:29,-14.813196,-3.8056862,3.3266823,0.30260676,0.658278,3.4888096,15.651863920173986,3.563241934883066,walk
23/10/2020, 15:55:29,-15.371236,-3.8320315,3.151846,0.30260676,0.658278,3.4888096,16.152197670471438,3.563241934883066,walk
23/10/2020, 15:55:29,-15.371236,-3.8320315,3.151846,0.36735845,0.61551744,3.4216146,16.152197670471438,3.495891979983312,walk
23/10/2020, 15:55:29,-15.86461,-3.9972878,3.1614258,0.36735845,0.61551744,3.4216146,16.66309587516083,3.495891979983312,walk
23/10/2020, 15:55:29,-15.86461,-3.9972878,3.1614258,0.44066226,0.5605396,3.3336499,16.66309587516083,3.409048160275276,walk
23/10/2020, 15:55:29,-16.096928,-4.0691385,3.3147073,0.44066226,0.5605396,3.3336499,16.930925911960884,3.409048160275276,walk
23/10/2020, 15:55:29,-16.096928,-4.0691385,3.3147073,0.5237399,0.48479232,3.2139204,16.930925911960884,3.292204595505227,walk
23/10/2020, 15:55:29,-15.677798,-3.9972878,3.558999,0.5237399,0.48479232,3.2139204,16.56617464324219,3.292204595505227,walk
23/10/2020, 15:55:29,-15.677798,-3.9972878,3.558999,0.5836047,0.3858322,3.0636477,16.56617464324219,3.142514667483983,walk
23/10/2020, 15:55:29,-14.635965,-4.0667434,3.535049,0.5836047,0.3858322,3.0636477,15.596360295824956,3.142514667483983,walk
23/10/2020, 15:55:29,-14.635965,-4.0667434,3.535049,0.62636524,0.27221128,2.8974924,15.596360295824956,2.9768934581188757,walk
23/10/2020, 15:55:29,-13.014537,-3.887117,3.2572267,0.62636524,0.27221128,2.8974924,13.967726131828275,2.9768934581188757,walk
23/10/2020, 15:55:29,-13.014537,-3.887117,3.2572267,0.63613904,0.14881657,2.6543682,13.967726131828275,2.7335854813955853,walk
23/10/2020, 15:55:29,-11.479329,-3.6212697,3.0177248,0.63613904,0.14881657,2.6543682,12.409482412243054,2.7335854813955853,walk
23/10/2020, 15:55:29,-11.479329,-3.6212697,3.0177248,0.62025654,0.04985644,2.378257,12.409482412243054,2.4583145393019286,walk
23/10/2020, 15:55:29,-9.915381,-3.2859669,2.6584718,0.62025654,0.04985644,2.378257,10.778675227390996,2.4583145393019286,walk
23/10/2020, 15:55:29,-9.915381,-3.2859669,2.6584718,0.5762743,-0.016116982,2.0764897,10.778675227390996,2.1550316049006466,walk
23/10/2020, 15:55:29,-8.48316,-3.1398706,2.2848487,0.5762743,-0.016116982,2.0764897,9.329701233244458,2.1550316049006466,walk
23/10/2020, 15:55:29,-8.48316,-3.1398706,2.2848487,0.48464453,-0.07109483,1.7295184,9.329701233244458,1.7975451985153654,walk
23/10/2020, 15:55:29,-7.2569094,-2.8572583,1.7483643,0.48464453,-0.07109483,1.7295184,7.992711463890386,1.7975451985153654,walk
23/10/2020, 15:55:30,-8.509504,-2.1722827,1.7124391,-1.621618,-1.3123726,-1.5068444,8.947788742889452,2.573430947813693,walk
23/10/2020, 15:55:30,-8.289163,-2.1579127,1.6573536,-1.621618,-1.3123726,-1.5068444,8.724312330771337,2.573430947813693,walk
23/10/2020, 15:55:30,-8.289163,-2.1579127,1.6573536,-1.5202144,-1.2683903,-1.4970706,8.724312330771337,2.4821535248741227,walk
23/10/2020, 15:55:30,-8.0305,-2.0621119,1.707649,-1.5202144,-1.2683903,-1.4970706,8.465063924704573,2.4821535248741227,walk
23/10/2020, 15:55:30,-8.0305,-2.0621119,1.707649,-1.4200326,-1.2366253,-1.4787446,8.465063924704573,2.3942473720925506,walk
23/10/2020, 15:55:30,-7.783814,-1.9423609,1.710044,-1.4200326,-1.2366253,-1.4787446,8.202729790358104,2.3942473720925506,walk
23/10/2020, 15:55:30,-7.783814,-1.9423609,1.710044,-1.3357333,-1.2073038,-1.4396492,8.202729790358104,2.305288636541374,walk
23/10/2020, 15:55:30,-7.5299416,-1.7531544,1.7387843,-1.3357333,-1.2073038,-1.4396492,7.924452101382741,2.305288636541374,walk
23/10/2020, 15:55:30,-7.5299416,-1.7531544,1.7387843,-1.2269993,-1.1816474,-1.3687888,7.924452101382741,2.1852690335974465,walk
23/10/2020, 15:55:30,-7.4125857,-1.6860938,1.6908839,-1.2269993,-1.1816474,-1.3687888,7.787710054220433,2.1852690335974465,walk
23/10/2020, 15:55:30,-7.4125857,-1.6860938,1.6908839,-1.1365913,-1.147439,-1.255168,7.787710054220433,2.045459042404415,walk
23/10/2020, 15:55:30,-7.199429,-1.4489869,1.6190332,-1.1365913,-1.147439,-1.255168,7.5201469396036895,2.045459042404415,walk
23/10/2020, 15:55:30,-7.199429,-1.4489869,1.6190332,-1.0620657,-1.1120088,-1.1061169,7.5201469396036895,1.8942127031432177,walk
23/10/2020, 15:55:30,-7.194639,-1.2837305,1.7028589,-1.0620657,-1.1120088,-1.1061169,7.50403397086364,1.8942127031432177,walk
23/10/2020, 15:55:30,-7.194639,-1.2837305,1.7028589,-0.9850967,-1.0826873,-0.92896605,7.50403397086364,1.733668107885714,walk
23/10/2020, 15:55:30,-7.062913,-1.0801538,1.6717237,-0.9850967,-1.0826873,-0.92896605,7.337992348073738,1.733668107885714,walk
23/10/2020, 15:55:30,-7.062913,-1.0801538,1.6717237,-0.9288971,-1.0497006,-0.74081963,7.337992348073738,1.5854131657339956,walk
23/10/2020, 15:55:30,-6.9096317,-0.9963282,1.5639478,-0.9288971,-1.0497006,-0.74081963,7.15413259422564,1.5854131657339956,walk
23/10/2020, 15:55:30,-6.9096317,-0.9963282,1.5639478,-0.9325623,-1.0044966,-0.5526732,7.15413259422564,1.4778814176202053,walk
23/10/2020, 15:55:30,-6.6605496,-0.8047266,1.3723463,-0.9325623,-1.0044966,-0.5526732,6.847907763336111,1.4778814176202053,walk
23/10/2020, 15:55:30,-6.6605496,-0.8047266,1.3723463,-0.9936488,-0.94707525,-0.34864432,6.847907763336111,1.4162776478126973,walk
23/10/2020, 15:55:30,-6.5216384,-0.7089258,1.21188,-0.9936488,-0.94707525,-0.34864432,6.671056599924503,1.4162776478126973,walk
23/10/2020, 15:55:30,-6.5216384,-0.7089258,1.21188,-1.1133784,-0.88476706,-0.14339367,6.671056599924503,1.4293305985078155,walk
23/10/2020, 15:55:30,-6.3803325,-0.61552006,1.1543995,-1.1133784,-0.88476706,-0.14339367,6.513074973443307,1.4293305985078155,walk
23/10/2020, 15:55:30,-6.3803325,-0.61552006,1.1543995,-1.2331079,-0.8041329,0.069187365,6.513074973443307,1.4737610836380541,walk
23/10/2020, 15:55:30,-6.351592,-0.69216067,1.2454102,-1.2331079,-0.8041329,0.069187365,6.509443502316484,1.4737610836380541,walk
23/10/2020, 15:55:30,-6.351592,-0.69216067,1.2454102,-1.323516,-0.71128136,0.30131605,6.509443502316484,1.532451358948366,walk
23/10/2020, 15:55:30,-6.334827,-0.76880133,1.3268409,-1.323516,-0.71128136,0.30131605,6.517790625716881,1.532451358948366,walk
23/10/2020, 15:55:30,-6.334827,-0.76880133,1.3268409,-1.3772721,-0.60987777,0.53588825,6.517790625716881,1.5987512712756091,walk
23/10/2020, 15:55:30,-6.4354177,-0.8933423,1.5495777,-1.3772721,-0.60987777,0.53588825,6.679360144492819,1.5987512712756091,walk
23/10/2020, 15:55:31,-11.179952,-1.4705421,5.0271463,0.5652787,-0.33132333,-0.033437956,12.346093050075787,0.6560741282766289,walk
23/10/2020, 15:55:31,-11.201507,-1.223855,5.046306,0.5652787,-0.33132333,-0.033437956,12.346528950928073,0.6560741282766289,walk
23/10/2020, 15:55:31,-11.201507,-1.223855,5.046306,0.3930148,-0.4034054,-0.11407214,12.346528950928073,0.5746381397583336,walk
23/10/2020, 15:55:31,-11.074571,-1.0059083,4.8331494,0.3930148,-0.4034054,-0.11407214,12.12506907456111,0.5746381397583336,walk
23/10/2020, 15:55:31,-11.074571,-1.0059083,4.8331494,0.1779903,-0.47060058,-0.18371075,12.12506907456111,0.5356258864689636,walk
23/10/2020, 15:55:31,-10.854229,-0.8095166,4.7157936,0.1779903,-0.47060058,-0.18371075,11.862053494865902,0.5356258864689636,walk
23/10/2020, 15:55:31,-10.854229,-0.8095166,4.7157936,-0.040699374,-0.5377957,-0.2509059,11.862053494865902,0.5948398519054124,walk
23/10/2020, 15:55:31,-10.538086,-0.728086,4.488267,-0.040699374,-0.5377957,-0.2509059,11.477190623597437,0.5948398519054124,walk
23/10/2020, 15:55:31,-10.538086,-0.728086,4.488267,-0.24595001,-0.59277356,-0.3107707,11.477190623597437,0.7130570248318632,walk
23/10/2020, 15:55:31,-10.293795,-0.8334668,4.3086405,-0.24595001,-0.59277356,-0.3107707,11.190230456265791,0.7130570248318632,walk
23/10/2020, 15:55:31,-10.293795,-0.8334668,4.3086405,-0.4035532,-0.6355341,-0.3559747,11.190230456265791,0.8327525246793941,walk
23/10/2020, 15:55:31,-10.317744,-1.101709,4.150569,-0.4035532,-0.6355341,-0.3559747,11.175725120136782,0.8327525246793941,walk
23/10/2020, 15:55:31,-10.317744,-1.101709,4.150569,-0.5110654,-0.6672991,-0.39995697,11.175725120136782,0.9308284073882781,walk
23/10/2020, 15:55:31,-10.746453,-1.463357,4.0116577,-0.5110654,-0.6672991,-0.39995697,11.563782662224543,0.9308284073882781,walk
23/10/2020, 15:55:31,-10.746453,-1.463357,4.0116577,-0.56848675,-0.6892902,-0.4414958,11.563782662224543,0.9966026022158556,walk
23/10/2020, 15:55:31,-11.2374325,-1.8226099,4.028423,-0.56848675,-0.6892902,-0.4414958,12.0760086994619,0.9966026022158556,walk
23/10/2020, 15:55:31,-11.2374325,-1.8226099,4.028423,-0.58803445,-0.7186118,-0.48547807,12.0760086994619,1.0477959539342605,walk
23/10/2020, 15:55:31,-11.697276,-2.2058132,4.1625443,-0.58803445,-0.7186118,-0.48547807,12.610259905974894,1.0477959539342605,walk
23/10/2020, 15:55:31,-11.697276,-2.2058132,4.1625443,-0.5709302,-0.7711462,-0.5319038,12.610259905974894,1.097063971710029,walk
23/10/2020, 15:55:31,-11.946358,-2.555486,4.375701,-0.5709302,-0.7711462,-0.5319038,12.976622452057134,1.097063971710029,walk
23/10/2020, 15:55:31,-11.946358,-2.555486,4.375701,-0.5293914,-0.8468934,-0.580773,12.976622452057134,1.1553272337378568,walk
23/10/2020, 15:55:31,-11.984678,-2.7255323,4.4691067,-0.5293914,-0.8468934,-0.580773,13.077995027721105,1.1553272337378568,walk
23/10/2020, 15:55:31,-11.984678,-2.7255323,4.4691067,-0.47441354,-0.9409666,-0.64308125,13.077995027721105,1.2345200913005172,walk
23/10/2020, 15:55:31,-11.764337,-2.8836036,4.495452,-0.47441354,-0.9409666,-0.64308125,12.919902201782435,1.2345200913005172,walk
23/10/2020, 15:55:31,-11.764337,-2.8836036,4.495452,-0.40721837,-1.0484788,-0.721272,12.919902201782435,1.3361766223170948,walk
23/10/2020, 15:55:31,-11.448194,-3.0057497,4.382886,-0.40721837,-1.0484788,-0.721272,12.621622555582377,1.3361766223170948,walk
23/10/2020, 15:55:31,-11.448194,-3.0057497,4.382886,-0.32047555,-1.1535476,-0.8238973,12.621622555582377,1.4533353054538178,walk
23/10/2020, 15:55:31,-11.187137,-3.1278956,4.0882983,-0.32047555,-1.1535476,-0.8238973,12.31462303247771,1.4533353054538178,walk
23/10/2020, 15:55:31,-11.187137,-3.1278956,4.0882983,-0.22151542,-1.2476208,-0.94851375,12.31462303247771,1.5828155672251691,walk
23/10/2020, 15:55:31,-10.873389,-3.0153298,3.7074904,-0.22151542,-1.2476208,-0.94851375,11.877217396246392,1.5828155672251691,walk
23/10/2020, 15:55:32,-7.3551054,-2.4141798,0.58677983,-2.6002238,-0.057655804,0.5554359,7.763385223901576,2.659510656229755,walk
23/10/2020, 15:55:32,-7.4197707,-2.6776319,0.51013917,-2.6002238,-0.057655804,0.5554359,7.904615855502145,2.659510656229755,walk
23/10/2020, 15:55:32,-7.4197707,-2.6776319,0.51013917,-2.6833014,-0.029556014,0.49679285,7.904615855502145,2.72906272589402,walk
23/10/2020, 15:55:32,-7.479646,-2.8812087,0.46463382,-2.6833014,-0.029556014,0.49679285,8.028845202556496,2.72906272589402,walk
23/10/2020, 15:55:32,-7.479646,-2.8812087,0.46463382,-2.7040708,0.018091459,0.44303674,8.028845202556496,2.740183894572878,walk
23/10/2020, 15:55:32,-7.4988065,-3.0081446,0.39517823,-2.7040708,0.018091459,0.44303674,8.089326204514043,2.740183894572878,walk
23/10/2020, 15:55:32,-7.4988065,-3.0081446,0.39517823,-2.6686406,0.097503915,0.40271965,8.089326204514043,2.700617124228463,walk
23/10/2020, 15:55:32,-7.4676714,-3.06323,0.49337405,-2.6686406,0.097503915,0.40271965,8.086588419763206,2.700617124228463,walk
23/10/2020, 15:55:32,-7.4676714,-3.06323,0.49337405,-2.5880065,0.19402058,0.3721764,8.086588419763206,2.6218193858287586,walk
23/10/2020, 15:55:32,-7.434141,-3.1255007,0.6825806,-2.5880065,0.19402058,0.3721764,8.093276563265842,2.6218193858287586,walk
23/10/2020, 15:55:32,-7.434141,-3.1255007,0.6825806,-2.4841595,0.29786763,0.3599591,8.093276563265842,2.527715162672574,walk
23/10/2020, 15:55:32,-7.359895,-3.1087356,0.98914313,-2.4841595,0.29786763,0.3599591,8.050509220867456,2.527715162672574,walk
23/10/2020, 15:55:32,-7.359895,-3.1087356,0.98914313,-2.368095,0.40171468,0.36240256,8.050509220867456,2.42911174215557,walk
23/10/2020, 15:55:32,-7.4006104,-3.159031,1.4226416,-2.368095,0.40171468,0.36240256,8.17143931790608,2.42911174215557,walk
23/10/2020, 15:55:32,-7.4006104,-3.159031,1.4226416,-2.2398133,0.49090096,0.36484602,8.17143931790608,2.3218225854585453,walk
23/10/2020, 15:55:32,-7.4820414,-3.182981,1.9327809,-2.2398133,0.49090096,0.36484602,8.357508773195683,2.3218225854585453,walk
23/10/2020, 15:55:32,-7.4820414,-3.182981,1.9327809,-2.105423,0.56298304,0.3599591,8.357508773195683,2.2089197240642524,walk
23/10/2020, 15:55:32,-7.719148,-3.288362,2.2848487,-2.105423,0.56298304,0.3599591,8.695924715221894,2.2089197240642524,walk
23/10/2020, 15:55:32,-7.719148,-3.288362,2.2848487,-1.9490417,0.61551744,0.35262874,8.695924715221894,2.074119665099016,walk
23/10/2020, 15:55:32,-7.941885,-3.2428565,2.7854078,-1.9490417,0.61551744,0.35262874,9.01932104272801,2.074119665099016,walk
23/10/2020, 15:55:32,-7.941885,-3.2428565,2.7854078,-1.767004,0.65216935,0.35751563,9.01932104272801,1.9171451345708443,walk
23/10/2020, 15:55:32,-8.111932,-3.027305,3.1853762,-1.767004,0.65216935,0.35751563,9.225759250719056,1.9171451345708443,walk
23/10/2020, 15:55:32,-8.111932,-3.027305,3.1853762,-1.5874096,0.6766039,0.38195026,9.225759250719056,1.767356258213646,walk
23/10/2020, 15:55:32,-8.133487,-2.8285182,3.432063,-1.5874096,0.6766039,0.38195026,9.270015035278563,1.767356258213646,walk
23/10/2020, 15:55:32,-8.133487,-2.8285182,3.432063,-1.413924,0.6937081,0.41493696,9.270015035278563,1.6286757371009322,walk
23/10/2020, 15:55:32,-8.131092,-2.5985963,3.7098854,-1.413924,0.6937081,0.41493696,9.307556637524238,1.6286757371009322,walk
23/10/2020, 15:55:32,-8.131092,-2.5985963,3.7098854,-1.2685381,0.7132558,0.44792366,9.307556637524238,1.5226813288775753,walk
23/10/2020, 15:55:32,-8.080796,-2.3638844,3.647615,-1.2685381,0.7132558,0.44792366,9.175636896456593,1.5226813288775753,walk
23/10/2020, 15:55:32,-8.080796,-2.3638844,3.647615,-1.1500303,0.73402524,0.47113654,9.175636896456593,1.4433753082650296,walk
23/10/2020, 15:55:32,-8.171807,-2.1818628,3.63564,-1.1500303,0.73402524,0.47113654,9.206347663974265,1.4433753082650296,walk
23/10/2020, 15:55:33,-9.491463,-2.0980372,3.0823903,-0.35712746,0.6790474,2.6348205,10.19758572476744,2.7442529518093104,walk
23/10/2020, 15:55:33,-9.7142,-2.1004322,2.9889846,-0.35712746,0.6790474,2.6348205,10.378416359056969,2.7442529518093104,walk
23/10/2020, 15:55:33,-9.7142,-2.1004322,2.9889846,-0.49518293,0.70226026,2.7667673,10.378416359056969,2.897132494788459,walk
23/10/2020, 15:55:33,-10.332115,-2.1411476,2.7686427,-0.49518293,0.70226026,2.7667673,10.90882666737081,2.897132494788459,walk
23/10/2020, 15:55:33,-10.332115,-2.1411476,2.7686427,-0.6454557,0.7132558,2.8913836,10.90882666737081,3.047203037534437,walk
23/10/2020, 15:55:33,-11.218272,-2.2968237,2.5914114,-0.6454557,0.7132558,2.8913836,11.74054698247588,3.047203037534437,walk
23/10/2020, 15:55:33,-11.218272,-2.2968237,2.5914114,-0.766407,0.7328035,3.017222,11.74054698247588,3.1981258377751196,walk
23/10/2020, 15:55:33,-12.281661,-2.4620802,2.4189699,-0.766407,0.7328035,3.017222,12.757446926580608,3.1981258377751196,walk
23/10/2020, 15:55:33,-12.281661,-2.4620802,2.4189699,-0.8665889,0.76701194,3.1491687,12.757446926580608,3.355077839738487,walk
23/10/2020, 15:55:33,-13.457615,-2.6225464,2.2585034,-0.8665889,0.76701194,3.1491687,13.895538360817358,3.355077839738487,walk
23/10/2020, 15:55:33,-13.457615,-2.6225464,2.2585034,-0.9460013,0.80366385,3.2786722,13.895538360817358,3.5057788780554953,walk
23/10/2020, 15:55:33,-13.457615,-2.6225464,2.2585034,-1.0437398,0.8293202,3.400845,13.895538360817358,3.6527950670883538,walk
23/10/2020, 15:55:33,-14.516214,-2.7279274,2.2273684,-1.0437398,0.8293202,3.400845,14.937310253104569,3.6527950670883538,walk
23/10/2020, 15:55:33,-15.32573,-2.8692336,2.2345533,-1.0437398,0.8293202,3.400845,15.75130915424499,3.6527950670883538,walk
23/10/2020, 15:55:33,-15.32573,-2.8692336,2.2345533,-1.1720214,0.8317636,3.504692,15.75130915424499,3.787919141620514,walk
23/10/2020, 15:55:33,-15.78797,-3.0105398,2.3638844,-1.1720214,0.8317636,3.504692,16.24534650742542,3.787919141620514,walk
23/10/2020, 15:55:33,-15.78797,-3.0105398,2.3638844,-1.3259594,0.80610734,3.577996,16.24534650742542,3.9000042284279175,walk
23/10/2020, 15:55:33,-15.677798,-3.166216,2.6441016,-1.3259594,0.80610734,3.577996,16.211402009422912,3.9000042284279175,walk
23/10/2020, 15:55:33,-15.677798,-3.166216,2.6441016,-1.477454,0.7633468,3.6170914,16.211402009422912,3.98107005849426,walk
23/10/2020, 15:55:33,-15.146104,-3.412903,3.0704153,-1.477454,0.7633468,3.6170914,15.826554247004623,3.98107005849426,walk
23/10/2020, 15:55:33,-15.146104,-3.412903,3.0704153,-1.589853,0.7108124,3.6024306,15.826554247004623,4.0012989225120466,walk
23/10/2020, 15:55:33,-14.408438,-3.6236646,3.4919386,-1.589853,0.7108124,3.6024306,15.261967703111043,4.0012989225120466,walk
23/10/2020, 15:55:33,-14.408438,-3.6236646,3.4919386,-1.653383,0.64850414,3.5181313,15.261967703111043,3.940999943123875,walk
23/10/2020, 15:55:33,-13.673167,-3.8128712,3.8320315,-1.653383,0.64850414,3.5181313,14.702991339015623,3.940999943123875,walk
23/10/2020, 15:55:33,-13.673167,-3.8128712,3.8320315,-1.6387223,0.5752003,3.3751888,14.702991339015623,3.7958089792485397,walk
23/10/2020, 15:55:33,-13.069622,-3.9469924,4.2152348,-1.6387223,0.5752003,3.3751888,14.288525931657663,3.7958089792485397,walk
23/10/2020, 15:55:33,-13.069622,-3.9469924,4.2152348,-1.5446491,0.50189656,3.1992598,14.288525931657663,3.587910822886524,walk
23/10/2020, 15:55:33,-12.248131,-4.0667434,4.24158,-1.5446491,0.50189656,3.1992598,13.58477495944699,3.587910822886524,walk
23/10/2020, 15:55:33,-12.248131,-4.0667434,4.24158,-1.4102588,0.42614928,2.9964526,13.58477495944699,3.3390359402452265,walk
23/10/2020, 15:55:33,-11.187137,-3.8559816,4.0044727,-1.4102588,0.42614928,2.9964526,12.492254492411387,3.3390359402452265,walk
23/10/2020, 15:55:34,-9.848321,-1.8824854,1.2789404,-1.5055537,-1.7436433,-1.648565,10.107861576040495,2.8327990838290904,walk
23/10/2020, 15:55:34,-9.601634,-1.8729054,1.2525953,-1.5055537,-1.7436433,-1.648565,9.862461432047901,2.8327990838290904,walk
23/10/2020, 15:55:34,-9.601634,-1.8729054,1.2525953,-1.6472744,-1.6959958,-1.7182037,9.862461432047901,2.922693702109341,walk
23/10/2020, 15:55:34,-9.436378,-1.8824854,1.2286451,-1.6472744,-1.6959958,-1.7182037,9.700440236972534,2.922693702109341,walk
23/10/2020, 15:55:34,-9.436378,-1.8824854,1.2286451,-1.7462345,-1.6312441,-1.7780684,9.700440236972534,2.9785599821816935,walk
23/10/2020, 15:55:34,-9.137,-1.9687061,1.1304493,-1.7462345,-1.6312441,-1.7780684,9.414801642756176,2.9785599821816935,walk
23/10/2020, 15:55:34,-9.137,-1.9687061,1.1304493,-1.8134297,-1.5518316,-1.8428202,9.414801642756176,3.015409560742661,walk
23/10/2020, 15:55:34,-8.873548,-1.9902613,1.0825489,-1.8134297,-1.5518316,-1.8428202,9.158214800263318,3.015409560742661,walk
23/10/2020, 15:55:34,-8.873548,-1.9902613,1.0825489,-1.8427513,-1.4724191,-1.9124588,9.158214800263318,3.036650939818366,walk
23/10/2020, 15:55:34,-8.58854,-2.0573218,1.0250684,-1.8427513,-1.4724191,-1.9124588,8.890801922322897,3.036650939818366,walk
23/10/2020, 15:55:34,-8.58854,-2.0573218,1.0250684,-1.8451947,-1.3759025,-1.9759887,8.890801922322897,3.033542941200634,walk
23/10/2020, 15:55:34,-8.49274,-2.186653,0.9508228,-1.8451947,-1.3759025,-1.9759887,8.821119093938316,3.033542941200634,walk
23/10/2020, 15:55:34,-8.49274,-2.186653,0.9508228,-1.8097645,-1.2647251,-2.03341,8.821119093938316,3.001588518547327,walk
23/10/2020, 15:55:34,-8.435259,-2.3064039,0.9532178,-1.8097645,-1.2647251,-2.03341,8.796687737125513,3.001588518547327,walk
23/10/2020, 15:55:34,-8.435259,-2.3064039,0.9532178,-1.730352,-1.147439,-2.0737271,8.796687737125513,2.934463950283485,walk
23/10/2020, 15:55:34,-8.368198,-2.5147705,0.92926764,-1.730352,-1.147439,-2.0737271,8.787169819521521,2.934463950283485,walk
23/10/2020, 15:55:34,-8.368198,-2.5147705,0.92926764,-1.6045139,-1.0374833,-2.09694,8.787169819521521,2.8368986597883743,walk
23/10/2020, 15:55:34,-8.140672,-2.5698562,0.9915381,-1.6045139,-1.0374833,-2.09694,8.594058689173425,2.8368986597883743,walk
23/10/2020, 15:55:34,-8.140672,-2.5698562,0.9915381,-1.4236978,-0.92141896,-2.105492,8.594058689173425,2.703520938373641,walk
23/10/2020, 15:55:34,-8.064031,-2.6704469,1.1328443,-1.4236978,-0.92141896,-2.105492,8.569901577829546,2.703520938373641,walk
23/10/2020, 15:55:34,-8.064031,-2.6704469,1.1328443,-1.2123386,-0.81268495,-2.0932748,8.569901577829546,2.551866210248935,walk
23/10/2020, 15:55:34,-7.9466753,-2.7111623,1.3603711,-1.2123386,-0.81268495,-2.0932748,8.50591906089002,2.551866210248935,walk
23/10/2020, 15:55:34,-7.9466753,-2.7111623,1.3603711,-0.9850967,-0.7210552,-2.0480707,8.50591906089002,2.3843090353207357,walk
23/10/2020, 15:55:34,-7.8341093,-2.7279274,1.6190332,-0.9850967,-0.7210552,-2.0480707,8.451989430624439,2.3843090353207357,walk
23/10/2020, 15:55:34,-7.8341093,-2.7279274,1.6190332,-0.7407507,-0.66241217,-1.9698801,8.451989430624439,2.206338382613057,walk
23/10/2020, 15:55:34,-7.7071733,-2.6393116,1.9758912,-0.7407507,-0.66241217,-1.9698801,8.382758056833442,2.206338382613057,walk
23/10/2020, 15:55:34,-7.7071733,-2.6393116,1.9758912,-0.522061,-0.62453854,-1.8733634,8.382758056833442,2.042568579975004,walk
23/10/2020, 15:55:34,-7.592212,-2.4932153,1.9854712,-0.522061,-0.62453854,-1.8733634,8.2340697601961,2.042568579975004,walk
23/10/2020, 15:55:34,-7.592212,-2.4932153,1.9854712,-0.36690128,-0.6013257,-1.7487469,8.2340697601961,1.8852916900740133,walk
23/10/2020, 15:55:34,-7.551497,-2.3495142,2.0405567,-0.36690128,-0.6013257,-1.7487469,8.167569735869241,1.8852916900740133,walk
23/10/2020, 15:55:35,-10.071057,0.0,3.9182522,-0.29970613,0.1744729,0.4332629,10.806428460456852,0.554960638535505,walk
23/10/2020, 15:55:35,-9.764495,-0.20357667,3.8823268,-0.29970613,0.1744729,0.4332629,10.509960310869067,0.554960638535505,walk
23/10/2020, 15:55:35,-9.764495,-0.20357667,3.8823268,-0.19463736,0.15126003,0.44670194,10.509960310869067,0.510201847823513,walk
23/10/2020, 15:55:35,-9.577683,-0.32572266,3.9182522,-0.19463736,0.15126003,0.44670194,10.353299765531776,0.510201847823513,walk
23/10/2020, 15:55:35,-9.577683,-0.32572266,3.9182522,-0.08834685,0.13537754,0.4528106,10.353299765531776,0.4808010714069175,walk
23/10/2020, 15:55:35,-9.484278,-0.5245093,3.9493873,-0.08834685,0.13537754,0.4528106,10.287093570382746,0.4808010714069175,walk
23/10/2020, 15:55:35,-9.484278,-0.5245093,3.9493873,-0.0064909356,0.12316024,0.45036712,10.287093570382746,0.4669487371091183,walk
23/10/2020, 15:55:35,-9.541759,-0.66342044,3.9350173,-0.0064909356,0.12316024,0.45036712,10.342613025072573,0.4669487371091183,walk
23/10/2020, 15:55:35,-9.541759,-0.66342044,3.9350173,-3.8228463E-4,0.10972121,0.4540323,10.342613025072573,0.46710193964696595,walk
23/10/2020, 15:55:35,-9.438772,-0.6011499,4.033213,-3.8228463E-4,0.10972121,0.4540323,10.281955558940721,0.46710193964696595,walk
23/10/2020, 15:55:35,-9.438772,-0.6011499,4.033213,-0.061468784,0.09383872,0.46869308,10.281955558940721,0.48193082282589905,walk
23/10/2020, 15:55:35,-9.311836,-0.6586304,4.164939,-0.061468784,0.09383872,0.46869308,10.222074370657426,0.48193082282589905,walk
23/10/2020, 15:55:35,-9.311836,-0.6586304,4.164939,-0.18486351,0.076734506,0.48824075,10.222074370657426,0.5276757806473767,walk
23/10/2020, 15:55:35,-9.275911,-0.9316626,4.3349857,-0.18486351,0.076734506,0.48824075,10.281178315995717,0.5276757806473767,walk
23/10/2020, 15:55:35,-9.275911,-0.9316626,4.3349857,-0.2862671,0.027865298,0.5090102,10.281178315995717,0.584650928118457,walk
23/10/2020, 15:55:35,-9.24717,-1.4226416,4.380491,-0.2862671,0.027865298,0.5090102,10.330671323492252,0.584650928118457,walk
23/10/2020, 15:55:35,-9.24717,-1.4226416,4.380491,-0.3388015,-0.023447363,0.5224492,10.330671323492252,0.62312871795023,walk
23/10/2020, 15:55:35,-9.410032,-1.9639161,4.409231,-0.3388015,-0.023447363,0.5224492,10.575773887570096,0.62312871795023,walk
23/10/2020, 15:55:35,-9.410032,-1.9639161,4.409231,-0.354684,-0.061320994,0.5248926,10.575773887570096,0.6364536683268792,walk
23/10/2020, 15:55:35,-9.829161,-2.4932153,4.4475513,-0.354684,-0.061320994,0.5248926,11.072905429274574,0.6364536683268792,walk
23/10/2020, 15:55:35,-9.829161,-2.4932153,4.4475513,-0.3265842,-0.09552943,0.52000576,11.072905429274574,0.6214411462711873,walk
23/10/2020, 15:55:35,-10.545272,-2.9770093,4.3637257,-0.3265842,-0.09552943,0.52000576,11.79438192071362,0.6214411462711873,walk
23/10/2020, 15:55:35,-10.545272,-2.9770093,4.3637257,-0.27404982,-0.1346248,0.5016798,11.79438192071362,0.5872901650593183,walk
23/10/2020, 15:55:35,-11.211087,-3.3721876,4.368516,-0.27404982,-0.1346248,0.5016798,12.495761596674097,0.5872901650593183,walk
23/10/2020, 15:55:35,-11.211087,-3.3721876,4.368516,-0.19463736,-0.17738535,0.47358,12.495761596674097,0.5418738606880387,walk
23/10/2020, 15:55:35,-11.718831,-3.786526,4.3469605,-0.19463736,-0.17738535,0.47358,13.060047715262732,0.5418738606880387,walk
23/10/2020, 15:55:35,-11.718831,-3.786526,4.3469605,-0.060247052,-0.21525897,0.4332629,13.060047715262732,0.4875273170556655,walk
23/10/2020, 15:55:35,-12.145144,-4.2152348,4.4475513,-0.060247052,-0.21525897,0.4332629,13.603435235067238,0.4875273170556655,walk
23/10/2020, 15:55:35,-12.145144,-4.2152348,4.4475513,0.14744705,-0.25679782,0.37339813,13.603435235067238,0.47656260118557725,walk
23/10/2020, 15:55:35,-12.638518,-4.528982,4.648733,0.14744705,-0.25679782,0.37339813,14.207552389155108,0.47656260118557725,walk
23/10/2020, 15:55:36,-9.062755,-2.2537134,1.5352076,-1.8757379,0.19157712,0.7509127,9.464122141990895,2.0295231966206884,walk
23/10/2020, 15:55:36,-9.062755,-2.2537134,1.5352076,-1.9820285,0.18180329,0.7057087,9.464122141990895,2.1117561630522093,walk
23/10/2020, 15:55:36,-8.8879175,-2.440525,1.5399976,-1.9820285,0.18180329,0.7057087,9.344668688652707,2.1117561630522093,walk
23/10/2020, 15:55:36,-8.8879175,-2.440525,1.5399976,-2.0272324,0.17935982,0.659283,9.344668688652707,2.1392744646859287,walk
23/10/2020, 15:55:36,-8.523875,-2.5099807,1.590293,-2.0272324,0.17935982,0.659283,9.026931042088833,2.1392744646859287,walk
23/10/2020, 15:55:36,-8.523875,-2.5099807,1.590293,-2.0577755,0.18913366,0.61407894,9.026931042088833,2.1557607664335845,walk
23/10/2020, 15:55:36,-8.260423,-2.43813,1.5711329,-2.0577755,0.18913366,0.61407894,8.754856897429368,2.1557607664335845,walk
23/10/2020, 15:55:36,-8.260423,-2.43813,1.5711329,-2.0663278,0.19157712,0.5798705,8.754856897429368,2.154683790119616,walk
23/10/2020, 15:55:36,-8.164622,-2.4572902,1.7771046,-2.0663278,0.19157712,0.5798705,8.709617283332387,2.154683790119616,walk
23/10/2020, 15:55:36,-8.164622,-2.4572902,1.7771046,-2.0492234,0.18180329,0.54566205,8.709617283332387,2.1284069488922603,walk
23/10/2020, 15:55:36,-8.064031,-2.3686745,1.8274,-2.0492234,0.18180329,0.54566205,8.601081321163367,2.1284069488922603,walk
23/10/2020, 15:55:36,-8.064031,-2.3686745,1.8274,-2.04678,0.17202945,0.5065667,8.601081321163367,2.115540775551665,walk
23/10/2020, 15:55:36,-7.9826,-2.2776637,1.8513502,-2.04678,0.17202945,0.5065667,8.50512525664681,2.115540775551665,walk
23/10/2020, 15:55:36,-7.9826,-2.2776637,1.8513502,-2.0565538,0.18180329,0.47724518,8.50512525664681,2.119016068324596,walk
23/10/2020, 15:55:36,-7.790999,-2.1722827,1.8705103,-2.0565538,0.18180329,0.47724518,8.301643539533355,2.119016068324596,walk
23/10/2020, 15:55:36,-7.790999,-2.1722827,1.8705103,-2.0528886,0.19890751,0.44792366,8.301643539533355,2.1105808530851817,walk
23/10/2020, 15:55:36,-7.606582,-2.1674929,1.7435743,-2.0528886,0.19890751,0.44792366,8.099269643718008,2.1105808530851817,walk
23/10/2020, 15:55:36,-7.606582,-2.1674929,1.7435743,-2.043115,0.22456384,0.42715424,8.099269643718008,2.0993351712450328,walk
23/10/2020, 15:55:36,-7.462881,-2.1698878,1.7244141,-2.043115,0.22456384,0.42715424,7.960942855191007,2.0993351712450328,walk
23/10/2020, 15:55:36,-7.462881,-2.1698878,1.7244141,-2.0125716,0.25755054,0.42348906,7.960942855191007,2.072708277641605,walk
23/10/2020, 15:55:36,-7.4676714,-2.1507277,1.81782,-2.0125716,0.25755054,0.42348906,7.98099087113408,2.072708277641605,walk
23/10/2020, 15:55:36,-7.4676714,-2.1507277,1.81782,-1.9637024,0.29053724,0.4295977,7.98099087113408,2.031032582034164,walk
23/10/2020, 15:55:36,-7.4940166,-2.179468,2.0190015,-1.9637024,0.29053724,0.4295977,8.061434915798516,2.031032582034164,walk
23/10/2020, 15:55:36,-7.4940166,-2.179468,2.0190015,-1.8989508,0.31863704,0.44670194,8.061434915798516,1.976635118208768,walk
23/10/2020, 15:55:36,-7.680828,-2.1698878,2.2920337,-1.8989508,0.31863704,0.44670194,8.304032246737256,1.976635118208768,walk
23/10/2020, 15:55:36,-7.680828,-2.1698878,2.2920337,-1.8207601,0.3332978,0.4699148,8.304032246737256,1.9097315999944624,walk
23/10/2020, 15:55:36,-7.8341093,-2.1770728,2.5147705,-1.8207601,0.3332978,0.4699148,8.510992019024606,1.9097315999944624,walk
23/10/2020, 15:55:36,-7.8341093,-2.1770728,2.5147705,-1.7340173,0.34307164,0.4906842,8.510992019024606,1.834471307614431,walk
23/10/2020, 15:55:36,-7.9802055,-2.1818628,2.672842,-1.7340173,0.34307164,0.4906842,8.694152650114008,1.834471307614431,walk
23/10/2020, 15:55:36,-7.9802055,-2.1818628,2.672842,-1.6558266,0.34673682,0.51511884,8.694152650114008,1.768427398349293,walk
23/10/2020, 15:55:37,-9.867481,-3.4248781,4.5601172,-1.0681744,0.41271025,2.9732397,11.397001591782303,3.1861387752835015,walk
23/10/2020, 15:55:37,-10.676997,-3.5901344,4.8834453,-1.0681744,0.41271025,2.9732397,12.277433420778905,3.1861387752835015,walk
23/10/2020, 15:55:37,-10.676997,-3.5901344,4.8834453,-0.82260656,0.4151537,3.161386,12.277433420778905,3.2929311694035177,walk
23/10/2020, 15:55:37,-11.512859,-3.7242556,4.9864306,-0.82260656,0.4151537,3.161386,13.087417635000921,3.2929311694035177,walk
23/10/2020, 15:55:37,-11.512859,-3.7242556,4.9864306,-0.5868127,0.40782332,3.320211,13.087417635000921,3.3962434576260248,walk
23/10/2020, 15:55:37,-11.989469,-3.8775368,5.0822315,-0.5868127,0.40782332,3.320211,13.587189752482313,3.3962434576260248,walk
23/10/2020, 15:55:37,-11.989469,-3.8775368,5.0822315,-0.35957092,0.39682776,3.4289448,13.587189752482313,3.4705080516363758,walk
23/10/2020, 15:55:37,-12.17628,-4.026028,5.0343313,-0.35957092,0.39682776,3.4289448,13.777343348339548,3.4705080516363758,walk
23/10/2020, 15:55:37,-12.17628,-4.026028,5.0343313,-0.17142448,0.38461044,3.4985836,13.777343348339548,3.5238329186405584,walk
23/10/2020, 15:55:37,-12.240946,-4.0116577,4.9073954,-0.17142448,0.38461044,3.4985836,13.784653834596446,3.5238329186405584,walk
23/10/2020, 15:55:37,-12.240946,-4.0116577,4.9073954,-0.010156126,0.3662845,3.5303485,13.784653834596446,3.5493137764281912,walk
23/10/2020, 15:55:37,-12.250525,-4.006868,4.727769,-0.010156126,0.3662845,3.5303485,13.728880632015132,3.5493137764281912,walk
23/10/2020, 15:55:37,-12.250525,-4.006868,4.727769,0.13889495,0.35162374,3.5315702,13.728880632015132,3.5517487401820462,walk
23/10/2020, 15:55:37,-12.379856,-3.9781277,4.495452,0.13889495,0.35162374,3.5315702,13.758467409744508,3.5517487401820462,walk
23/10/2020, 15:55:37,-12.379856,-3.9781277,4.495452,0.29405466,0.34307164,3.5083573,13.758467409744508,3.5373347510092987,walk
23/10/2020, 15:55:37,-12.561878,-3.9972878,4.29427,0.29405466,0.34307164,3.5083573,13.864337291898442,3.5373347510092987,walk
23/10/2020, 15:55:37,-12.561878,-3.9972878,4.29427,0.47609243,0.33940643,3.4607098,13.864337291898442,3.5097539965064657,walk
23/10/2020, 15:55:37,-12.693604,-3.9014869,4.0882983,0.47609243,0.33940643,3.4607098,13.894724805036985,3.5097539965064657,walk
23/10/2020, 15:55:37,-12.693604,-3.9014869,4.0882983,0.6495781,0.33085433,3.3800757,13.894724805036985,3.4577923560384436,walk
23/10/2020, 15:55:37,-12.854071,-3.8104763,3.9278321,0.6495781,0.33085433,3.3800757,13.970494890747439,3.4577923560384436,walk
23/10/2020, 15:55:37,-12.854071,-3.8104763,3.9278321,0.80962473,0.32474568,3.2823374,13.970494890747439,3.3962760416901063,walk
23/10/2020, 15:55:37,-12.84449,-3.6068995,3.7985013,0.80962473,0.32474568,3.2823374,13.871526968921161,3.3962760416901063,walk
23/10/2020, 15:55:37,-12.84449,-3.6068995,3.7985013,0.9427933,0.31985876,3.1662729,13.871526968921161,3.3191042154424184,walk
23/10/2020, 15:55:37,-12.827725,-3.4967287,3.7386258,0.9427933,0.31985876,3.1662729,13.811407355088082,3.3191042154424184,walk
23/10/2020, 15:55:37,-12.827725,-3.4967287,3.7386258,1.0454186,0.3088632,3.0196655,13.811407355088082,3.2104012478484387,walk
23/10/2020, 15:55:37,-13.012141,-3.412903,3.5949244,1.0454186,0.3088632,3.0196655,13.924338709580077,3.2104012478484387,walk
23/10/2020, 15:55:37,-13.012141,-3.412903,3.5949244,1.1468221,0.2929807,2.8559535,13.924338709580077,3.091522075831591,walk
23/10/2020, 15:55:37,-13.323494,-3.4248781,3.5015187,1.1468221,0.2929807,2.8559535,14.19527790382348,3.091522075831591,walk
23/10/2020, 15:55:37,-13.323494,-3.4248781,3.5015187,1.2286781,0.28809378,2.7007937,14.19527790382348,2.981096234223487,walk
23/10/2020, 15:55:37,-13.438456,-3.4057178,3.3434474,1.2286781,0.28809378,2.7007937,14.260772886559538,2.981096234223487,walk
23/10/2020, 15:55:38,-11.54639,-1.5184424,1.4897022,0.44310573,-1.3306985,-1.8183855,11.740698120007279,2.2964378759068373,walk
23/10/2020, 15:55:38,-11.764337,-1.3986914,1.468147,0.44310573,-1.3306985,-1.8183855,11.937814235219012,2.2964378759068373,walk
23/10/2020, 15:55:38,-11.764337,-1.3986914,1.468147,0.2146422,-1.3526896,-1.7719598,11.937814235219012,2.239571824899914,walk
23/10/2020, 15:55:38,-11.678116,-1.5974782,1.9950514,0.2146422,-1.3526896,-1.7719598,11.954520322936096,2.239571824899914,walk
23/10/2020, 15:55:38,-11.678116,-1.5974782,1.9950514,0.053373836,-1.3807894,-1.7768468,11.954520322936096,2.250913717290304,walk
23/10/2020, 15:55:38,-11.484119,-1.5926881,1.6405884,0.053373836,-1.3807894,-1.7768468,11.709533909746908,2.250913717290304,walk
23/10/2020, 15:55:38,-11.484119,-1.5926881,1.6405884,-0.18975043,-1.4027805,-1.7414166,11.709533909746908,2.2441769388048565,walk
23/10/2020, 15:55:38,-10.837463,-1.3939015,1.7531544,-0.18975043,-1.4027805,-1.7414166,11.066486530489179,2.2441769388048565,walk
23/10/2020, 15:55:38,-10.837463,-1.3939015,1.7531544,-0.45364413,-1.4333239,-1.7401948,11.066486530489179,2.299671327619857,walk
23/10/2020, 15:55:38,-10.360855,-1.4274317,1.710044,-0.45364413,-1.4333239,-1.7401948,10.597600213896396,2.299671327619857,walk
23/10/2020, 15:55:38,-10.360855,-1.4274317,1.710044,-0.73830724,-1.4528716,-1.7499686,10.597600213896396,2.3913016578572073,walk
23/10/2020, 15:55:38,-9.82437,-1.5543678,1.6573536,-0.73830724,-1.4528716,-1.7499686,10.083706348887974,2.3913016578572073,walk
23/10/2020, 15:55:38,-9.82437,-1.5543678,1.6573536,-1.0180835,-1.4602019,-1.7719598,10.083706348887974,2.5116776974407062,walk
23/10/2020, 15:55:38,-9.364527,-1.6693287,1.6190332,-1.0180835,-1.4602019,-1.7719598,9.648952692354628,2.5116776974407062,walk
23/10/2020, 15:55:38,-9.364527,-1.6693287,1.6190332,-1.2502122,-1.4565367,-1.8061682,9.648952692354628,2.6356731782705562,walk
23/10/2020, 15:55:38,-9.017249,-1.7651294,1.7148341,-1.2502122,-1.4565367,-1.8061682,9.34703800136254,2.6356731782705562,walk
23/10/2020, 15:55:38,-9.017249,-1.7651294,1.7148341,-1.4395803,-1.4443194,-1.8550375,9.34703800136254,2.756739719381502,walk
23/10/2020, 15:55:38,-8.868757,-1.8609302,1.8130299,-1.4395803,-1.4443194,-1.8550375,9.241482224902962,2.756739719381502,walk
23/10/2020, 15:55:38,-8.868757,-1.8609302,1.8130299,-1.5922966,-1.4296587,-1.897798,9.241482224902962,2.860239387204874,walk
23/10/2020, 15:55:38,-8.701106,-1.8681153,1.9351759,-1.5922966,-1.4296587,-1.897798,9.10736006812144,2.860239387204874,walk
23/10/2020, 15:55:38,-8.701106,-1.8681153,1.9351759,-1.6912566,-1.4198848,-1.9295629,9.10736006812144,2.932513421051082,walk
23/10/2020, 15:55:38,-8.552615,-1.8250049,2.090852,-1.6912566,-1.4198848,-1.9295629,8.991636745615178,2.932513421051082,walk
23/10/2020, 15:55:38,-8.552615,-1.8250049,2.090852,-1.7608953,-1.4064457,-1.9442238,8.991636745615178,2.976381653710132,walk
23/10/2020, 15:55:38,-8.327483,-1.7914747,2.1124072,-1.7608953,-1.4064457,-1.9442238,8.776025403176476,2.976381653710132,walk
23/10/2020, 15:55:38,-8.327483,-1.7914747,2.1124072,-1.8109863,-1.3881198,-1.9381151,8.776025403176476,2.9937999518674006,walk
23/10/2020, 15:55:38,-8.217313,-1.7579445,2.074087,-1.8109863,-1.3881198,-1.9381151,8.65542807098117,2.9937999518674006,walk
23/10/2020, 15:55:38,-8.217313,-1.7579445,2.074087,-1.8060993,-1.3697939,-1.9185674,8.65542807098117,2.9697189956927725,walk
23/10/2020, 15:55:38,-8.061636,-1.9064356,2.2297633,-1.8060993,-1.3697939,-1.9185674,8.578829494660527,2.9697189956927725,walk
23/10/2020, 15:55:38,-8.061636,-1.9064356,2.2297633,-1.7389041,-1.3404723,-1.8733634,8.578829494660527,2.886198878562703,walk
23/10/2020, 15:55:38,-7.9227247,-1.9806812,2.2225783,-1.7389041,-1.3404723,-1.8733634,8.463599661630218,2.886198878562703,walk
23/10/2020, 15:56:00,-7.414981,-2.320774,2.2848487,-1.1084914,-1.0594745,-1.3492413,8.098670720187286,2.0424718719041772,walk
23/10/2020, 15:56:00,-7.414981,-2.320774,2.2848487,-0.9130146,-0.97884023,-1.1989684,8.098670720187286,1.7970111551794026,walk
23/10/2020, 15:56:00,-7.2976246,-2.1411476,2.1818628,-0.9130146,-0.97884023,-1.1989684,7.912039126816629,1.7970111551794026,walk
23/10/2020, 15:56:00,-7.2976246,-2.1411476,2.1818628,-0.75907665,-0.9067582,-1.0401435,7.912039126816629,1.574898809818045,walk
23/10/2020, 15:56:00,-7.0293827,-1.8010547,2.078877,-0.75907665,-0.9067582,-1.0401435,7.548360668316816,1.574898809818045,walk
23/10/2020, 15:56:00,-7.0293827,-1.8010547,2.078877,-0.6686686,-0.82978916,-0.86421436,7.548360668316816,1.372054753948129,walk
23/10/2020, 15:56:00,-6.8186207,-1.5807129,2.088457,-0.6686686,-0.82978916,-0.86421436,7.3043750184238965,1.372054753948129,walk
23/10/2020, 15:56:00,-6.8186207,-1.5807129,2.088457,-0.6234646,-0.7418246,-0.6699593,7.3043750184238965,1.1780735705824696,walk
23/10/2020, 15:56:00,-6.6365995,-1.3651612,2.2225783,-0.6234646,-0.7418246,-0.6699593,7.1307764482481035,1.1780735705824696,walk
23/10/2020, 15:56:00,-6.6365995,-1.3651612,2.2225783,-0.62102115,-0.65752524,-0.47081733,7.1307764482481035,1.019644874248998,walk
23/10/2020, 15:56:00,-6.662945,-1.1328443,2.4189699,-0.62102115,-0.65752524,-0.47081733,7.1784110238606775,1.019644874248998,walk
23/10/2020, 15:56:00,-6.662945,-1.1328443,2.4189699,-0.63812536,-0.5829997,-0.24357553,7.1784110238606775,0.8980098387927381,walk
23/10/2020, 15:56:00,-6.706055,-0.92208254,2.5938063,-0.63812536,-0.5829997,-0.24357553,7.249085668795611,0.8980098387927381,walk
23/10/2020, 15:56:00,-6.706055,-0.92208254,2.5938063,-0.6601165,-0.50603074,-0.005338166,7.249085668795611,0.8317748429902346,walk
23/10/2020, 15:56:00,-6.6461797,-0.8334668,2.7015822,-0.6601165,-0.50603074,-0.005338166,7.2225284760349835,0.8317748429902346,walk
23/10/2020, 15:56:00,-6.6461797,-0.8334668,2.7015822,-0.70287704,-0.41684443,0.22312534,7.2225284760349835,0.8471011353132999,walk
23/10/2020, 15:56:00,-6.6198344,-0.82388675,2.8404932,-0.70287704,-0.41684443,0.22312534,7.250475763764059,0.8471011353132999,walk
23/10/2020, 15:56:00,-6.6198344,-0.82388675,2.8404932,-0.7505245,-0.31544086,0.43081945,7.250475763764059,0.9210838152819236,walk
23/10/2020, 15:56:00,-6.6916847,-0.9508228,3.051255,-0.7505245,-0.31544086,0.43081945,7.4157174549633,0.9210838152819236,walk
23/10/2020, 15:56:00,-6.6916847,-0.9508228,3.051255,-0.7945068,-0.21892416,0.6226311,7.4157174549633,1.0328786373844583,walk
23/10/2020, 15:56:00,-6.962322,-1.1424243,3.3099172,-0.7945068,-0.21892416,0.6226311,7.793241702703519,1.0328786373844583,walk
23/10/2020, 15:56:00,-6.962322,-1.1424243,3.3099172,-0.8274935,-0.121185765,0.8107775,7.793241702703519,1.1648139741307242,walk
23/10/2020, 15:56:00,-6.962322,-1.1424243,3.3099172,-0.11033799,0.6998168,1.1027709,7.793241702703519,1.3107332945071475,walk
23/10/2020, 15:56:00,-6.962322,-1.1424243,3.3099172,-0.048029754,0.6790474,1.161414,7.793241702703519,1.3462149825059337,walk
23/10/2020, 15:56:00,-6.962322,-1.1424243,3.3099172,0.032604426,0.68149084,1.2115049,7.793241702703519,1.3904089405936135,walk
23/10/2020, 15:56:00,-6.962322,-1.1424243,3.3099172,0.14011668,0.6998168,1.2347178,7.793241702703519,1.4261502122403502,walk
23/10/2020, 15:56:00,-6.962322,-1.1424243,3.3099172,0.2671766,0.71447754,1.2371613,7.793241702703519,1.4534199386568296,walk
23/10/2020, 15:56:00,-6.962322,-1.1424243,3.3099172,0.42722324,0.70470375,1.2225004,7.793241702703519,1.474325065872279,walk
23/10/2020, 15:56:00,-6.962322,-1.1424243,3.3099172,0.6165914,0.70470375,1.220057,7.793241702703519,1.537963403040533,walk
23/10/2020, 15:56:00,-6.962322,-1.1424243,3.3099172,0.821842,0.71447754,1.220057,7.793241702703519,1.6353719944819796,walk
23/10/2020, 15:56:01,-8.612491,-0.0047900393,4.167334,-0.13477258,0.2477767,-0.08841581,9.567742238467405,0.29559143882957484,walk
23/10/2020, 15:56:01,-8.612491,-0.0047900393,4.167334,-0.3143669,0.22822903,-0.077420235,9.567742238467405,0.39611732536723954,walk
23/10/2020, 15:56:01,-8.612491,-0.0047900393,4.167334,-0.5379435,0.19890751,-0.0676464,9.567742238467405,0.5775148681084095,walk
23/10/2020, 15:56:01,-8.612491,-0.0047900393,4.167334,-0.7297551,0.16103387,-0.06031602,9.567742238467405,0.7497415822997519,walk
23/10/2020, 15:56:01,-8.612491,-0.0047900393,4.167334,-0.8812496,0.12193851,-0.040768337,9.567742238467405,0.890579545606807,walk
23/10/2020, 15:56:01,-8.612491,-0.0047900393,4.167334,-0.9948705,0.08162142,-0.013890276,9.567742238467405,0.9983097095581307,walk
23/10/2020, 15:56:01,-8.612491,-0.0047900393,4.167334,-1.0669527,0.041304328,0.017874705,9.567742238467405,1.067901506725259,walk
23/10/2020, 15:56:01,-8.612491,-0.0047900393,4.167334,-1.106048,0.011982808,0.047196224,9.567742238467405,1.107119335436627,walk
23/10/2020, 15:56:01,-8.612491,-0.0047900393,4.167334,-1.106048,-0.013673522,0.06552218,9.567742238467405,1.1080714204218898,walk
23/10/2020, 15:56:01,-8.612491,-0.0047900393,4.167334,-1.0901655,-0.03444293,0.07285256,9.567742238467405,1.0931397986189277,walk
23/10/2020, 15:56:01,-8.612491,-0.0047900393,4.167334,-1.0657309,-0.050325423,0.07163083,9.567742238467405,1.0693203624760883,walk
23/10/2020, 15:56:01,-8.612491,-0.0047900393,4.167334,-1.0388528,-0.06254272,0.058191795,9.567742238467405,1.0423593620502314,walk
23/10/2020, 15:56:01,-8.612491,-0.0047900393,4.167334,-0.99731404,-0.07231656,0.039865844,9.567742238467405,1.0007268639058877,walk
23/10/2020, 15:56:01,-8.612491,-0.0047900393,4.167334,-0.9533317,-0.07109483,0.011766055,9.567742238467405,0.9560513911793898,walk
23/10/2020, 15:56:01,-8.612491,-0.0047900393,4.167334,-0.90324074,-0.06376445,-0.017555466,9.567742238467405,0.905658840169977,walk
23/10/2020, 15:56:01,-8.612491,-0.0047900393,4.167334,-0.85437155,-0.053990614,-0.046876986,9.567742238467405,0.8573582563076858,walk
23/10/2020, 15:56:01,-8.612491,-0.0047900393,4.167334,-0.7957285,-0.042995043,-0.0798637,9.567742238467405,0.800881162845541,walk
23/10/2020, 15:56:01,-8.612491,-0.0047900393,4.167334,-0.7273117,-0.025890823,-0.120180786,9.567742238467405,0.7376286480560906,walk
23/10/2020, 15:56:01,-8.612491,-0.0047900393,4.167334,-0.65278614,9.872383E-4,-0.16782826,9.567742238467405,0.6740156074181717,walk
23/10/2020, 15:56:01,-8.612491,-0.0047900393,4.167334,-0.5709302,0.026643569,-0.20814535,9.567742238467405,0.6082726694111208,walk
23/10/2020, 15:56:01,-8.612491,-0.0047900393,4.167334,-0.4817439,0.0400826,-0.23991033,9.567742238467405,0.5396672775246087,walk
23/10/2020, 15:56:01,-8.612491,-0.0047900393,4.167334,-0.39011416,0.04252606,-0.26923186,9.567742238467405,0.4759026312957581,walk
23/10/2020, 15:56:01,-8.612491,-0.0047900393,4.167334,-0.29237574,0.041304328,-0.29855338,9.567742238467405,0.4199092067904944,walk
23/10/2020, 15:56:01,-8.612491,-0.0047900393,4.167334,-0.20196773,0.03519568,-0.32420972,9.567742238467405,0.38359046217473053,walk
23/10/2020, 15:56:01,-8.612491,-0.0047900393,4.167334,-0.124998756,0.024200108,-0.34620085,9.567742238467405,0.3688703907690369,walk
23/10/2020, 15:56:01,-8.859178,-0.2778223,4.054768,-0.124998756,0.024200108,-0.34620085,9.746966554286626,0.3688703907690369,walk
23/10/2020, 15:56:01,-9.057964,-0.49097902,3.9134622,-0.124998756,0.024200108,-0.34620085,9.879421248211656,0.3688703907690369,walk
23/10/2020, 15:56:01,-9.287886,-0.7496411,3.8464015,-0.124998756,0.024200108,-0.34620085,10.080753250126532,0.3688703907690369,walk
23/10/2020, 15:56:01,-9.474698,-0.9436377,3.6955154,-0.124998756,0.024200108,-0.34620085,10.213578689529133,0.3688703907690369,walk
23/10/2020, 15:56:01,-9.635164,-1.1735597,3.6763551,-0.124998756,0.024200108,-0.34620085,10.379268741919041,0.3688703907690369,walk
23/10/2020, 15:56:02,-8.396939,-1.9232007,3.8080812,-0.9350057,0.45669252,2.2964013,9.418533448067807,2.5211629294906768,walk
23/10/2020, 15:56:02,-8.899893,-2.2441335,3.9661524,-0.9350057,0.45669252,2.2964013,9.998729524945567,2.5211629294906768,walk
23/10/2020, 15:56:02,-9.465117,-2.5051906,3.9948928,-0.9350057,0.45669252,2.2964013,10.574667710758572,2.5211629294906768,walk
23/10/2020, 15:56:02,-9.960887,-2.7087672,4.023633,-0.9350057,0.45669252,2.2964013,11.079093423752028,2.5211629294906768,walk
23/10/2020, 15:56:02,-10.365645,-2.8979738,3.9613624,-0.9350057,0.45669252,2.2964013,11.468968938199907,2.5211629294906768,walk
23/10/2020, 15:56:02,-10.739268,-3.0368848,3.8224514,-0.9350057,0.45669252,2.2964013,11.79685073331827,2.5211629294906768,walk
23/10/2020, 15:56:02,-11.05541,-3.1614258,3.779341,-0.9350057,0.45669252,2.2964013,12.103723820257093,2.5211629294906768,walk
23/10/2020, 15:56:02,-11.417059,-3.276387,3.7290456,-0.9350057,0.45669252,2.2964013,12.449487052557428,2.5211629294906768,walk
23/10/2020, 15:56:02,-11.5823145,-3.3530276,3.6763551,-0.9350057,0.45669252,2.2964013,12.605887114191647,2.5211629294906768,walk
23/10/2020, 15:56:02,-11.682906,-3.2620168,3.6308498,-0.9350057,0.45669252,2.2964013,12.66152123978717,2.5211629294906768,walk
23/10/2020, 15:56:02,-11.7930765,-3.0416749,3.3889527,-0.9350057,0.45669252,2.2964013,12.641734067016703,2.5211629294906768,walk
23/10/2020, 15:56:02,-11.936778,-2.823728,3.1446607,-0.9350057,0.45669252,2.2964013,12.662898639028688,2.5211629294906768,walk
23/10/2020, 15:56:02,-12.2361555,-2.6201515,2.7590625,-0.9350057,0.45669252,2.2964013,12.814098551478798,2.5211629294906768,walk
23/10/2020, 15:56:02,-12.674444,-2.3423293,2.42376,-0.9350057,0.45669252,2.2964013,13.114978244616255,2.5211629294906768,walk
23/10/2020, 15:56:02,-13.210928,-2.203418,2.1291726,-0.9350057,0.45669252,2.2964013,13.561601837942757,2.5211629294906768,walk
23/10/2020, 15:56:02,-13.785733,-2.196233,1.8992506,-0.9350057,0.45669252,2.2964013,14.088187710894092,2.5211629294906768,walk
23/10/2020, 15:56:02,-14.413228,-2.3998096,1.7315992,-0.9350057,0.45669252,2.2964013,14.713893581549128,2.5211629294906768,walk
23/10/2020, 15:56:02,-14.894628,-2.5243506,1.695674,-0.9350057,0.45669252,2.2964013,15.201894183655495,2.5211629294906768,walk
23/10/2020, 15:56:02,-14.894628,-2.5243506,1.695674,-0.82016313,0.49456614,2.4552262,15.201894183655495,2.6354124610403105,walk
23/10/2020, 15:56:02,-14.894628,-2.5243506,1.695674,-0.71875954,0.51900077,2.5847294,15.201894183655495,2.7325452076142405,walk
23/10/2020, 15:56:02,-14.894628,-2.5243506,1.695674,-0.630795,0.5251094,2.672694,15.201894183655495,2.795878265038665,walk
23/10/2020, 15:56:02,-14.894628,-2.5243506,1.695674,-0.53305656,0.5092269,2.7252285,15.201894183655495,2.8231776399117487,walk
23/10/2020, 15:56:02,-14.894628,-2.5243506,1.695674,-0.42187914,0.48357058,2.741111,15.201894183655495,2.8152286313609682,walk
23/10/2020, 15:56:02,-14.894628,-2.5243506,1.695674,-0.3021496,0.45669252,2.7252285,15.201894183655495,2.7797001764691363,walk
23/10/2020, 15:56:02,-14.894628,-2.5243506,1.695674,-0.1921939,0.43470138,2.6800244,15.201894183655495,2.7218439508167105,walk
23/10/2020, 15:56:02,-14.894628,-2.5243506,1.695674,-0.11155972,0.4151537,2.614051,15.201894183655495,2.6491623860524687,walk
23/10/2020, 15:56:02,-14.894628,-2.5243506,1.695674,-0.06391225,0.4029364,2.532195,15.201894183655495,2.56484980017869,walk
23/10/2020, 15:56:02,-14.894628,-2.5243506,1.695674,-0.06391225,0.4102668,2.4564478,15.201894183655495,2.4912927570688645,walk
23/10/2020, 15:56:02,-14.894628,-2.5243506,1.695674,-0.10545107,0.42370582,2.3916962,15.201894183655495,2.4312254790848313,walk
23/10/2020, 15:56:02,-14.894628,-2.5243506,1.695674,-0.13355085,0.4518056,2.333053,15.201894183655495,2.3801472530816863,walk
23/10/2020, 15:56:03,-10.190808,-3.4943337,6.686895,-0.33147112,0.6509476,0.930507,12.679806992357753,1.1829831466348548,walk
23/10/2020, 15:56:03,-10.336905,-3.4799635,7.0150127,-0.33147112,0.6509476,0.930507,12.968120341019183,1.1829831466348548,walk
23/10/2020, 15:56:03,-10.336905,-3.4799635,7.0150127,-0.25572386,0.6069653,0.85353804,12.968120341019183,1.078113516093928,walk
23/10/2020, 15:56:03,-10.425521,-2.7327175,7.077283,-0.25572386,0.6069653,0.85353804,12.89368699438088,1.078113516093928,walk
23/10/2020, 15:56:03,-10.425521,-2.7327175,7.077283,-0.3717882,0.5422136,0.78756464,12.89368699438088,1.0259045430862506,walk
23/10/2020, 15:56:03,-10.466236,-1.83219,6.8761015,-0.3717882,0.5422136,0.78756464,12.656215488402676,1.0259045430862506,walk
23/10/2020, 15:56:03,-10.466236,-1.83219,6.8761015,-0.6588948,0.44936216,0.7264781,12.656215488402676,1.078813749825337,walk
23/10/2020, 15:56:03,-10.459051,-1.223855,6.4186525,-0.6588948,0.44936216,0.7264781,12.332423608158248,1.078813749825337,walk
23/10/2020, 15:56:03,-10.459051,-1.223855,6.4186525,-1.042518,0.33451954,0.62140936,12.332423608158248,1.2589268165035217,walk
23/10/2020, 15:56:03,-10.370435,-1.0873389,6.1408305,-1.042518,0.33451954,0.62140936,12.101157899388008,1.2589268165035217,walk
23/10/2020, 15:56:03,-10.370435,-1.0873389,6.1408305,-1.395598,0.22945076,0.518784,12.101157899388008,1.5064788100621653,walk
23/10/2020, 15:56:03,-10.197993,-1.334026,5.985154,-1.395598,0.22945076,0.518784,11.899611861038299,1.5064788100621653,walk
23/10/2020, 15:56:03,-10.197993,-1.334026,5.985154,-1.6118443,0.13904274,0.41860214,11.899611861038299,1.671108220356794,walk
23/10/2020, 15:56:03,-10.042317,-1.81782,5.9204884,-1.6118443,0.13904274,0.41860214,11.798507971077614,1.671108220356794,walk
23/10/2020, 15:56:03,-10.042317,-1.81782,5.9204884,-1.6704873,0.06573893,0.32452893,11.798507971077614,1.702988080808568,walk
23/10/2020, 15:56:03,-10.169253,-2.3806496,5.9204884,-1.6704873,0.06573893,0.32452893,12.00555656491363,1.702988080808568,walk
23/10/2020, 15:56:03,-10.169253,-2.3806496,5.9204884,-1.5727489,0.018091459,0.23534264,12.00555656491363,1.5903623984129005,walk
23/10/2020, 15:56:03,-10.442286,-2.6177564,5.728887,-1.5727489,0.018091459,0.23534264,12.194840008599904,1.5903623984129005,walk
23/10/2020, 15:56:03,-10.442286,-2.6177564,5.728887,-1.3907111,-0.028334282,0.1192783,12.194840008599904,1.396104373385739,walk
23/10/2020, 15:56:03,-11.000325,-3.0225148,5.633086,-1.3907111,-0.028334282,0.1192783,12.722987487058562,1.396104373385739,walk
23/10/2020, 15:56:03,-11.000325,-3.0225148,5.633086,-1.1414782,-0.07720348,0.025205085,12.722987487058562,1.1443636272806328,walk
23/10/2020, 15:56:03,-11.726016,-3.439248,5.50136,-1.1414782,-0.07720348,0.025205085,13.401225348963369,1.1443636272806328,walk
23/10/2020, 15:56:03,-11.726016,-3.439248,5.50136,-0.7774026,-0.12362922,-0.06520294,13.401225348963369,0.7898673166952557,walk
23/10/2020, 15:56:03,-12.384646,-4.0356083,5.513335,-0.7774026,-0.12362922,-0.06520294,14.144343974237346,0.7898673166952557,walk
23/10/2020, 15:56:03,-12.384646,-4.0356083,5.513335,-0.2789367,-0.18105054,-0.18371075,14.144343974237346,0.37991397600446475,walk
23/10/2020, 15:56:03,-12.882811,-4.646338,5.5564456,-0.2789367,-0.18105054,-0.18371075,14.77935564009586,0.37991397600446475,walk
23/10/2020, 15:56:03,-12.882811,-4.646338,5.5564456,0.27206352,-0.25679782,-0.32665318,14.77935564009586,0.49665479259120576,walk
23/10/2020, 15:56:03,-12.945081,-4.88105,5.53489,0.27206352,-0.25679782,-0.32665318,14.900831360421693,0.49665479259120576,walk
23/10/2020, 15:56:03,-12.945081,-4.88105,5.53489,0.7754163,-0.34109718,-0.49158671,14.900831360421693,0.9794259761844593,walk
23/10/2020, 15:56:03,-12.545113,-4.742139,5.381609,0.7754163,-0.34109718,-0.49158671,14.450932371899194,0.9794259761844593,walk
23/10/2020, 15:56:04,-10.921289,-3.0704153,2.3662794,1.2543344,-0.11752057,-0.76281077,11.58884338511736,1.4727682309903,walk
23/10/2020, 15:56:04,-11.371553,-3.2045362,2.6608667,1.2543344,-0.11752057,-0.76281077,12.110387741748616,1.4727682309903,walk
23/10/2020, 15:56:04,-11.371553,-3.2045362,2.6608667,1.2799907,-0.08453386,-0.7567021,12.110387741748616,1.489335490471446,walk
23/10/2020, 15:56:04,-11.596685,-3.3889527,2.936294,1.2799907,-0.08453386,-0.7567021,12.433420125839996,1.489335490471446,walk
23/10/2020, 15:56:04,-11.596685,-3.3889527,2.936294,1.3520728,-0.057655804,-0.74448484,12.433420125839996,1.5445655772687898,walk
23/10/2020, 15:56:04,-11.939173,-3.7601807,3.163821,1.3520728,-0.057655804,-0.74448484,12.910947603487738,1.5445655772687898,walk
23/10/2020, 15:56:04,-11.939173,-3.7601807,3.163821,1.4889065,-0.036886394,-0.7395979,12.910947603487738,1.6628915352964595,walk
23/10/2020, 15:56:04,-12.676839,-4.2439747,3.3506324,1.4889065,-0.036886394,-0.7395979,13.781883132059924,1.6628915352964595,walk
23/10/2020, 15:56:04,-12.676839,-4.2439747,3.3506324,1.6953789,-0.028334282,-0.7395979,13.781883132059924,1.8498966249282605,walk
23/10/2020, 15:56:04,-13.876743,-4.646338,3.5566041,1.6953789,-0.028334282,-0.7395979,15.059943386826925,1.8498966249282605,walk
23/10/2020, 15:56:04,-13.876743,-4.646338,3.5566041,1.9543858,-0.049103692,-0.73226756,15.059943386826925,2.087642363728744,walk
23/10/2020, 15:56:04,-14.715,-4.7062135,3.788921,1.9543858,-0.049103692,-0.73226756,15.907092694545904,2.087642363728744,walk
23/10/2020, 15:56:04,-14.715,-4.7062135,3.788921,2.198732,-0.10285981,-0.7041677,15.907092694545904,2.3110288376349977,walk
