DATE,TIME,ax,ay,az,gx,gy,gz,ma,mg,label
23/10/2020, 15:50:22,0.5939649,3.3434474,9.251961,-0.050473217,0.024200108,0.0142095145,9.855466143362008,0.05775033463722534,stand
23/10/2020, 15:50:22,0.58198977,3.2500417,9.254355,-0.050473217,0.024200108,0.0142095145,9.82571003671316,0.05775033463722534,stand
23/10/2020, 15:50:22,0.58198977,3.2500417,9.254355,-0.032147266,0.033973947,0.0142095145,9.82571003671316,0.04888339285882288,stand
23/10/2020, 15:50:22,0.50774413,3.1255007,9.254355,-0.032147266,0.033973947,0.0142095145,9.781086495657709,0.04888339285882288,stand
23/10/2020, 15:50:22,0.50774413,3.1255007,9.254355,-0.060247052,0.068182394,0.006879134,9.781086495657709,0.09124619803223331,stand
23/10/2020, 15:50:22,0.7951465,3.1159205,9.884246,-0.060247052,0.068182394,0.006879134,10.394206814304024,0.09124619803223331,stand
23/10/2020, 15:50:22,0.7951465,3.1159205,9.884246,-0.10545107,0.04252606,-0.0016729758,10.394206814304024,0.11371540197263227,stand
23/10/2020, 15:50:22,1.7651294,3.1063404,11.833792,-0.10545107,0.04252606,-0.0016729758,12.361377733570206,0.11371540197263227,stand
23/10/2020, 15:50:22,1.7651294,3.1063404,11.833792,0.066812865,0.23800287,0.011766055,12.361377733570206,0.24748285495275427,stand
23/10/2020, 15:50:22,-0.8262818,3.3793726,4.9361353,0.066812865,0.23800287,0.011766055,6.038901585460136,0.24748285495275427,stand
23/10/2020, 15:50:22,-0.8262818,3.3793726,4.9361353,0.22808124,0.13537754,-0.021220656,6.038901585460136,0.26607977659550847,stand
23/10/2020, 15:50:22,-2.5339308,2.4956105,9.992022,0.22808124,0.13537754,-0.021220656,10.60610068332117,0.26607977659550847,stand
23/10/2020, 15:50:22,-2.5339308,2.4956105,9.992022,-0.1885287,0.2270073,-0.027329307,10.60610068332117,0.2963482351461157,stand
23/10/2020, 15:50:22,-2.6225464,2.6249416,11.821816,-0.1885287,0.2270073,-0.027329307,12.390456496155677,0.2963482351461157,stand
23/10/2020, 15:50:22,-2.6225464,2.6249416,11.821816,-0.20563293,0.31252837,-0.035881415,12.390456496155677,0.37582756549743096,stand
23/10/2020, 15:50:22,-3.6907253,2.5051906,8.061636,-0.20563293,0.31252837,-0.035881415,9.213436273337878,0.37582756549743096,stand
23/10/2020, 15:50:22,-3.6907253,2.5051906,8.061636,0.04848692,0.3210805,-0.023664117,9.213436273337878,0.32558203712720213,stand
23/10/2020, 15:50:22,-1.3555812,2.8500733,1.5735279,0.04848692,0.3210805,-0.023664117,3.526543417557647,0.32558203712720213,stand
23/10/2020, 15:50:22,-1.3555812,2.8500733,1.5735279,-0.010156126,0.09506045,0.044752765,3.526543417557647,0.1055577879446082,stand
23/10/2020, 15:50:22,4.7133985,3.9374123,6.4928985,-0.010156126,0.09506045,0.044752765,8.937397316754648,0.1055577879446082,stand
23/10/2020, 15:50:22,4.7133985,3.9374123,6.4928985,-0.11155972,-0.20304167,0.044752765,8.937397316754648,0.23595402463175758,stand
23/10/2020, 15:50:22,2.0022364,3.551814,17.636925,-0.11155972,-0.20304167,0.044752765,18.10208408259897,0.23595402463175758,stand
23/10/2020, 15:50:22,2.0022364,3.551814,17.636925,-0.13843778,0.1500383,-0.015112006,18.10208408259897,0.20470682228364037,stand
23/10/2020, 15:50:22,-4.1553593,2.6129665,8.734636,-0.13843778,0.1500383,-0.015112006,10.019404981589679,0.20470682228364037,stand
23/10/2020, 15:50:22,-4.1553593,2.6129665,8.734636,0.3123806,0.104834296,0.006879134,10.019404981589679,0.329574268948112,stand
23/10/2020, 15:50:22,1.698069,3.0608351,1.9136207,0.3123806,0.104834296,0.006879134,3.9892473127594963,0.329574268948112,stand
23/10/2020, 15:50:22,1.698069,3.0608351,1.9136207,0.013056746,-0.2042634,0.022761624,3.9892473127594963,0.20594200244043404,stand
23/10/2020, 15:50:22,4.028423,3.8200562,16.108902,0.013056746,-0.2042634,0.022761624,17.038713062043417,0.20594200244043404,stand
23/10/2020, 15:50:22,4.028423,3.8200562,16.108902,-0.18119833,0.07917796,-0.011446816,17.038713062043417,0.1980732526099067,stand
23/10/2020, 15:50:22,-4.016448,2.663262,11.742782,-0.18119833,0.07917796,-0.011446816,12.6932162679659,0.1980732526099067,stand
23/10/2020, 15:50:23,4.91937,4.0571632,12.504397,0.19875972,-0.2531326,-0.017555466,14.036407325265927,0.32231931307650524,stand
23/10/2020, 15:50:23,-0.60833496,3.4727786,16.286133,0.19875972,-0.2531326,-0.017555466,16.663384539947746,0.32231931307650524,stand
23/10/2020, 15:50:23,-0.60833496,3.4727786,16.286133,0.07780843,0.16469906,-0.070089854,16.663384539947746,0.19517305414873917,stand
23/10/2020, 15:50:23,-3.7050953,2.9027638,5.039121,0.07780843,0.16469906,-0.070089854,6.895397814623218,0.19517305414873917,stand
23/10/2020, 15:50:23,-3.7050953,2.9027638,5.039121,0.33070657,0.08528661,-0.043211795,6.895397814623218,0.34424976143898356,stand
23/10/2020, 15:50:23,2.6608667,3.923042,2.7399025,0.33070657,0.08528661,-0.043211795,5.475174561573996,0.34424976143898356,stand
23/10/2020, 15:50:23,2.6608667,3.923042,2.7399025,-0.12622048,-0.14928555,-0.05298564,5.475174561573996,0.2025469433106556,stand
23/10/2020, 15:50:23,3.7242556,4.160149,14.365328,-0.12622048,-0.14928555,-0.05298564,15.412318573536387,0.2025469433106556,stand
23/10/2020, 15:50:23,3.7242556,4.160149,14.365328,0.003282905,-0.3301016,-0.09574619,15.412318573536387,0.3437225373150024,stand
23/10/2020, 15:50:23,-3.2093263,3.5829494,15.905325,0.003282905,-0.3301016,-0.09574619,16.616758492834258,0.3437225373150024,stand
23/10/2020, 15:50:23,-3.2093263,3.5829494,15.905325,-0.07735128,-0.006343142,-0.22402784,16.616758492834258,0.23709055236181328,stand
23/10/2020, 15:50:23,-4.7062135,3.6907253,4.5888577,-0.07735128,-0.006343142,-0.22402784,7.538402565550235,0.23709055236181328,stand
23/10/2020, 15:50:23,-4.7062135,3.6907253,4.5888577,-0.06635571,0.13049063,0.14493462,7.538402565550235,0.2060022589991386,stand
23/10/2020, 15:50:23,-1.5735279,5.3073635,-0.15088624,-0.06635571,0.13049063,0.14493462,5.537767080574295,0.2060022589991386,stand
23/10/2020, 15:50:23,-1.5735279,5.3073635,-0.15088624,-0.83971083,-0.24824569,0.59941816,5.537767080574295,1.0611514199366079,stand
23/10/2020, 15:50:23,2.3998096,6.2941117,13.570181,-0.83971083,-0.24824569,0.59941816,15.150073862238163,1.0611514199366079,stand
23/10/2020, 15:50:23,2.3998096,6.2941117,13.570181,-0.9679925,-0.50603074,0.6067486,15.150073862238163,1.2494880546870766,stand
23/10/2020, 15:50:23,-3.776946,3.7146754,15.112574,-0.9679925,-0.50603074,0.6067486,16.014181735378294,1.2494880546870766,stand
23/10/2020, 15:50:23,-3.776946,3.7146754,15.112574,-1.3784938,-0.18715918,0.53344476,16.014181735378294,1.489911739298123,stand
23/10/2020, 15:50:23,-5.872588,2.8500733,4.145779,-1.3784938,-0.18715918,0.53344476,7.732896890375163,1.489911739298123,stand
23/10/2020, 15:50:23,-5.872588,2.8500733,4.145779,-1.4493542,-0.29589316,0.8633119,7.732896890375163,1.7127427397755248,stand
23/10/2020, 15:50:23,-1.9184108,4.4116263,2.672842,-1.4493542,-0.29589316,0.8633119,5.503347287112466,1.7127427397755248,stand
23/10/2020, 15:50:23,-1.9184108,4.4116263,2.672842,-1.9771415,-0.6025474,1.084445,5.503347287112466,2.3341321394360337,stand
23/10/2020, 15:50:23,-0.8430469,4.617598,14.6671,-1.9771415,-0.6025474,1.084445,15.399894834647856,2.3341321394360337,stand
23/10/2020, 15:50:23,-0.8430469,4.617598,14.6671,-1.7181348,-0.86399764,1.1577488,15.399894834647856,2.2447408094976264,stand
23/10/2020, 15:50:23,-6.933582,3.1566358,15.356866,-1.7181348,-0.86399764,1.1577488,17.142702122310272,2.2447408094976264,stand
23/10/2020, 15:50:23,-6.933582,3.1566358,15.356866,-2.0565538,-0.6660774,1.17974,17.142702122310272,2.4626934693596265,stand
23/10/2020, 15:50:23,-7.5155716,2.311194,4.8499146,-2.0565538,-0.6660774,1.17974,9.238349689217788,2.4626934693596265,stand
23/10/2020, 15:50:23,-7.5155716,2.311194,4.8499146,-1.9869153,-0.961736,1.3385649,9.238349689217788,2.581574075094754,stand
23/10/2020, 15:50:23,-0.91010743,3.1255007,4.26553,-1.9869153,-0.961736,1.3385649,5.3657988361310975,2.581574075094754,stand
23/10/2020, 15:50:24,2.579436,-1.1376343,9.041199,-0.19952427,0.1256037,0.0032139444,9.470532014616511,0.23578921526177904,stand
23/10/2020, 15:50:24,2.4620802,-1.1448194,9.2256155,-0.19952427,0.1256037,0.0032139444,9.616882649765826,0.23578921526177904,stand
23/10/2020, 15:50:24,2.4620802,-1.1448194,9.2256155,-0.23373272,0.12316024,0.017874705,9.616882649765826,0.26479979741148,stand
23/10/2020, 15:50:24,2.320774,-1.1160791,9.477093,-0.23373272,0.12316024,0.017874705,9.820738858171142,0.26479979741148,stand
23/10/2020, 15:50:24,2.320774,-1.1160791,9.477093,-0.25205866,0.10239083,0.034978926,9.820738858171142,0.274300881464707,stand
23/10/2020, 15:50:24,2.201023,-0.855022,9.730965,-0.25205866,0.10239083,0.034978926,10.013353013073807,0.274300881464707,stand
23/10/2020, 15:50:24,2.201023,-0.855022,9.730965,-0.22395888,0.075512774,0.056970067,10.013353013073807,0.24311591361342627,stand
23/10/2020, 15:50:24,2.1291726,-0.732876,9.982442,-0.22395888,0.075512774,0.056970067,10.233260935345204,0.24311591361342627,stand
23/10/2020, 15:50:24,2.1291726,-0.732876,9.982442,-0.20807639,0.03886087,0.07896121,10.233260935345204,0.2259221605996248,stand
23/10/2020, 15:50:24,2.1339624,-0.87897223,9.989627,-0.20807639,0.03886087,0.07896121,10.252757334974698,0.2259221605996248,stand
23/10/2020, 15:50:24,2.1339624,-0.87897223,9.989627,-0.22762406,-0.008786602,0.07285256,10.252757334974698,0.23915980409095855,stand
23/10/2020, 15:50:24,2.215393,-1.1112891,10.140513,-0.22762406,-0.008786602,0.07285256,10.43901060554158,0.23915980409095855,stand
23/10/2020, 15:50:24,2.215393,-1.1112891,10.140513,-0.24228483,-0.042995043,0.053304877,10.43901060554158,0.25177753003412023,stand
23/10/2020, 15:50:24,2.299219,-1.2645704,9.936936,-0.24228483,-0.042995043,0.053304877,10.277560522414745,0.25177753003412023,stand
23/10/2020, 15:50:24,2.299219,-1.2645704,9.936936,-0.25083694,-0.053990614,0.027648546,10.277560522414745,0.2580670421138223,stand
23/10/2020, 15:50:24,2.4165747,-1.3627661,9.850716,-0.25083694,-0.053990614,0.027648546,10.23394173797921,0.2580670421138223,stand
23/10/2020, 15:50:24,2.4165747,-1.3627661,9.850716,-0.2447283,-0.058877535,0.019096434,10.23394173797921,0.2524345009960867,stand
23/10/2020, 15:50:24,2.548301,-1.343606,9.783655,-0.2447283,-0.058877535,0.019096434,10.198971682583986,0.2524345009960867,stand
23/10/2020, 15:50:24,2.548301,-1.343606,9.783655,-0.22029369,-0.057655804,0.019096434,10.198971682583986,0.22851296137258015,stand
23/10/2020, 15:50:24,2.663262,-1.1711646,9.702225,-0.22029369,-0.057655804,0.019096434,10.129055001887783,0.22851296137258015,stand
23/10/2020, 15:50:24,2.663262,-1.1711646,9.702225,-0.18486351,-0.050325423,0.027648546,10.129055001887783,0.19357584257871543,stand
23/10/2020, 15:50:24,2.6345215,-1.1160791,9.625584,-0.18486351,-0.050325423,0.027648546,10.041822372909106,0.19357584257871543,stand
23/10/2020, 15:50:24,2.6345215,-1.1160791,9.625584,-0.12622048,-0.045438502,0.036200654,10.041822372909106,0.13894874690934164,stand
23/10/2020, 15:50:24,2.555486,-1.1711646,9.75252,-0.12622048,-0.045438502,0.036200654,10.149570128911797,0.13894874690934164,stand
23/10/2020, 15:50:24,2.555486,-1.1711646,9.75252,-0.061468784,-0.045438502,0.027648546,10.149570128911797,0.08128659745099205,stand
23/10/2020, 15:50:24,2.3327491,-1.223855,9.766891,-0.061468784,-0.045438502,0.027648546,10.115912719358576,0.08128659745099205,stand
23/10/2020, 15:50:24,2.3327491,-1.223855,9.766891,-0.034590725,-0.042995043,0.022761624,10.115912719358576,0.05969240754221728,stand
23/10/2020, 15:50:24,2.1315675,-1.2166699,9.7621,-0.034590725,-0.042995043,0.022761624,10.06590613413477,0.05969240754221728,stand
23/10/2020, 15:50:24,2.1315675,-1.2166699,9.7621,-0.044364564,-0.039329853,0.0081008645,10.06590613413477,0.05983874902385348,stand
23/10/2020, 15:50:24,2.095642,-1.2861255,9.800421,-0.044364564,-0.039329853,0.0081008645,10.104161606487489,0.05983874902385348,stand
23/10/2020, 15:50:25,1.9088306,-1.3148658,9.481883,-0.050473217,-0.047881965,0.0044356743,9.76107641206255,0.06971300715175283,stand
23/10/2020, 15:50:25,1.8992506,-1.3004956,9.316627,-0.050473217,-0.047881965,0.0044356743,9.5967688344124,0.06971300715175283,stand
23/10/2020, 15:50:25,1.8992506,-1.3004956,9.316627,-0.081016466,-0.049103692,0.0081008645,9.5967688344124,0.09508135651649009,stand
23/10/2020, 15:50:25,1.9854712,-1.3507911,9.314231,-0.081016466,-0.049103692,0.0081008645,9.618816469624154,0.09508135651649009,stand
23/10/2020, 15:50:25,1.9854712,-1.3507911,9.314231,-0.11522491,-0.044216774,0.015431244,9.618816469624154,0.12437856306039861,stand
23/10/2020, 15:50:25,2.2129982,-1.5615528,9.263936,-0.11522491,-0.044216774,0.015431244,9.65175211327911,0.12437856306039861,stand
23/10/2020, 15:50:25,2.2129982,-1.5615528,9.263936,-0.14454642,-0.040551584,0.009322595,9.65175211327911,0.15041611985823897,stand
23/10/2020, 15:50:25,2.4141798,-1.6836988,9.460327,-0.14454642,-0.040551584,0.009322595,9.90761805032159,0.15041611985823897,stand
23/10/2020, 15:50:25,2.4141798,-1.6836988,9.460327,-0.14943334,-0.035664663,-0.0028947059,9.90761805032159,0.15365764532874468,stand
23/10/2020, 15:50:25,2.4692652,-1.7028589,9.659114,-0.14943334,-0.035664663,-0.0028947059,10.114122813216719,0.15365764532874468,stand
23/10/2020, 15:50:25,2.4692652,-1.7028589,9.659114,-0.12011183,-0.035664663,-0.009003356,10.114122813216719,0.12561799402064877,stand
23/10/2020, 15:50:25,2.44292,-1.7531544,9.836346,-0.12011183,-0.035664663,-0.009003356,10.285674723052923,0.12561799402064877,stand
23/10/2020, 15:50:25,2.44292,-1.7531544,9.836346,-0.07124263,-0.031999473,7.704842E-4,10.285674723052923,0.07810295952134756,stand
23/10/2020, 15:50:25,2.411785,-1.7675245,9.750125,-0.07124263,-0.031999473,7.704842E-4,10.198322671381874,0.07810295952134756,stand
23/10/2020, 15:50:25,2.411785,-1.7675245,9.750125,-0.022373427,-0.022225633,0.006879134,10.198322671381874,0.03227803405621833,stand
23/10/2020, 15:50:25,2.3614893,-1.7747096,9.707015,-0.022373427,-0.022225633,0.006879134,10.146544571207624,0.03227803405621833,stand
23/10/2020, 15:50:25,2.3614893,-1.7747096,9.707015,0.024052314,-0.022225633,0.009322595,10.146544571207624,0.03405001291665303,stand
23/10/2020, 15:50:25,2.2201831,-1.7794995,9.6615095,0.024052314,-0.022225633,0.009322595,10.071772327413326,0.03405001291665303,stand
23/10/2020, 15:50:25,2.2201831,-1.7794995,9.6615095,0.07047805,-0.029556014,0.0044356743,10.071772327413326,0.07655317726021293,stand
23/10/2020, 15:50:25,2.1770728,-1.6884888,9.510623,0.07047805,-0.029556014,0.0044356743,9.901645813568738,0.07655317726021293,stand
23/10/2020, 15:50:25,2.1770728,-1.6884888,9.510623,0.10590822,-0.033221204,-0.0028947059,9.901645813568738,0.11103413573561006,stand
23/10/2020, 15:50:25,2.1028273,-1.5088624,9.417217,0.10590822,-0.033221204,-0.0028947059,9.766397963909808,0.11103413573561006,stand
23/10/2020, 15:50:25,2.1028273,-1.5088624,9.417217,0.108351685,-0.039329853,0.0019922145,9.766397963909808,0.11528613929611775,stand
23/10/2020, 15:50:25,1.9854712,-1.3843213,9.278306,0.108351685,-0.039329853,0.0019922145,9.588816610821874,0.11528613929611775,stand
23/10/2020, 15:50:25,1.9854712,-1.3843213,9.278306,0.06925633,-0.050325423,0.0142095145,9.588816610821874,0.08678132013673275,stand
23/10/2020, 15:50:25,1.951941,-1.4058765,9.275911,0.06925633,-0.050325423,0.0142095145,9.582749789349668,0.08678132013673275,stand
23/10/2020, 15:50:25,1.951941,-1.4058765,9.275911,0.008169825,-0.052768882,0.0142095145,9.582749789349668,0.05525587110371824,stand
23/10/2020, 15:50:25,1.954336,-1.3699512,9.19448,0.008169825,-0.052768882,0.0142095145,9.499192450803129,0.05525587110371824,stand
23/10/2020, 15:50:25,1.954336,-1.3699512,9.19448,-0.050473217,-0.050325423,0.0081008645,9.499192450803129,0.0717343563433476,stand
23/10/2020, 15:50:25,1.9136207,-1.5040723,9.19448,-0.050473217,-0.050325423,0.0081008645,9.511184949428937,0.0717343563433476,stand
23/10/2020, 15:50:26,-1.4394068,-5.2043777,9.045989,-1.4640149,0.97470605,1.2188354,10.535053686878772,2.1398483831131214,stand
23/10/2020, 15:50:26,-1.4897022,-5.336104,9.477093,-1.4640149,0.97470605,1.2188354,10.9776365662387,2.1398483831131214,stand
23/10/2020, 15:50:26,-1.4897022,-5.336104,9.477093,-1.477454,0.8745242,1.2432699,10.9776365662387,2.1197600796243967,stand
23/10/2020, 15:50:26,-1.8585353,-6.1791506,9.972861,-1.477454,0.8745242,1.2432699,11.878300284113118,2.1197600796243967,stand
23/10/2020, 15:50:26,-1.8585353,-6.1791506,9.972861,-1.4212544,0.7315818,1.2347178,11.878300284113118,2.0198277547737824,stand
23/10/2020, 15:50:26,-2.191443,-7.1778736,10.241104,-1.4212544,0.7315818,1.2347178,12.69663363164817,2.0198277547737824,stand
23/10/2020, 15:50:26,-2.191443,-7.1778736,10.241104,-1.3003031,0.6142957,1.2310526,12.69663363164817,1.8930499159003409,stand
23/10/2020, 15:50:26,-2.567461,-7.927515,10.087823,-1.3003031,0.6142957,1.2310526,13.084399938609057,1.8930499159003409,stand
23/10/2020, 15:50:26,-2.567461,-7.927515,10.087823,-1.1182653,0.52999634,1.2383829,13.084399938609057,1.7507157471702288,stand
23/10/2020, 15:50:26,-2.6057813,-7.798184,9.958491,-1.1182653,0.52999634,1.2383829,12.914074421627765,1.7507157471702288,stand
23/10/2020, 15:50:26,-2.6057813,-7.798184,9.958491,-0.8849148,0.46157944,1.251822,12.914074421627765,1.6009959770337732,stand
23/10/2020, 15:50:26,-2.7734327,-7.4269557,9.678274,-0.8849148,0.46157944,1.251822,12.510818945947193,1.6009959770337732,stand
23/10/2020, 15:50:26,-2.7734327,-7.4269557,9.678274,-0.63690364,0.4114885,1.2958043,12.510818945947193,1.5013586264969738,stand
23/10/2020, 15:50:26,-2.5339308,-7.038963,9.060359,-0.63690364,0.4114885,1.2958043,11.74980460678383,1.5013586264969738,stand
23/10/2020, 15:50:26,-2.5339308,-7.038963,9.060359,-0.4560876,0.39071912,1.3312345,11.74980460678383,1.4604322959141285,stand
23/10/2020, 15:50:26,-2.3135889,-6.7707205,8.363408,-0.4560876,0.39071912,1.3312345,11.006450113627038,1.4604322959141285,stand
23/10/2020, 15:50:26,-2.3135889,-6.7707205,8.363408,-0.35224053,0.40537986,1.3483387,11.006450113627038,1.4513523133448336,stand
23/10/2020, 15:50:26,-2.1148024,-6.2845316,7.831714,-0.35224053,0.40537986,1.3483387,10.261748045554155,1.4513523133448336,stand
23/10/2020, 15:50:26,-2.1148024,-6.2845316,7.831714,-0.32902765,0.44447523,1.3727733,10.261748045554155,1.479974301929499,stand
23/10/2020, 15:50:26,-2.1148024,-5.738467,7.32397,-0.32902765,0.44447523,1.3727733,9.541641852993678,1.479974301929499,stand
23/10/2020, 15:50:26,-2.1148024,-5.738467,7.32397,-0.4328747,0.49700963,1.4069817,9.541641852993678,1.5537041591069036,stand
23/10/2020, 15:50:26,-2.327959,-5.1708474,6.835386,-0.4328747,0.49700963,1.4069817,8.881416295482792,1.5537041591069036,stand
23/10/2020, 15:50:26,-2.327959,-5.1708474,6.835386,-0.66622514,0.53488326,1.4411901,8.881416295482792,1.6754059226909113,stand
23/10/2020, 15:50:26,-2.6321266,-5.120552,6.5216384,-0.66622514,0.53488326,1.4411901,8.699420155576052,1.6754059226909113,stand
23/10/2020, 15:50:26,-2.6321266,-5.120552,6.5216384,-1.0877221,0.58008724,1.4607378,8.699420155576052,1.9113857510903252,stand
23/10/2020, 15:50:26,-2.8859987,-5.53489,5.9013286,-1.0877221,0.58008724,1.4607378,8.590091775429173,1.9113857510903252,stand
23/10/2020, 15:50:26,-2.8859987,-5.53489,5.9013286,-1.5959618,0.65339106,1.4314164,8.590091775429173,2.24119764099456,stand
23/10/2020, 15:50:26,-3.2236965,-6.2725563,5.4271145,-1.5959618,0.65339106,1.4314164,8.898918652431654,2.24119764099456,stand
23/10/2020, 15:50:26,-3.2236965,-6.2725563,5.4271145,-2.0321193,0.75235116,1.387434,8.898918652431654,2.573035977169351,stand
23/10/2020, 15:50:26,-3.4775686,-6.9311867,5.2091675,-2.0321193,0.75235116,1.387434,9.341855175971908,2.573035977169351,stand
23/10/2020, 15:50:27,-7.6401124,-3.4464333,2.6488917,-1.2709816,-0.0038996818,-0.051763907,8.790099384417122,1.2720411984622808,stand
23/10/2020, 15:50:27,-7.7311234,-3.784131,2.574646,-1.2709816,-0.0038996818,-0.051763907,8.984359719469541,1.2720411984622808,stand
23/10/2020, 15:50:27,-7.7311234,-3.784131,2.574646,-1.589853,-0.035664663,-0.041990068,8.984359719469541,1.5908072948124459,stand
23/10/2020, 15:50:27,-8.052056,-4.4283915,2.7542725,-1.589853,-0.035664663,-0.041990068,9.593345534413741,1.5908072948124459,stand
23/10/2020, 15:50:27,-8.052056,-4.4283915,2.7542725,-1.7694474,-0.09186424,-0.013890276,9.593345534413741,1.771884940571279,stand
23/10/2020, 15:50:27,-8.080796,-4.785249,2.8883936,-1.7694474,-0.09186424,-0.013890276,9.82551250305614,1.771884940571279,stand
23/10/2020, 15:50:27,-8.080796,-4.785249,2.8883936,-1.7682257,-0.17372015,-0.009003356,9.82551250305614,1.7767615965300314,stand
23/10/2020, 15:50:27,-8.085587,-5.43909,3.3745828,-1.7682257,-0.17372015,-0.009003356,10.31252715190872,1.7767615965300314,stand
23/10/2020, 15:50:27,-8.085587,-5.43909,3.3745828,-1.5886314,-0.25924128,-0.021220656,10.31252715190872,1.6097844753772659,stand
23/10/2020, 15:50:27,-7.9873905,-6.1216702,3.6763551,-1.5886314,-0.25924128,-0.021220656,10.713955426758194,1.6097844753772659,stand
23/10/2020, 15:50:27,-7.9873905,-6.1216702,3.6763551,-1.3992633,-0.29222798,-0.06886813,10.713955426758194,1.4311106498782518,stand
23/10/2020, 15:50:27,-7.9897857,-6.5168486,3.8152664,-1.3992633,-0.29222798,-0.06886813,10.993736751453039,1.4311106498782518,stand
23/10/2020, 15:50:27,-7.9897857,-6.5168486,3.8152664,-1.1146002,-0.3301016,-0.1042983,10.993736751453039,1.1671241462644764,stand
23/10/2020, 15:50:27,-8.025711,-6.344407,3.6548,-1.1146002,-0.3301016,-0.1042983,10.863751737640957,1.1671241462644764,stand
23/10/2020, 15:50:27,-8.025711,-6.344407,3.6548,-0.81771964,-0.3533145,-0.08719408,10.863751737640957,0.8950415310736733,stand
23/10/2020, 15:50:27,-8.157437,-6.356382,3.894302,-0.81771964,-0.3533145,-0.08719408,11.050473369769945,0.8950415310736733,stand
23/10/2020, 15:50:27,-8.157437,-6.356382,3.894302,-0.58070403,-0.3789708,-0.03221623,11.050473369769945,0.6941713969901702,stand
23/10/2020, 15:50:27,-8.171807,-5.8127127,3.65959,-0.58070403,-0.3789708,-0.03221623,10.675142245345226,0.6941713969901702,stand
23/10/2020, 15:50:27,-8.171807,-5.8127127,3.65959,-0.48418736,-0.3863012,-0.018777195,10.675142245345226,0.6196923399691971,stand
23/10/2020, 15:50:27,-8.0305,-5.252278,3.1494508,-0.48418736,-0.3863012,-0.018777195,10.099227678453083,0.6196923399691971,stand
23/10/2020, 15:50:27,-8.0305,-5.252278,3.1494508,-0.45120066,-0.38385773,-0.039546605,10.099227678453083,0.5937109800505901,stand
23/10/2020, 15:50:27,-7.8820095,-4.9864306,2.6560767,-0.45120066,-0.38385773,-0.039546605,9.697696000019977,0.5937109800505901,stand
23/10/2020, 15:50:27,-7.8820095,-4.9864306,2.6560767,-0.4328747,-0.36797523,-0.0676464,9.697696000019977,0.5721558554182568,stand
23/10/2020, 15:50:27,-7.800579,-5.151687,2.311194,-0.4328747,-0.36797523,-0.0676464,9.629669346776863,0.5721558554182568,stand
23/10/2020, 15:50:27,-7.800579,-5.151687,2.311194,-0.4243226,-0.33132333,-0.08719408,9.629669346776863,0.5453692570331604,stand
23/10/2020, 15:50:27,-7.673643,-5.247488,1.8537452,-0.4243226,-0.33132333,-0.08719408,9.479309072977882,0.5453692570331604,stand
23/10/2020, 15:50:27,-7.673643,-5.247488,1.8537452,-0.43898335,-0.28856277,-0.098189645,9.479309072977882,0.5344305976054023,stand
23/10/2020, 15:50:27,-7.7383084,-5.3097587,1.8657203,-0.43898335,-0.28856277,-0.098189645,9.568482980505566,0.5344305976054023,stand
23/10/2020, 15:50:27,-7.7383084,-5.3097587,1.8657203,-0.5012916,-0.2677934,-0.12506771,9.568482980505566,0.581935109549942,stand
23/10/2020, 15:50:27,-7.8412943,-5.3408937,2.4333398,-0.5012916,-0.2677934,-0.12506771,9.794497683375322,0.581935109549942,stand
23/10/2020, 15:50:28,-7.453301,-4.7708793,0.8933423,-0.8678106,-0.03810812,0.5248926,8.894438969631167,1.0149185926021818,stand
23/10/2020, 15:50:28,-7.6137676,-4.9720607,0.73048097,-0.8678106,-0.03810812,0.5248926,9.122743407892404,1.0149185926021818,stand
23/10/2020, 15:50:28,-7.6137676,-4.9720607,0.73048097,-0.82260656,-0.018560443,0.5383317,9.122743407892404,0.9832736415594763,stand
23/10/2020, 15:50:28,-7.709568,-5.1564775,0.87418216,-0.82260656,-0.018560443,0.5383317,9.316163012464816,0.9832736415594763,stand
23/10/2020, 15:50:28,-7.709568,-5.1564775,0.87418216,-0.75663316,0.0022089682,0.54566205,9.316163012464816,0.9328695996809521,stand
23/10/2020, 15:50:28,-7.7335186,-5.2882032,1.2166699,-0.75663316,0.0022089682,0.54566205,9.447364136760385,0.9328695996809521,stand
23/10/2020, 15:50:28,-7.7335186,-5.2882032,1.2166699,-0.69065976,0.022978378,0.5395534,9.447364136760385,0.8767307383366981,stand
23/10/2020, 15:50:28,-7.790999,-5.407954,1.2166699,-0.69065976,0.022978378,0.5395534,9.561690169925585,0.8767307383366981,stand
23/10/2020, 15:50:28,-7.790999,-5.407954,1.2166699,-0.6393471,0.044969518,0.5444403,9.561690169925585,0.8409531577742024,stand
23/10/2020, 15:50:28,-7.831714,-5.470225,1.4897022,-0.6393471,0.044969518,0.5444403,9.668418654928223,0.8409531577742024,stand
23/10/2020, 15:50:28,-7.831714,-5.470225,1.4897022,-0.6063604,0.05352163,0.5566576,9.668418654928223,0.8248667574904793,stand
23/10/2020, 15:50:28,-7.941885,-5.592371,1.81782,-0.6063604,0.05352163,0.5566576,9.881934016320942,0.8248667574904793,stand
23/10/2020, 15:50:28,-7.941885,-5.592371,1.81782,-0.6075821,0.05352163,0.54810554,9.881934016320942,0.8200245388699647,stand
23/10/2020, 15:50:28,-8.164622,-5.757627,2.0357666,-0.6075821,0.05352163,0.54810554,10.195865429642575,0.8200245388699647,stand
23/10/2020, 15:50:28,-8.164622,-5.757627,2.0357666,-0.612469,0.02908703,0.52000576,10.195865429642575,0.8039716075812925,stand
23/10/2020, 15:50:28,-8.4376545,-5.9061184,2.2441335,-0.612469,0.02908703,0.52000576,10.540985859711796,0.8039716075812925,stand
23/10/2020, 15:50:28,-8.4376545,-5.9061184,2.2441335,-0.6112473,-0.018560443,0.50045806,10.540985859711796,0.7902063177846618,stand
23/10/2020, 15:50:28,-8.56459,-6.013894,2.2177882,-0.6112473,-0.018560443,0.50045806,10.697556555200164,0.7902063177846618,stand
23/10/2020, 15:50:28,-8.56459,-6.013894,2.2177882,-0.5965865,-0.061320994,0.4699148,10.697556555200164,0.7619026579807959,stand
23/10/2020, 15:50:28,-8.52627,-6.210286,2.1100123,-0.5965865,-0.061320994,0.4699148,10.75718757142139,0.7619026579807959,stand
23/10/2020, 15:50:28,-8.52627,-6.210286,2.1100123,-0.5623781,-0.08697732,0.4124935,10.75718757142139,0.7028407187500185,stand
23/10/2020, 15:50:28,-8.456815,-6.456973,1.9279908,-0.5623781,-0.08697732,0.4124935,10.813295787602037,0.7028407187500185,stand
23/10/2020, 15:50:28,-8.456815,-6.456973,1.9279908,-0.49151775,-0.09552943,0.35629392,10.813295787602037,0.6145412337139805,stand
23/10/2020, 15:50:28,-8.293953,-6.5336137,1.9160157,-0.49151775,-0.09552943,0.35629392,10.730744591002727,0.6145412337139805,stand
23/10/2020, 15:50:28,-8.293953,-6.5336137,1.9160157,-0.36567956,-0.10896846,0.29765087,10.730744591002727,0.48393357994138303,stand
23/10/2020, 15:50:28,-8.167017,-6.447393,1.9447559,-0.36567956,-0.10896846,0.29765087,10.585420052468695,0.48393357994138303,stand
23/10/2020, 15:50:28,-8.167017,-6.447393,1.9447559,-0.22640234,-0.10408154,0.23289919,10.585420052468695,0.34107626725088047,stand
23/10/2020, 15:50:28,-8.150251,-6.2677665,1.839375,-0.22640234,-0.10408154,0.23289919,10.444845367499523,0.34107626725088047,stand
23/10/2020, 15:50:28,-8.150251,-6.2677665,1.839375,-0.11278145,-0.0943077,0.16081712,10.444845367499523,0.2178892893602952,stand
23/10/2020, 15:50:28,-8.258028,-6.013894,1.8537452,-0.11278145,-0.0943077,0.16081712,10.382596992954332,0.2178892893602952,stand
23/10/2020, 15:50:29,-7.94428,-4.5816727,1.4058765,-0.13721605,0.22212037,-0.05298564,9.277920040912546,0.2664079240947565,stand
23/10/2020, 15:50:29,-7.8891945,-4.5457473,0.68976563,-0.13721605,0.22212037,-0.05298564,9.1312093744369,0.2664079240947565,stand
23/10/2020, 15:50:29,-7.8891945,-4.5457473,0.68976563,-0.3461319,0.2355594,-0.084750615,9.1312093744369,0.4271746545533514,stand
23/10/2020, 15:50:29,-7.7790236,-4.402046,0.26345217,-0.3461319,0.2355594,-0.084750615,8.942070606476294,0.4271746545533514,stand
23/10/2020, 15:50:29,-7.7790236,-4.402046,0.26345217,-0.490296,0.24655499,-0.11895906,8.942070606476294,0.5615432245412044,stand
23/10/2020, 15:50:29,-7.7694435,-4.9241605,0.06706055,-0.490296,0.24655499,-0.11895906,9.19870132361083,0.5615432245412044,stand
23/10/2020, 15:50:29,-7.7694435,-4.9241605,0.06706055,-0.4609745,0.2514419,-0.13117637,9.19870132361083,0.5412280197973709,stand
23/10/2020, 15:50:29,-7.510782,-5.6426663,0.3784131,-0.4609745,0.2514419,-0.13117637,9.401846766828488,0.5412280197973709,stand
23/10/2020, 15:50:29,-7.510782,-5.6426663,0.3784131,-0.2789367,0.26610264,-0.13117637,9.401846766828488,0.40721437318584197,stand
23/10/2020, 15:50:29,-7.2640944,-5.6738014,0.7424561,-0.2789367,0.26610264,-0.13117637,9.247179590093213,0.40721437318584197,stand
23/10/2020, 15:50:29,-7.2640944,-5.6738014,0.7424561,-0.013821316,0.31375012,-0.12628944,9.247179590093213,0.33849547786783873,stand
23/10/2020, 15:50:29,-7.278465,-5.3025737,1.2621753,-0.013821316,0.31375012,-0.12628944,9.093207571773053,0.33849547786783873,stand
23/10/2020, 15:50:29,-7.278465,-5.3025737,1.2621753,0.22441605,0.34307164,-0.106741756,9.093207571773053,0.42362072030686626,stand
23/10/2020, 15:50:29,-7.3766603,-4.8091993,1.5543678,0.22441605,0.34307164,-0.106741756,8.942011814953934,0.42362072030686626,stand
23/10/2020, 15:50:29,-7.3766603,-4.8091993,1.5543678,0.3771323,0.3772801,-0.071311586,8.942011814953934,0.5381954801504941,stand
23/10/2020, 15:50:29,-7.398216,-4.6511283,1.4274317,0.3771323,0.3772801,-0.071311586,8.854611919514044,0.5381954801504941,stand
23/10/2020, 15:50:29,-7.398216,-4.6511283,1.4274317,0.40278864,0.4066016,-0.018777195,8.854611919514044,0.5726396234051983,stand
23/10/2020, 15:50:29,-7.668853,-4.5625124,1.7723145,0.40278864,0.4066016,-0.018777195,9.097742665082475,0.5726396234051983,stand
23/10/2020, 15:50:29,-7.668853,-4.5625124,1.7723145,0.3856844,0.39071912,0.012987785,9.097742665082475,0.5491653366504239,stand
23/10/2020, 15:50:29,-7.9227247,-4.1888895,2.4189699,0.3856844,0.39071912,0.012987785,9.282660047196561,0.5491653366504239,stand
23/10/2020, 15:50:29,-7.9227247,-4.1888895,2.4189699,0.34292385,0.3613976,0.06552218,9.282660047196561,0.50249193408582,stand
23/10/2020, 15:50:29,-8.080796,-3.899092,2.8452833,0.34292385,0.3613976,0.06552218,9.41264165319459,0.50249193408582,stand
23/10/2020, 15:50:29,-8.080796,-3.899092,2.8452833,0.25373757,0.336963,0.12050003,9.41264165319459,0.4386878988432421,stand
23/10/2020, 15:50:29,-8.054451,-3.63564,2.8141482,0.25373757,0.336963,0.12050003,9.274237881252587,0.4386878988432421,stand
23/10/2020, 15:50:29,-8.054451,-3.63564,2.8141482,0.14133841,0.3174153,0.17425615,9.274237881252587,0.3887084006892655,stand
23/10/2020, 15:50:29,-8.073611,-3.3769777,2.7159522,0.14133841,0.3174153,0.17425615,9.163163927311633,0.3887084006892655,stand
23/10/2020, 15:50:29,-8.073611,-3.3769777,2.7159522,0.0765867,0.30275455,0.22434707,9.163163927311633,0.38452236446848065,stand
23/10/2020, 15:50:29,-8.011341,-3.3578174,2.8428884,0.0765867,0.30275455,0.22434707,9.139941909490739,0.38452236446848065,stand
23/10/2020, 15:50:29,-8.011341,-3.3578174,2.8428884,0.07536498,0.3174153,0.26099896,9.139941909490739,0.41779517701472774,stand
23/10/2020, 15:50:29,-7.8748245,-3.4871485,2.7830129,0.07536498,0.3174153,0.26099896,9.050868838080268,0.41779517701472774,stand
23/10/2020, 15:50:30,-9.15616,-3.779341,0.29698244,0.13645148,0.04374779,-0.040768337,9.909938913487121,0.1489796414143687,stand
23/10/2020, 15:50:30,-8.988508,-3.8703518,0.27542725,0.13645148,0.04374779,-0.040768337,9.790238161653814,0.1489796414143687,stand
23/10/2020, 15:50:30,-8.988508,-3.8703518,0.27542725,0.21342048,0.08162142,-0.06886813,9.790238161653814,0.23864864892858137,stand
23/10/2020, 15:50:30,-8.938213,-3.8416114,0.45026368,0.21342048,0.08162142,-0.06886813,9.739218309391196,0.23864864892858137,stand
23/10/2020, 15:50:30,-8.938213,-3.8416114,0.45026368,0.35514116,0.11460813,-0.08963754,9.739218309391196,0.38379051312561746,stand
23/10/2020, 15:50:30,-9.079519,-3.887117,0.76880133,0.35514116,0.11460813,-0.08963754,9.906482905637986,0.38379051312561746,stand
23/10/2020, 15:50:30,-9.079519,-3.887117,0.76880133,0.46876204,0.117051594,-0.09696792,9.906482905637986,0.4927897153556496,stand
23/10/2020, 15:50:30,-9.148975,-3.8248463,1.3986914,0.46876204,0.117051594,-0.09696792,10.014466386750321,0.4927897153556496,stand
23/10/2020, 15:50:30,-9.148975,-3.8248463,1.3986914,0.532292,0.110942945,-0.10796349,10.014466386750321,0.5543457710314988,stand
23/10/2020, 15:50:30,-9.16574,-3.6188745,1.8872755,0.532292,0.110942945,-0.10796349,10.033386848310942,0.5543457710314988,stand
23/10/2020, 15:50:30,-9.16574,-3.6188745,1.8872755,0.5628353,0.112164676,-0.120180786,10.033386848310942,0.5863513314373611,stand
23/10/2020, 15:50:30,-9.14179,-3.3626075,1.9806812,0.5628353,0.112164676,-0.120180786,9.939947612237106,0.5863513314373611,stand
23/10/2020, 15:50:30,-9.14179,-3.3626075,1.9806812,0.5493962,0.10605603,-0.12751117,9.939947612237106,0.5738842944022817,stand
23/10/2020, 15:50:30,-9.201666,-3.04886,2.0573218,0.5493962,0.10605603,-0.12751117,9.909529535545474,0.5738842944022817,stand
23/10/2020, 15:50:30,-9.201666,-3.04886,2.0573218,0.48220107,0.084064886,-0.11895906,9.909529535545474,0.5037221803291321,stand
23/10/2020, 15:50:30,-9.283096,-2.7806177,1.9974464,0.48220107,0.084064886,-0.11895906,9.89431676409795,0.5037221803291321,stand
23/10/2020, 15:50:30,-9.283096,-2.7806177,1.9974464,0.3930148,0.06085201,-0.10185484,9.89431676409795,0.4105337979860716,stand
23/10/2020, 15:50:30,-9.280701,-2.692002,2.1124072,0.3930148,0.06085201,-0.10185484,9.891437937385158,0.4105337979860716,stand
23/10/2020, 15:50:30,-9.280701,-2.692002,2.1124072,0.32581964,0.04252606,-0.09452446,9.891437937385158,0.3419090193924037,stand
23/10/2020, 15:50:30,-9.3381815,-2.7087672,2.1291726,0.32581964,0.04252606,-0.09452446,9.953513402985191,0.3419090193924037,stand
23/10/2020, 15:50:30,-9.3381815,-2.7087672,2.1291726,0.3038285,0.030308757,-0.08597235,9.953513402985191,0.3172091221215111,stand
23/10/2020, 15:50:30,-9.326206,-2.5985963,2.1219873,0.3038285,0.030308757,-0.08597235,9.911289291168286,0.3172091221215111,stand
23/10/2020, 15:50:30,-9.326206,-2.5985963,2.1219873,0.33315003,0.021756649,-0.07497678,9.911289291168286,0.34217511772188747,stand
23/10/2020, 15:50:30,-9.362132,-2.6081765,2.0812721,0.33315003,0.021756649,-0.07497678,9.939003727684415,0.34217511772188747,stand
23/10/2020, 15:50:30,-9.362132,-2.6081765,2.0812721,0.38079748,0.011982808,-0.06031602,9.939003727684415,0.38573089999293475,stand
23/10/2020, 15:50:30,-9.429193,-2.572251,1.9663111,0.38079748,0.011982808,-0.06031602,9.969580079942729,0.38573089999293475,stand
23/10/2020, 15:50:30,-9.429193,-2.572251,1.9663111,0.45165783,0.019313188,-0.057872556,9.969580079942729,0.45575983687056393,stand
23/10/2020, 15:50:30,-9.273516,-2.8285182,1.2909156,0.45165783,0.019313188,-0.057872556,9.780852289432941,0.45575983687056393,stand
23/10/2020, 15:50:30,-9.273516,-2.8285182,1.2909156,0.487088,0.018091459,-0.07619851,9.780852289432941,0.49334392529592075,stand
23/10/2020, 15:50:30,-9.182506,-3.1614258,1.0466236,0.487088,0.018091459,-0.07619851,9.767724578410485,0.49334392529592075,stand
23/10/2020, 15:50:31,-8.801697,-2.7854078,2.7758276,-0.21907195,-0.0038996818,-0.023664117,9.640206522259925,0.2203808503222817,stand
23/10/2020, 15:50:31,-8.844808,-2.7782228,2.8668385,-0.21907195,-0.0038996818,-0.023664117,9.704014971690349,0.2203808503222817,stand
23/10/2020, 15:50:31,-8.844808,-2.7782228,2.8668385,-0.3021496,-0.016116982,-0.0016729758,9.704014971690349,0.30258376198854287,stand
23/10/2020, 15:50:31,-8.799302,-2.8213332,2.823728,-0.3021496,-0.016116982,-0.0016729758,9.662353679015661,0.30258376198854287,stand
23/10/2020, 15:50:31,-8.799302,-2.8213332,2.823728,-0.38889244,-0.028334282,0.026426814,9.662353679015661,0.3908177830082213,stand
23/10/2020, 15:50:31,-8.777747,-2.8955786,2.7638526,-0.38889244,-0.028334282,0.026426814,9.647388342893427,0.3908177830082213,stand
23/10/2020, 15:50:31,-8.777747,-2.8955786,2.7638526,-0.4560876,-0.033221204,0.056970067,9.647388342893427,0.46083090829005907,stand
23/10/2020, 15:50:31,-8.713081,-3.0799952,2.680027,-0.4560876,-0.033221204,0.056970067,9.622198382095114,0.46083090829005907,stand
23/10/2020, 15:50:31,-8.713081,-3.0799952,2.680027,-0.49396122,-0.028334282,0.08751331,9.622198382095114,0.5024530758172244,stand
23/10/2020, 15:50:31,-8.746612,-3.1997461,2.6273365,-0.49396122,-0.028334282,0.08751331,9.677008153360491,0.5024530758172244,stand
23/10/2020, 15:50:31,-8.746612,-3.1997461,2.6273365,-0.5012916,-0.014895253,0.116834834,9.677008153360491,0.5149422183641483,stand
23/10/2020, 15:50:31,-8.646021,-3.3434474,2.6225464,-0.5012916,-0.014895253,0.116834834,9.633798204663089,0.5149422183641483,stand
23/10/2020, 15:50:31,-8.646021,-3.3434474,2.6225464,-0.47197008,0.004652428,0.13760424,9.633798204663089,0.4916424805558683,stand
23/10/2020, 15:50:31,-8.674761,-3.4991236,2.6105714,-0.47197008,0.004652428,0.13760424,9.711355414786938,0.4916424805558683,stand
23/10/2020, 15:50:31,-8.674761,-3.4991236,2.6105714,-0.4157705,0.024200108,0.14982153,9.711355414786938,0.4426028094301422,stand
23/10/2020, 15:50:31,-8.710687,-3.551814,2.6321266,-0.4157705,0.024200108,0.14982153,9.768292380645583,0.4426028094301422,stand
23/10/2020, 15:50:31,-8.710687,-3.551814,2.6321266,-0.34491014,0.037639137,0.152265,9.768292380645583,0.37889885467368367,stand
23/10/2020, 15:50:31,-8.698711,-3.5805542,2.6536818,-0.34491014,0.037639137,0.152265,9.773943703043878,0.37889885467368367,stand
23/10/2020, 15:50:31,-8.698711,-3.5805542,2.6536818,-0.26427597,0.04985644,0.14737809,9.773943703043878,0.3066720599851366,stand
23/10/2020, 15:50:31,-8.717872,-3.5973196,2.6345215,-0.26427597,0.04985644,0.14737809,9.791971107063837,0.3066720599851366,stand
23/10/2020, 15:50:31,-8.717872,-3.5973196,2.6345215,-0.18975043,0.05596509,0.14126943,9.791971107063837,0.24309333581944456,stand
23/10/2020, 15:50:31,-8.751402,-3.4727786,2.6297317,-0.18975043,0.05596509,0.14126943,9.775618381107336,0.24309333581944456,stand
23/10/2020, 15:50:31,-8.751402,-3.4727786,2.6297317,-0.13599432,0.05718682,0.14126943,9.775618381107336,0.2042592423582843,stand
23/10/2020, 15:50:31,-8.787327,-3.3985329,2.6129665,-0.13599432,0.05718682,0.14126943,9.77725586711079,0.2042592423582843,stand
23/10/2020, 15:50:31,-8.787327,-3.3985329,2.6129665,-0.09812069,0.05718682,0.14493462,9.77725586711079,0.18413051725314636,stand
23/10/2020, 15:50:31,-8.787327,-3.3745828,2.6081765,-0.09812069,0.05718682,0.14493462,9.767676584849783,0.18413051725314636,stand
23/10/2020, 15:50:31,-8.787327,-3.3745828,2.6081765,-0.07246436,0.052299898,0.15837365,9.767676584849783,0.1818476761423228,stand
23/10/2020, 15:50:31,-8.784932,-3.417693,2.6776319,-0.07246436,0.052299898,0.15837365,9.799253530304913,0.1818476761423228,stand
23/10/2020, 15:50:31,-8.784932,-3.417693,2.6776319,-0.054138403,0.037639137,0.1766996,9.799253530304913,0.18860121363059218,stand
23/10/2020, 15:50:31,-8.871153,-3.4536183,2.7758276,-0.054138403,0.037639137,0.1766996,9.916151056868594,0.18860121363059218,stand
23/10/2020, 15:50:32,-4.86189,-4.287085,7.917935,1.5927536,-1.9672198,-2.5734148,10.23282776571361,3.609609645021623,stand
23/10/2020, 15:50:32,-4.5313773,-3.8655617,7.9347,1.5927536,-1.9672198,-2.5734148,9.921462195621352,3.609609645021623,stand
23/10/2020, 15:50:32,-4.5313773,-3.8655617,7.9347,1.5536582,-1.9672198,-2.5147717,9.921462195621352,3.550758300547789,stand
23/10/2020, 15:50:32,-4.375701,-3.3817677,7.7430983,1.5536582,-1.9672198,-2.5147717,9.515181688799862,3.550758300547789,stand
23/10/2020, 15:50:32,-4.375701,-3.3817677,7.7430983,1.5084542,-1.9562243,-2.4646807,9.515181688799862,3.4895413018074053,stand
23/10/2020, 15:50:32,-4.1218286,-3.0752053,7.443721,1.5084542,-1.9562243,-2.4646807,9.04739399235908,3.4895413018074053,stand
23/10/2020, 15:50:32,-4.1218286,-3.0752053,7.443721,1.4400374,-1.9183507,-2.3987074,9.04739399235908,3.3922815571901395,stand
23/10/2020, 15:50:32,-3.7985013,-2.6057813,7.2736745,1.4400374,-1.9183507,-2.3987074,8.609590501245814,3.3922815571901395,stand
23/10/2020, 15:50:32,-3.7985013,-2.6057813,7.2736745,1.4070506,-1.8560424,-2.3144078,8.609590501245814,3.2834689485105453,stand
23/10/2020, 15:50:32,-3.544629,-2.2656887,6.799461,1.4070506,-1.8560424,-2.3144078,7.995649372959035,3.2834689485105453,stand
23/10/2020, 15:50:32,-3.544629,-2.2656887,6.799461,1.4131593,-1.7876256,-2.2301085,7.995649372959035,3.1884178051722762,stand
23/10/2020, 15:50:32,-3.0823903,-1.9663111,6.710845,1.4131593,-1.7876256,-2.2301085,7.64218227157408,3.1884178051722762,stand
23/10/2020, 15:50:32,-3.0823903,-1.9663111,6.710845,1.4180462,-1.7082131,-2.151918,7.64218227157408,3.0918599398939977,stand
23/10/2020, 15:50:32,-2.6488917,-1.8058448,6.543194,1.4180462,-1.7082131,-2.151918,7.286363145170476,3.0918599398939977,stand
23/10/2020, 15:50:32,-2.6488917,-1.8058448,6.543194,1.4119376,-1.6349093,-2.0590663,7.286363145170476,2.984334114773069,stand
23/10/2020, 15:50:32,-2.42376,-1.6262183,6.720425,1.4119376,-1.6349093,-2.0590663,7.326889665341815,2.984334114773069,stand
23/10/2020, 15:50:32,-2.42376,-1.6262183,6.720425,1.4204897,-1.5701575,-2.001645,7.326889665341815,2.9137207520440365,stand
23/10/2020, 15:50:32,-2.2608986,-1.7339942,6.7539554,1.4204897,-1.5701575,-2.001645,7.330369127142531,2.9137207520440365,stand
23/10/2020, 15:50:32,-2.2608986,-1.7339942,6.7539554,1.369177,-1.4834148,-1.9417802,7.330369127142531,2.8010132760529403,stand
23/10/2020, 15:50:32,-2.0094216,-1.3483961,6.6413894,1.369177,-1.4834148,-1.9417802,7.068521756354264,2.8010132760529403,stand
23/10/2020, 15:50:32,-2.0094216,-1.3483961,6.6413894,1.2665517,-1.3856764,-1.8599243,7.068521756354264,2.642644659477646,stand
23/10/2020, 15:50:32,-1.9040406,-0.9053174,6.6653395,1.2665517,-1.3856764,-1.8599243,6.990831166736407,2.642644659477646,stand
23/10/2020, 15:50:32,-1.9040406,-0.9053174,6.6653395,1.1602612,-1.2818294,-1.7463034,6.990831166736407,2.457410862734355,stand
23/10/2020, 15:50:32,-1.5687379,-0.34009278,6.5384035,1.1602612,-1.2818294,-1.7463034,6.7325568737711,2.457410862734355,stand
23/10/2020, 15:50:32,-1.5687379,-0.34009278,6.5384035,1.0539707,-1.1950865,-1.640013,6.7325568737711,2.2866413121960556,stand
23/10/2020, 15:50:32,-1.4298267,0.019160157,6.7659307,1.0539707,-1.1950865,-1.640013,6.915387856362657,2.2866413121960556,stand
23/10/2020, 15:50:32,-1.4298267,0.019160157,6.7659307,0.944015,-1.1095654,-1.5532701,6.915387856362657,2.12954166529059,stand
23/10/2020, 15:50:32,-1.1831397,0.1580713,6.5455885,0.944015,-1.1095654,-1.5532701,6.653535508663688,2.12954166529059,stand
23/10/2020, 15:50:32,-1.1831397,0.1580713,6.5455885,0.84627664,-1.0497006,-1.472636,6.653535508663688,1.9966753072344083,stand
23/10/2020, 15:50:32,-1.1807446,-0.1460962,6.9862723,0.84627664,-1.0497006,-1.472636,7.086854250147538,1.9966753072344083,stand
23/10/2020, 15:50:33,-8.53106,-2.9674294,6.9790874,-1.323516,1.6955267,1.5706936,11.414564642389669,2.6633782889876185,stand
23/10/2020, 15:50:33,-8.655601,-3.68354,7.0269876,-1.323516,1.6955267,1.5706936,11.741654168774136,2.6633782889876185,stand
23/10/2020, 15:50:33,-8.655601,-3.68354,7.0269876,-1.2612077,1.6136708,1.5633632,11.741654168774136,2.576564160724916,stand
23/10/2020, 15:50:33,-8.641231,-4.191284,7.0365677,-1.2612077,1.6136708,1.5633632,11.905923479277595,2.576564160724916,stand
23/10/2020, 15:50:33,-8.641231,-4.191284,7.0365677,-1.1439216,1.5635799,1.5462589,11.905923479277595,2.4787608764102784,stand
23/10/2020, 15:50:33,-8.665181,-4.2511597,6.933582,-1.1439216,1.5635799,1.5462589,11.884118816224529,2.4787608764102784,stand
23/10/2020, 15:50:33,-8.665181,-4.2511597,6.933582,-1.002201,1.5183759,1.5169375,11.884118816224529,2.3687489148131284,stand
23/10/2020, 15:50:33,-8.713081,-4.119434,6.71324,-1.002201,1.5183759,1.5169375,11.745429559641067,2.3687489148131284,stand
23/10/2020, 15:50:33,-8.713081,-4.119434,6.71324,-0.8873583,1.4658415,1.4815073,11.745429559641067,2.265162256130726,stand
23/10/2020, 15:50:33,-8.818462,-3.9637575,6.559959,-0.8873583,1.4658415,1.4815073,11.683737136152837,2.265162256130726,stand
23/10/2020, 15:50:33,-8.818462,-3.9637575,6.559959,-0.8164979,1.4108636,1.4363033,11.683737136152837,2.1725957079333447,stand
23/10/2020, 15:50:33,-8.830438,-3.8775368,6.4138627,-0.8164979,1.4108636,1.4363033,11.582294915248298,2.1725957079333447,stand
23/10/2020, 15:50:33,-8.830438,-3.8775368,6.4138627,-0.75541145,1.3705466,1.3813254,11.582294915248298,2.0873677540457853,stand
23/10/2020, 15:50:33,-8.823253,-3.7290456,6.2270513,-0.75541145,1.3705466,1.3813254,11.425048643052945,2.0873677540457853,stand
23/10/2020, 15:50:33,-8.823253,-3.7290456,6.2270513,-0.6772207,1.3375598,1.3226824,11.425048643052945,1.9992955833484727,stand
23/10/2020, 15:50:33,-8.830438,-3.5494192,6.10251,-0.6772207,1.3375598,1.3226824,11.305557645586788,1.9992955833484727,stand
23/10/2020, 15:50:33,-8.830438,-3.5494192,6.10251,-0.5929213,1.3082384,1.2725915,11.305557645586788,1.9189925531334844,stand
23/10/2020, 15:50:33,-8.734636,-3.3769777,5.9947343,-0.5929213,1.3082384,1.2725915,11.119113672041712,1.9189925531334844,stand
23/10/2020, 15:50:33,-8.734636,-3.3769777,5.9947343,-0.5293914,1.2764734,1.2163918,11.119113672041712,1.840991207720926,stand
23/10/2020, 15:50:33,-8.710687,-3.187771,5.855823,-0.5293914,1.2764734,1.2163918,10.969439842008772,1.840991207720926,stand
23/10/2020, 15:50:33,-8.710687,-3.187771,5.855823,-0.49396122,1.2410432,1.1540836,10.969439842008772,1.7652464159451917,stand
23/10/2020, 15:50:33,-8.737032,-3.0105398,5.774392,-0.49396122,1.2410432,1.1540836,10.896911544895515,1.7652464159451917,stand
23/10/2020, 15:50:33,-8.737032,-3.0105398,5.774392,-0.47930044,1.1897305,1.0966623,10.896911544895515,1.6875591237514014,stand
23/10/2020, 15:50:33,-8.856783,-2.8907888,5.733677,-0.47930044,1.1897305,1.0966623,10.939575601162332,1.6875591237514014,stand
23/10/2020, 15:50:33,-8.856783,-2.8907888,5.733677,-0.4927395,1.128644,1.0380193,10.939575601162332,1.6106251999834031,stand
23/10/2020, 15:50:33,-8.890313,-2.7782228,5.736072,-0.4927395,1.128644,1.0380193,10.938862487387288,1.6106251999834031,stand
23/10/2020, 15:50:33,-8.890313,-2.7782228,5.736072,-0.5245045,1.0577837,0.9854849,10.938862487387288,1.5379180216024326,stand
23/10/2020, 15:50:33,-9.057964,-2.7422974,5.633086,-0.5245045,1.0577837,0.9854849,11.013563137782707,1.5379180216024326,stand
23/10/2020, 15:50:33,-9.057964,-2.7422974,5.633086,-0.56604326,0.9771495,0.9329505,11.013563137782707,1.4647944285444954,stand
23/10/2020, 15:50:33,-9.2184305,-2.7710378,5.6426663,-0.56604326,0.9771495,0.9329505,11.157858004202676,1.4647944285444954,stand
23/10/2020, 15:50:34,-8.863968,-2.680027,2.069297,-0.046808027,-0.15783766,-0.6162032,9.488649113663854,0.6378166570488181,stand
23/10/2020, 15:50:34,-8.804092,-2.6201515,1.9998415,-0.046808027,-0.15783766,-0.6162032,9.400883093267508,0.6378166570488181,stand
23/10/2020, 15:50:34,-8.804092,-2.6201515,1.9998415,-0.07979474,-0.1395117,-0.66018546,9.400883093267508,0.6794671097506378,stand
23/10/2020, 15:50:34,-8.784932,-2.6369166,1.9782863,-0.07979474,-0.1395117,-0.66018546,9.383068716991271,0.6794671097506378,stand
23/10/2020, 15:50:34,-8.784932,-2.6369166,1.9782863,-0.10178588,-0.113855384,-0.6980591,9.383068716991271,0.7145697282832963,stand
23/10/2020, 15:50:34,-8.823253,-2.6105714,1.9734962,-0.10178588,-0.113855384,-0.6980591,9.410608801649598,0.7145697282832963,stand
23/10/2020, 15:50:34,-8.823253,-2.6105714,1.9734962,-0.10911626,-0.08331213,-0.7224937,9.410608801649598,0.735421259240634,stand
23/10/2020, 15:50:34,-8.871153,-2.6057813,2.0309765,-0.10911626,-0.08331213,-0.7224937,9.466378152884353,0.735421259240634,stand
23/10/2020, 15:50:34,-8.871153,-2.6057813,2.0309765,-0.10545107,-0.051547155,-0.74081963,9.466378152884353,0.7500605081799445,stand
23/10/2020, 15:50:34,-8.954978,-2.6608667,2.0932472,-0.10545107,-0.051547155,-0.74081963,9.573584820618171,0.7500605081799445,stand
23/10/2020, 15:50:34,-8.954978,-2.6608667,2.0932472,-0.07979474,-0.023447363,-0.7469283,9.573584820618171,0.7515442948618245,stand
23/10/2020, 15:50:34,-9.026829,-2.694397,2.1627028,-0.07979474,-0.023447363,-0.7469283,9.66543822134862,0.7515442948618245,stand
23/10/2020, 15:50:34,-9.026829,-2.694397,2.1627028,-0.021151695,0.0058741583,-0.74448484,9.66543822134862,0.7448084180913237,stand
23/10/2020, 15:50:34,-9.108259,-2.787803,2.2728736,-0.021151695,0.0058741583,-0.74448484,9.792761891295743,0.7448084180913237,stand
23/10/2020, 15:50:34,-9.108259,-2.787803,2.2728736,0.0558173,0.03153049,-0.74081963,9.792761891295743,0.7435882403333454,stand
23/10/2020, 15:50:34,-9.137,-2.7351124,2.308799,0.0558173,0.03153049,-0.74081963,9.813060862166243,0.7435882403333454,stand
23/10/2020, 15:50:34,-9.137,-2.7351124,2.308799,0.12545592,0.05474336,-0.72982407,9.813060862166243,0.7425491161764983,stand
23/10/2020, 15:50:34,-9.16095,-2.699187,2.339934,0.12545592,0.05474336,-0.72982407,9.83279725488019,0.7425491161764983,stand
23/10/2020, 15:50:34,-9.16095,-2.699187,2.339934,0.19509453,0.07917796,-0.7237154,9.83279725488019,0.7537207965721846,stand
23/10/2020, 15:50:34,-9.038804,-2.6967921,2.3854396,0.19509453,0.07917796,-0.7237154,9.729490672669305,0.7537207965721846,stand
23/10/2020, 15:50:34,-9.038804,-2.6967921,2.3854396,0.26962006,0.09994737,-0.71638507,9.729490672669305,0.7719404236441819,stand
23/10/2020, 15:50:34,-9.026829,-2.6967921,2.44771,0.26962006,0.09994737,-0.71638507,9.733838388011891,0.7719404236441819,stand
23/10/2020, 15:50:34,-9.026829,-2.6967921,2.44771,0.32948482,0.12071678,-0.70905465,9.733838388011891,0.7911329110967734,stand
23/10/2020, 15:50:34,-8.976534,-2.6417067,2.5027955,0.32948482,0.12071678,-0.70905465,9.686111711812854,0.7911329110967734,stand
23/10/2020, 15:50:34,-8.976534,-2.6417067,2.5027955,0.3685802,0.13659927,-0.69317216,9.686111711812854,0.7968678424924246,stand
23/10/2020, 15:50:34,-8.914263,-2.44771,2.5411158,0.3685802,0.13659927,-0.69317216,9.587107723261209,0.7968678424924246,stand
23/10/2020, 15:50:34,-8.914263,-2.44771,2.5411158,0.39545825,0.14759484,-0.6736245,9.587107723261209,0.7949474529791001,stand
23/10/2020, 15:50:34,-8.947793,-2.42376,2.6441016,0.39545825,0.14759484,-0.6736245,9.639962930596631,0.7949474529791001,stand
23/10/2020, 15:50:34,-8.947793,-2.42376,2.6441016,0.41744938,0.15492523,-0.6455247,9.639962930596631,0.784198908613859,stand
23/10/2020, 15:50:34,-8.904683,-2.3710694,2.7375073,0.41744938,0.15492523,-0.6455247,9.612975504355708,0.784198908613859,stand
23/10/2020, 15:50:35,-9.038804,-2.411785,2.9099488,0.14744705,-0.21281551,-0.23624516,9.79716730708282,0.350489438371795,stand
23/10/2020, 15:50:35,-9.002879,-2.2513185,2.8261232,0.14744705,-0.21281551,-0.23624516,9.700888629295127,0.350489438371795,stand
23/10/2020, 15:50:35,-9.002879,-2.2513185,2.8261232,0.14744705,-0.22381109,-0.20692363,9.700888629295127,0.33859921245531166,stand
23/10/2020, 15:50:35,-8.878338,-2.0381618,2.8740237,0.14744705,-0.22381109,-0.20692363,9.551910729582055,0.33859921245531166,stand
23/10/2020, 15:50:35,-8.878338,-2.0381618,2.8740237,0.12789936,-0.22625454,-0.18493249,9.551910729582055,0.31898179750574646,stand
23/10/2020, 15:50:35,-8.859178,-2.0190015,2.804568,0.12789936,-0.22625454,-0.18493249,9.509311043015463,0.31898179750574646,stand
23/10/2020, 15:50:35,-8.859178,-2.0190015,2.804568,0.0765867,-0.23480666,-0.1653848,9.509311043015463,0.2972403416124409,stand
23/10/2020, 15:50:35,-8.842413,-1.9591261,2.8309133,0.0765867,-0.23480666,-0.1653848,9.488967911717914,0.2972403416124409,stand
23/10/2020, 15:50:35,-8.842413,-1.9591261,2.8309133,0.004504635,-0.24824569,-0.16171962,9.488967911717914,0.29630971645561693,stand
23/10/2020, 15:50:35,-8.868757,-2.0094216,2.8428884,0.004504635,-0.24824569,-0.16171962,9.527572851326134,0.29630971645561693,stand
23/10/2020, 15:50:35,-8.868757,-2.0094216,2.8428884,-0.060247052,-0.260463,-0.14705886,9.527572851326134,0.30511799275905904,stand
23/10/2020, 15:50:35,-8.878338,-1.954336,2.7422974,-0.060247052,-0.260463,-0.14705886,9.495499335668452,0.30511799275905904,stand
23/10/2020, 15:50:35,-8.878338,-1.954336,2.7422974,-0.14454642,-0.260463,-0.11162868,9.495499335668452,0.31811256482453515,stand
23/10/2020, 15:50:35,-8.923843,-1.9351759,2.5914114,-0.14454642,-0.260463,-0.11162868,9.491854364756668,0.31811256482453515,stand
23/10/2020, 15:50:35,-8.923843,-1.9351759,2.5914114,-0.23128925,-0.26534992,-0.08230716,9.491854364756668,0.36149656903413135,stand
23/10/2020, 15:50:35,-8.966953,-2.0094216,2.3519094,-0.23128925,-0.26534992,-0.08230716,9.485541841031798,0.36149656903413135,stand
23/10/2020, 15:50:35,-8.966953,-2.0094216,2.3519094,-0.30703652,-0.27512375,-0.05298564,9.485541841031798,0.4156584861154468,stand
23/10/2020, 15:50:35,-8.990904,-2.0166066,2.4213648,-0.30703652,-0.27512375,-0.05298564,9.527122419292867,0.4156584861154468,stand
23/10/2020, 15:50:35,-8.990904,-2.0166066,2.4213648,-0.322919,-0.27023685,-0.011446816,9.527122419292867,0.42123113882569824,stand
23/10/2020, 15:50:35,-8.878338,-2.0237916,2.323169,-0.322919,-0.27023685,-0.011446816,9.397751304036664,0.42123113882569824,stand
23/10/2020, 15:50:35,-8.878338,-2.0237916,2.323169,-0.31192344,-0.26168472,0.025205085,9.397751304036664,0.40793433522387396,stand
23/10/2020, 15:50:35,-8.847202,-2.1124072,2.215393,-0.31192344,-0.26168472,0.025205085,9.36179572540447,0.40793433522387396,stand
23/10/2020, 15:50:35,-8.847202,-2.1124072,2.215393,-0.29115403,-0.24458049,0.055748336,9.36179572540447,0.38431518529700665,stand
23/10/2020, 15:50:35,-8.796907,-2.0213966,2.2632935,-0.29115403,-0.24458049,0.055748336,9.305596278323133,0.38431518529700665,stand
23/10/2020, 15:50:35,-8.796907,-2.0213966,2.2632935,-0.30459306,-0.2323632,0.09117851,9.305596278323133,0.39380592190987784,stand
23/10/2020, 15:50:35,-8.816068,-1.9734962,2.184258,-0.30459306,-0.2323632,0.09117851,9.294553233006347,0.39380592190987784,stand
23/10/2020, 15:50:35,-8.816068,-1.9734962,2.184258,-0.35957092,-0.22625454,0.12294348,9.294553233006347,0.44226401929227116,stand
23/10/2020, 15:50:35,-8.792117,-2.0142114,2.2608986,-0.35957092,-0.22625454,0.12294348,9.298926470045371,0.44226401929227116,stand
23/10/2020, 15:50:35,-8.792117,-2.0142114,2.2608986,-0.42310086,-0.22625454,0.152265,9.298926470045371,0.5033786666885307,stand
23/10/2020, 15:50:35,-8.847202,-2.1435425,2.3590944,-0.42310086,-0.22625454,0.152265,9.403886931758661,0.5033786666885307,stand
23/10/2020, 15:50:36,-8.957374,-2.1483326,2.3950195,0.564057,0.084064886,-0.37918755,9.5176674479169,0.6848433376159879,stand
23/10/2020, 15:50:36,-9.017249,-2.076482,2.3734643,0.564057,0.084064886,-0.37918755,9.55279499419025,0.6848433376159879,stand
23/10/2020, 15:50:36,-9.017249,-2.076482,2.3734643,0.5151878,0.090173535,-0.39507005,9.55279499419025,0.6554617281079739,stand
23/10/2020, 15:50:36,-9.024434,-2.0812721,2.308799,0.5151878,0.090173535,-0.39507005,9.544771199534985,0.6554617281079739,stand
23/10/2020, 15:50:36,-9.024434,-2.0812721,2.308799,0.4712055,0.096282184,-0.40850908,9.544771199534985,0.6310186603276672,stand
23/10/2020, 15:50:36,-9.134604,-2.0501368,2.299219,0.4712055,0.096282184,-0.40850908,9.640044967085823,0.6310186603276672,stand
23/10/2020, 15:50:36,-9.134604,-2.0501368,2.299219,0.43333188,0.104834296,-0.41583946,9.640044967085823,0.6096631894556557,stand
23/10/2020, 15:50:36,-9.125025,-2.0573218,2.3638844,0.43333188,0.104834296,-0.41583946,9.648139724428713,0.6096631894556557,stand
23/10/2020, 15:50:36,-9.125025,-2.0573218,2.3638844,0.39912343,0.112164676,-0.41583946,9.648139724428713,0.5871991881311202,stand
23/10/2020, 15:50:36,-9.129815,-2.047742,2.4740553,0.39912343,0.112164676,-0.41583946,9.67820852310903,0.5871991881311202,stand
23/10/2020, 15:50:36,-9.129815,-2.047742,2.4740553,0.37224537,0.12193851,-0.41095254,9.67820852310903,0.5677302227499664,stand
23/10/2020, 15:50:36,-9.134604,-2.078877,2.6033864,0.37224537,0.12193851,-0.41095254,9.723186142212347,0.5677302227499664,stand
23/10/2020, 15:50:36,-9.134604,-2.078877,2.6033864,0.3453673,0.124381974,-0.3975135,9.723186142212347,0.5410789643965931,stand
23/10/2020, 15:50:36,-9.08431,-2.1195924,2.799778,0.3453673,0.124381974,-0.3975135,9.739410112155612,0.5410789643965931,stand
23/10/2020, 15:50:36,-9.08431,-2.1195924,2.799778,0.3245979,0.11949506,-0.36697027,9.739410112155612,0.5042916237469696,stand
23/10/2020, 15:50:36,-9.067544,-2.1507277,3.0033545,0.3245979,0.11949506,-0.36697027,9.791124669371984,0.5042916237469696,stand
23/10/2020, 15:50:36,-9.067544,-2.1507277,3.0033545,0.31115887,0.103612565,-0.3352053,9.791124669371984,0.46895414219307785,stand
23/10/2020, 15:50:36,-9.108259,-2.208208,3.06802,0.31115887,0.103612565,-0.3352053,9.861506780564852,0.46895414219307785,stand
23/10/2020, 15:50:36,-9.108259,-2.208208,3.06802,0.3001633,0.07917796,-0.3156576,9.861506780564852,0.44272662778884386,stand
23/10/2020, 15:50:36,-9.057964,-2.299219,3.1302907,0.3001633,0.07917796,-0.3156576,9.855548964368108,0.44272662778884386,stand
23/10/2020, 15:50:36,-9.057964,-2.299219,3.1302907,0.27695045,0.05596509,-0.30466202,9.855548964368108,0.41551484691024093,stand
23/10/2020, 15:50:36,-9.036409,-2.2872438,3.1135256,0.27695045,0.05596509,-0.30466202,9.827625383995565,0.41551484691024093,stand
23/10/2020, 15:50:36,-9.036409,-2.2872438,3.1135256,0.24640718,0.027865298,-0.30221856,9.827625383995565,0.3909335359536566,stand
23/10/2020, 15:50:36,-9.06994,-2.3064039,3.0823903,0.24640718,0.027865298,-0.30221856,9.853143327847475,0.3909335359536566,stand
23/10/2020, 15:50:36,-9.06994,-2.3064039,3.0823903,0.2146422,0.0070958887,-0.30588377,9.853143327847475,0.37374657476647477,stand
23/10/2020, 15:50:36,-9.031619,-2.299219,2.9506643,0.2146422,0.0070958887,-0.30588377,9.775631451897084,0.37374657476647477,stand
23/10/2020, 15:50:36,-9.031619,-2.299219,2.9506643,0.18532069,-0.0014562218,-0.30954894,9.775631451897084,0.36078584742552683,stand
23/10/2020, 15:50:36,-9.022039,-2.2489235,2.8261232,0.18532069,-0.0014562218,-0.30954894,9.71811837864344,0.36078584742552683,stand
23/10/2020, 15:50:36,-9.022039,-2.2489235,2.8261232,0.16455127,-2.3449166E-4,-0.3119924,9.71811837864344,0.3527271443444745,stand
23/10/2020, 15:50:36,-9.034014,-2.0932472,2.7734327,0.16455127,-2.3449166E-4,-0.3119924,9.679205404139639,0.3527271443444745,stand
23/10/2020, 15:50:37,-8.442444,-3.2428565,3.7122805,-0.25450212,0.10605603,0.47235826,9.776093443475036,0.5469383249738635,stand
23/10/2020, 15:50:37,-8.4448395,-3.2859669,3.7314405,-0.25450212,0.10605603,0.47235826,9.79982349980505,0.5469383249738635,stand
23/10/2020, 15:50:37,-8.4448395,-3.2859669,3.7314405,-0.26549768,0.09994737,0.4821321,9.79982349980505,0.5594013460568213,stand
23/10/2020, 15:50:37,-8.533455,-3.3218923,3.7410207,-0.26549768,0.09994737,0.4821321,9.89191874039772,0.5594013460568213,stand
23/10/2020, 15:50:37,-8.533455,-3.3218923,3.7410207,-0.26427597,0.097503915,0.48824075,9.89191874039772,0.5636735131813554,stand
23/10/2020, 15:50:37,-8.53585,-3.3218923,3.7338357,-0.26427597,0.097503915,0.48824075,9.8912701466077,0.5636735131813554,stand
23/10/2020, 15:50:37,-8.53585,-3.3218923,3.7338357,-0.25450212,0.09261699,0.4906842,9.8912701466077,0.5604642985324587,stand
23/10/2020, 15:50:37,-8.595725,-3.4655933,3.7529957,-0.25450212,0.09261699,0.4906842,9.99909013002667,0.5604642985324587,stand
23/10/2020, 15:50:37,-8.595725,-3.4655933,3.7529957,-0.24839348,0.08773007,0.49434942,9.99909013002667,0.5601582219858114,stand
23/10/2020, 15:50:37,-8.490345,-3.4584084,3.7266505,-0.24839348,0.08773007,0.49434942,9.89618463693385,0.5601582219858114,stand
23/10/2020, 15:50:37,-8.490345,-3.4584084,3.7266505,-0.23739791,0.07917796,0.49923635,9.89618463693385,0.5584477103582464,stand
23/10/2020, 15:50:37,-8.566985,-3.539839,3.7074904,-0.23739791,0.07917796,0.49923635,9.983445295593398,0.5584477103582464,stand
23/10/2020, 15:50:37,-8.566985,-3.539839,3.7074904,-0.23373272,0.07184758,0.50045806,9.983445295593398,0.55700209021045,stand
23/10/2020, 15:50:37,-8.473579,-3.647615,3.7170706,-0.23373272,0.07184758,0.50045806,9.94601711852631,0.55700209021045,stand
23/10/2020, 15:50:37,-8.473579,-3.647615,3.7170706,-0.23128925,0.06085201,0.49557114,9.94601711852631,0.5502621527872235,stand
23/10/2020, 15:50:37,-8.475974,-3.6164796,3.6332448,-0.23128925,0.06085201,0.49557114,9.905631178336886,0.5502621527872235,stand
23/10/2020, 15:50:37,-8.475974,-3.6164796,3.6332448,-0.24106309,0.052299898,0.48824075,9.905631178336886,0.5470152835722984,stand
23/10/2020, 15:50:37,-8.471185,-3.7146754,3.67875,-0.24106309,0.052299898,0.48824075,9.954546002005573,0.5470152835722984,stand
23/10/2020, 15:50:37,-8.471185,-3.7146754,3.67875,-0.24228483,0.04374779,0.47480172,9.954546002005573,0.5348387445400282,stand
23/10/2020, 15:50:37,-8.519085,-3.7338357,3.5877395,-0.24228483,0.04374779,0.47480172,9.969363648334006,0.5348387445400282,stand
23/10/2020, 15:50:37,-8.519085,-3.7338357,3.5877395,-0.22640234,0.041304328,0.4613627,9.969363648334006,0.5155769579413347,stand
23/10/2020, 15:50:37,-8.55501,-3.8392165,3.5733693,-0.22640234,0.041304328,0.4613627,10.034776749164493,0.5155769579413347,stand
23/10/2020, 15:50:37,-8.55501,-3.8392165,3.5733693,-0.21418503,0.04252606,0.44425848,10.034776749164493,0.49502453537101154,stand
23/10/2020, 15:50:37,-8.57896,-3.891907,3.6236646,-0.21418503,0.04252606,0.44425848,10.093386301996286,0.49502453537101154,stand
23/10/2020, 15:50:37,-8.57896,-3.891907,3.6236646,-0.18119833,0.04374779,0.43204117,10.093386301996286,0.47053828166286643,stand
23/10/2020, 15:50:37,-8.485555,-3.9398074,3.6404297,-0.18119833,0.04374779,0.43204117,10.038896832232046,0.47053828166286643,stand
23/10/2020, 15:50:37,-8.485555,-3.9398074,3.6404297,-0.15432027,0.044969518,0.41738042,10.038896832232046,0.4472621380890756,stand
23/10/2020, 15:50:37,-8.461604,-3.887117,3.6500099,-0.15432027,0.044969518,0.41738042,10.001549588690471,0.4472621380890756,stand
23/10/2020, 15:50:37,-8.461604,-3.887117,3.6500099,-0.11522491,0.044969518,0.39905447,10.001549588690471,0.4177840425633093,stand
23/10/2020, 15:50:37,-8.372989,-3.8751419,3.6140847,-0.11522491,0.044969518,0.39905447,9.908848196455343,0.4177840425633093,stand
23/10/2020, 15:50:38,-8.566985,-3.6691701,3.5542092,-0.19585909,-0.046660233,-0.28389263,9.974389556025814,0.3480416448434963,stand
23/10/2020, 15:50:38,-8.552615,-3.666775,3.523074,-0.19585909,-0.046660233,-0.28389263,9.95010124439494,0.3480416448434963,stand
23/10/2020, 15:50:38,-8.552615,-3.666775,3.523074,-0.1799766,-0.07353829,-0.29000127,9.95010124439494,0.3491420827187948,stand
23/10/2020, 15:50:38,-8.53106,-3.7290456,3.547024,-0.1799766,-0.07353829,-0.29000127,9.963239889856858,0.3491420827187948,stand
23/10/2020, 15:50:38,-8.53106,-3.7290456,3.547024,-0.14943334,-0.10163808,-0.29244474,9.963239889856858,0.34377979433897976,stand
23/10/2020, 15:50:38,-8.475974,-3.776946,3.4991236,-0.14943334,-0.10163808,-0.29244474,9.917223605181928,0.34377979433897976,stand
23/10/2020, 15:50:38,-8.475974,-3.776946,3.4991236,-0.11033799,-0.12485095,-0.2961099,9.917223605181928,0.3397694999923113,stand
23/10/2020, 15:50:38,-8.423284,-3.781736,3.4512234,-0.11033799,-0.12485095,-0.2961099,9.85718902052257,0.3397694999923113,stand
23/10/2020, 15:50:38,-8.423284,-3.781736,3.4512234,-0.06513398,-0.1431769,-0.29733166,9.85718902052257,0.3363750531514054,stand
23/10/2020, 15:50:38,-8.380174,-3.7482057,3.3266823,-0.06513398,-0.1431769,-0.29733166,9.764382825465875,0.3363750531514054,stand
23/10/2020, 15:50:38,-8.380174,-3.7482057,3.3266823,-0.016264774,-0.15905939,-0.29977512,9.764382825465875,0.33974925648173415,stand
23/10/2020, 15:50:38,-8.432864,-3.6955154,3.187771,-0.016264774,-0.15905939,-0.29977512,9.743301131147325,0.33974925648173415,stand
23/10/2020, 15:50:38,-8.432864,-3.6955154,3.187771,0.025274046,-0.1676115,-0.29366645,9.743301131147325,0.33907576684483154,stand
23/10/2020, 15:50:38,-8.401729,-3.5134938,3.1278956,0.025274046,-0.1676115,-0.29366645,9.62898817811358,0.33907576684483154,stand
23/10/2020, 15:50:38,-8.401729,-3.5134938,3.1278956,0.057039026,-0.17127669,-0.2875578,9.62898817811358,0.3395270960636582,stand
23/10/2020, 15:50:38,-8.447234,-3.4416432,3.0081446,0.057039026,-0.17127669,-0.2875578,9.604665900678032,0.3395270960636582,stand
23/10/2020, 15:50:38,-8.447234,-3.4416432,3.0081446,0.07536498,-0.17372015,-0.2790057,9.604665900678032,0.33719839094853193,stand
23/10/2020, 15:50:38,-8.420889,-3.307522,2.936294,0.07536498,-0.17372015,-0.2790057,9.5117240794517,0.33719839094853193,stand
23/10/2020, 15:50:38,-8.420889,-3.307522,2.936294,0.07536498,-0.17372015,-0.26801014,9.5117240794517,0.32815850676283226,stand
23/10/2020, 15:50:38,-8.487949,-3.283572,2.943479,0.07536498,-0.17372015,-0.26801014,9.565103152638196,0.32815850676283226,stand
23/10/2020, 15:50:38,-8.487949,-3.283572,2.943479,0.0643694,-0.17494188,-0.2582363,9.565103152638196,0.3184871476822219,stand
23/10/2020, 15:50:38,-8.538245,-3.2141163,2.8716285,0.0643694,-0.17494188,-0.2582363,9.564435440842187,0.3184871476822219,stand
23/10/2020, 15:50:38,-8.538245,-3.2141163,2.8716285,0.05948249,-0.17616361,-0.24601899,9.564435440842187,0.3083782242120221,stand
23/10/2020, 15:50:38,-8.600515,-3.2620168,2.8093581,0.05948249,-0.17616361,-0.24601899,9.617801777378068,0.3083782242120221,stand
23/10/2020, 15:50:38,-8.600515,-3.2620168,2.8093581,0.047265187,-0.17372015,-0.23746687,9.617801777378068,0.2979986644174211,stand
23/10/2020, 15:50:38,-8.689131,-3.3266823,2.7590625,0.047265187,-0.17372015,-0.23746687,9.704650180276055,0.2979986644174211,stand
23/10/2020, 15:50:38,-8.689131,-3.3266823,2.7590625,0.050930377,-0.16638978,-0.23624516,9.704650180276055,0.29341307918762405,stand
23/10/2020, 15:50:38,-8.710687,-3.3242872,2.7399025,0.050930377,-0.16638978,-0.23624516,9.7177164714575,0.29341307918762405,stand
23/10/2020, 15:50:38,-8.710687,-3.3242872,2.7399025,0.0643694,-0.14928555,-0.2423538,9.7177164714575,0.29183036137136537,stand
23/10/2020, 15:50:38,-8.679551,-3.297942,2.7183473,0.0643694,-0.14928555,-0.2423538,9.674732076694186,0.29183036137136537,stand
23/10/2020, 15:50:39,-8.62207,-3.056045,2.924319,-0.34368843,-0.017338712,0.4051631,9.603704995301742,0.5315820838618189,stand
23/10/2020, 15:50:39,-8.710687,-3.04407,2.9770093,-0.34368843,-0.017338712,0.4051631,9.695618033402209,0.5315820838618189,stand
23/10/2020, 15:50:39,-8.710687,-3.04407,2.9770093,-0.37667513,-0.012451792,0.38928062,9.695618033402209,0.5418289387282809,stand
23/10/2020, 15:50:39,-8.794512,-3.051255,3.0823903,-0.37667513,-0.012451792,0.38928062,9.805851555394295,0.5418289387282809,stand
23/10/2020, 15:50:39,-8.794512,-3.051255,3.0823903,-0.40110973,-0.010008331,0.38195026,9.805851555394295,0.5539631566145617,stand
23/10/2020, 15:50:39,-8.825647,-3.0608351,3.180586,-0.40110973,-0.010008331,0.38195026,9.867972983702735,0.5539631566145617,stand
23/10/2020, 15:50:39,-8.825647,-3.0608351,3.180586,-0.4206574,-0.007564872,0.37095466,9.867972983702735,0.5609075093460604,stand
23/10/2020, 15:50:39,-8.789722,-3.168611,3.2739918,-0.4206574,-0.007564872,0.37095466,9.90042115572637,0.5609075093460604,stand
23/10/2020, 15:50:39,-8.789722,-3.168611,3.2739918,-0.43043125,-0.014895253,0.33430278,9.90042115572637,0.5452075544905012,stand
23/10/2020, 15:50:39,-8.732242,-3.427273,3.3218923,-0.43043125,-0.014895253,0.33430278,9.951543224455618,0.5452075544905012,stand
23/10/2020, 15:50:39,-8.732242,-3.427273,3.3218923,-0.40966183,-0.028334282,0.28176838,9.951543224455618,0.49801512722874525,stand
23/10/2020, 15:50:39,-8.693921,-3.5063088,3.396138,-0.40966183,-0.028334282,0.28176838,9.970567599603786,0.49801512722874525,stand
23/10/2020, 15:50:39,-8.693921,-3.5063088,3.396138,-0.354684,-0.023447363,0.24022956,9.970567599603786,0.42902302703329287,stand
23/10/2020, 15:50:39,-8.602911,-3.417693,3.2452517,-0.354684,-0.023447363,0.24022956,9.809299702880521,0.42902302703329287,stand
23/10/2020, 15:50:39,-8.602911,-3.417693,3.2452517,-0.2899323,0.0022089682,0.19136035,9.809299702880521,0.34739661700192276,stand
23/10/2020, 15:50:39,-8.552615,-3.3721876,3.163821,-0.2899323,0.0022089682,0.19136035,9.722583951077102,0.34739661700192276,stand
23/10/2020, 15:50:39,-8.552615,-3.3721876,3.163821,-0.26794115,0.018091459,0.12538694,9.722583951077102,0.29638090950737067,stand
23/10/2020, 15:50:39,-8.689131,-3.410508,2.9650342,-0.26794115,0.018091459,0.12538694,9.794079135005662,0.29638090950737067,stand
23/10/2020, 15:50:39,-8.689131,-3.410508,2.9650342,-0.28748885,0.016869728,0.07407428,9.794079135005662,0.2973574025515285,stand
23/10/2020, 15:50:39,-8.820857,-3.3602126,2.907554,-0.28748885,0.016869728,0.07407428,9.876862724917332,0.2973574025515285,stand
23/10/2020, 15:50:39,-8.820857,-3.3602126,2.907554,-0.31681037,0.010761078,0.031313736,9.876862724917332,0.31853596514129023,stand
23/10/2020, 15:50:39,-8.842413,-3.3218923,2.7973828,-0.31681037,0.010761078,0.031313736,9.851324056041767,0.31853596514129023,stand
23/10/2020, 15:50:39,-8.842413,-3.3218923,2.7973828,-0.32902765,0.0034306985,-0.0028947059,9.851324056041767,0.3290582703448527,stand
23/10/2020, 15:50:39,-8.974138,-3.3147073,2.936294,-0.32902765,0.0034306985,-0.0028947059,10.007210638921858,0.3290582703448527,stand
23/10/2020, 15:50:39,-8.974138,-3.3147073,2.936294,-0.31681037,-0.010008331,-0.023664117,10.007210638921858,0.31785054245872135,stand
23/10/2020, 15:50:39,-8.945398,-3.3147073,2.8380983,-0.31681037,-0.010008331,-0.023664117,9.95300143331041,0.31785054245872135,stand
23/10/2020, 15:50:39,-8.945398,-3.3147073,2.8380983,-0.30703652,-0.016116982,-0.046876986,9.95300143331041,0.31101227134478826,stand
23/10/2020, 15:50:39,-8.935819,-3.412903,2.787803,-0.30703652,-0.016116982,-0.046876986,9.963363283188764,0.31101227134478826,stand
23/10/2020, 15:50:39,-8.935819,-3.412903,2.787803,-0.29604095,-0.028334282,-0.0798637,9.963363283188764,0.3079306530428128,stand
23/10/2020, 15:50:39,-9.065149,-3.4871485,2.794988,-0.29604095,-0.028334282,-0.0798637,10.106883507906712,0.3079306530428128,stand
23/10/2020, 15:50:40,-8.744217,-3.6500099,1.5615528,-0.07857301,-0.03810812,-0.013890276,9.603246774508955,0.08842446905674219,stand
23/10/2020, 15:50:40,-8.744217,-3.6500099,1.5615528,-0.061468784,-0.027112553,-0.017555466,9.603246774508955,0.06943843522107386,stand
23/10/2020, 15:50:40,-8.789722,-3.767366,1.4322218,-0.061468784,-0.027112553,-0.017555466,9.669722120454008,0.06943843522107386,stand
23/10/2020, 15:50:40,-8.789722,-3.767366,1.4322218,-0.040699374,-0.014895253,-0.017555466,9.669722120454008,0.046760046840672295,stand
23/10/2020, 15:50:40,-8.904683,-3.7577858,1.4106666,-0.040699374,-0.014895253,-0.017555466,9.767513279011832,0.046760046840672295,stand
23/10/2020, 15:50:40,-8.904683,-3.7577858,1.4106666,-0.001604015,-0.012451792,-0.010225086,9.767513279011832,0.016191737580378708,stand
23/10/2020, 15:50:40,-9.022039,-3.781736,1.4418018,-0.001604015,-0.012451792,-0.010225086,9.888251309729126,0.016191737580378708,stand
23/10/2020, 15:50:40,-9.022039,-3.781736,1.4418018,0.032604426,-0.012451792,-0.0016729758,9.888251309729126,0.03494130191937177,stand
23/10/2020, 15:50:40,-9.038804,-3.7338357,1.4801221,0.032604426,-0.012451792,-0.0016729758,9.891019621064926,0.03494130191937177,stand
23/10/2020, 15:50:40,-9.038804,-3.7338357,1.4801221,0.0680346,-0.017338712,0.0032139444,9.891019621064926,0.07028276259508974,stand
23/10/2020, 15:50:40,-9.041199,-3.7170706,1.453777,0.0680346,-0.017338712,0.0032139444,9.88298313332949,0.07028276259508974,stand
23/10/2020, 15:50:40,-9.041199,-3.7170706,1.453777,0.101021305,-0.025890823,0.0081008645,9.88298313332949,0.10460049117024091,stand
23/10/2020, 15:50:40,-9.045989,-3.671565,1.4226416,0.101021305,-0.025890823,0.0081008645,9.865810500427761,0.10460049117024091,stand
23/10/2020, 15:50:40,-9.045989,-3.671565,1.4226416,0.123012446,-0.03444293,0.011766055,9.865810500427761,0.12828412764251687,stand
23/10/2020, 15:50:40,-8.978929,-3.539839,1.4322218,0.123012446,-0.03444293,0.011766055,9.75719620309431,0.12828412764251687,stand
23/10/2020, 15:50:40,-8.978929,-3.539839,1.4322218,0.12789936,-0.039329853,0.016652975,9.75719620309431,0.13484215265499025,stand
23/10/2020, 15:50:40,-8.945398,-3.4823585,1.3028907,0.12789936,-0.039329853,0.016652975,9.687336877391376,0.13484215265499025,stand
23/10/2020, 15:50:40,-8.945398,-3.4823585,1.3028907,0.12056898,-0.040551584,0.020318165,9.687336877391376,0.12881823842895976,stand
23/10/2020, 15:50:40,-8.952583,-3.420088,1.3172607,0.12056898,-0.040551584,0.020318165,9.673723488267864,0.12881823842895976,stand
23/10/2020, 15:50:40,-8.952583,-3.420088,1.3172607,0.108351685,-0.03444293,0.021539895,9.673723488267864,0.11571676741332373,stand
23/10/2020, 15:50:40,-8.976534,-3.4344583,1.3124708,0.108351685,-0.03444293,0.021539895,9.700321838433448,0.11571676741332373,stand
23/10/2020, 15:50:40,-8.976534,-3.4344583,1.3124708,0.093690924,-0.029556014,0.020318165,9.700321838433448,0.1003213591090928,stand
23/10/2020, 15:50:40,-8.998089,-3.3434474,1.3148658,0.093690924,-0.029556014,0.020318165,9.688813946338223,0.1003213591090928,stand
23/10/2020, 15:50:40,-8.998089,-3.3434474,1.3148658,0.074143246,-0.024669092,0.021539895,9.688813946338223,0.08105400717021882,stand
23/10/2020, 15:50:40,-9.15137,-3.415298,1.3915064,0.074143246,-0.024669092,0.021539895,9.866515304113648,0.08105400717021882,stand
23/10/2020, 15:50:40,-9.15137,-3.415298,1.3915064,0.0643694,-0.030777743,0.021539895,9.866515304113648,0.07452956836307421,stand
23/10/2020, 15:50:40,-9.17053,-3.4751735,1.4394068,0.0643694,-0.030777743,0.021539895,9.911980064797557,0.07452956836307421,stand
23/10/2020, 15:50:40,-9.17053,-3.4751735,1.4394068,0.065591134,-0.047881965,0.0142095145,9.911980064797557,0.08244264498330703,stand
23/10/2020, 15:50:40,-9.216036,-3.542234,1.5328126,0.065591134,-0.047881965,0.0142095145,9.991609100822894,0.08244264498330703,stand
23/10/2020, 15:50:40,-9.216036,-3.542234,1.5328126,0.081473626,-0.0698731,0.015431244,9.991609100822894,0.10843581253028117,stand
23/10/2020, 15:50:41,-9.077125,-2.4525,2.3998096,0.1169038,-0.061320994,-0.037103146,9.704021527204443,0.13712550996088252,stand
23/10/2020, 15:50:41,-9.101074,-2.5195606,2.5387208,0.1169038,-0.061320994,-0.037103146,9.778693213489454,0.13712550996088252,stand
23/10/2020, 15:50:41,-9.101074,-2.5195606,2.5387208,0.061925948,-0.060099263,-0.06031602,9.778693213489454,0.1052842176958603,stand
23/10/2020, 15:50:41,-9.148975,-2.5770411,2.579436,0.061925948,-0.060099263,-0.06031602,9.848775652568863,0.1052842176958603,stand
23/10/2020, 15:50:41,-9.148975,-2.5770411,2.579436,0.024052314,-0.06376445,-0.08108543,9.848775652568863,0.1059210367180433,stand
23/10/2020, 15:50:41,-9.093889,-2.6393116,2.5698562,0.024052314,-0.06376445,-0.08108543,9.811674048389543,0.1059210367180433,stand
23/10/2020, 15:50:41,-9.093889,-2.6393116,2.5698562,-0.0028257454,-0.06865137,-0.098189645,9.811674048389543,0.1198424041256082,stand
23/10/2020, 15:50:41,-9.038804,-2.6776319,2.562671,-0.0028257454,-0.06865137,-0.098189645,9.769184892322132,0.1198424041256082,stand
23/10/2020, 15:50:41,-9.038804,-2.6776319,2.562671,-0.012599585,-0.07476002,-0.1165156,9.769184892322132,0.13900969371066835,stand
23/10/2020, 15:50:41,-9.026829,-2.7470875,2.6201515,-0.012599585,-0.07476002,-0.1165156,9.79261564497412,0.13900969371066835,stand
23/10/2020, 15:50:41,-9.026829,-2.7470875,2.6201515,-0.012599585,-0.07842521,-0.1409502,9.79261564497412,0.16179067768467226,stand
23/10/2020, 15:50:41,-9.043594,-2.7806177,2.6249416,-0.012599585,-0.07842521,-0.1409502,9.818795861158774,0.16179067768467226,stand
23/10/2020, 15:50:41,-9.043594,-2.7806177,2.6249416,0.0020611752,-0.07842521,-0.16416308,9.818795861158774,0.18194581708043578,stand
23/10/2020, 15:50:41,-9.065149,-2.8357031,2.6369166,0.0020611752,-0.07842521,-0.16416308,9.857559210204128,0.18194581708043578,stand
23/10/2020, 15:50:41,-9.065149,-2.8357031,2.6369166,0.030160967,-0.08086867,-0.18371075,9.857559210204128,0.2029755321543921,stand
23/10/2020, 15:50:41,-9.077125,-2.8620484,2.7399025,0.030160967,-0.08086867,-0.18371075,9.904169707087906,0.2029755321543921,stand
23/10/2020, 15:50:41,-9.077125,-2.8620484,2.7399025,0.057039026,-0.08453386,-0.20325844,9.904169707087906,0.22740584392502125,stand
23/10/2020, 15:50:41,-9.05557,-2.804568,2.7662477,0.057039026,-0.08453386,-0.20325844,9.875275704193346,0.22740584392502125,stand
23/10/2020, 15:50:41,-9.05557,-2.804568,2.7662477,0.08269536,-0.08819905,-0.22402784,9.875275704193346,0.25457036071829076,stand
23/10/2020, 15:50:41,-9.043594,-2.7782228,2.7686427,0.08269536,-0.08819905,-0.22402784,9.857509983652816,0.25457036071829076,stand
23/10/2020, 15:50:41,-9.043594,-2.7782228,2.7686427,0.101021305,-0.0943077,-0.2423538,9.857509983652816,0.27898854612598817,stand
23/10/2020, 15:50:41,-8.957374,-2.692002,2.7686427,0.101021305,-0.0943077,-0.2423538,9.754322089868262,0.27898854612598817,stand
23/10/2020, 15:50:41,-8.957374,-2.692002,2.7686427,0.10957342,-0.10285981,-0.2582363,9.754322089868262,0.2987849645905647,stand
23/10/2020, 15:50:41,-8.981323,-2.6153615,2.7638526,0.10957342,-0.10285981,-0.2582363,9.754135732077033,0.2987849645905647,stand
23/10/2020, 15:50:41,-8.981323,-2.6153615,2.7638526,0.11812553,-0.10774673,-0.27167532,9.754135732077033,0.3152308303500307,stand
23/10/2020, 15:50:41,-8.950189,-2.6464968,2.7446926,0.11812553,-0.10774673,-0.27167532,9.728471569220863,0.3152308303500307,stand
23/10/2020, 15:50:41,-8.950189,-2.6464968,2.7446926,0.13156456,-0.11019019,-0.2826709,9.728471569220863,0.33068707302964323,stand
23/10/2020, 15:50:41,-8.983719,-2.5914114,2.682422,0.13156456,-0.11019019,-0.2826709,9.72717867317023,0.33068707302964323,stand
23/10/2020, 15:50:41,-8.983719,-2.5914114,2.682422,0.15111224,-0.10896846,-0.29244474,9.72717867317023,0.3467462453936258,stand
23/10/2020, 15:50:41,-9.0076685,-2.574646,2.684817,0.15111224,-0.10896846,-0.29244474,9.745518788364008,0.3467462453936258,stand
23/10/2020, 15:50:42,-8.861572,-2.6129665,2.6297317,0.108351685,0.04741298,-0.016333736,9.605755864210062,0.11939375745119825,stand
23/10/2020, 15:50:42,-8.847202,-2.6512868,2.574646,0.108351685,0.04741298,-0.016333736,9.58807136345755,0.11939375745119825,stand
23/10/2020, 15:50:42,-8.847202,-2.6512868,2.574646,0.10468649,0.04985644,-0.018777195,9.58807136345755,0.11746279852228789,stand
23/10/2020, 15:50:42,-8.969349,-2.6057813,2.5962012,0.10468649,0.04985644,-0.018777195,9.694306404744514,0.11746279852228789,stand
23/10/2020, 15:50:42,-8.969349,-2.6057813,2.5962012,0.10346477,0.05474336,-0.021220656,9.694306404744514,0.11896264064689842,stand
23/10/2020, 15:50:42,-8.990904,-2.6153615,2.6441016,0.10346477,0.05474336,-0.021220656,9.729734889455125,0.11896264064689842,stand
23/10/2020, 15:50:42,-8.990904,-2.6153615,2.6441016,0.10590822,0.05718682,-0.018777195,9.729734889455125,0.12181735096267851,stand
23/10/2020, 15:50:42,-9.077125,-2.6464968,2.7015822,0.10590822,0.05718682,-0.018777195,9.833447129091146,0.12181735096267851,stand
23/10/2020, 15:50:42,-9.077125,-2.6464968,2.7015822,0.114460334,0.058408547,-0.018777195,9.833447129091146,0.12986650665944507,stand
23/10/2020, 15:50:42,-9.0004835,-2.7422974,2.7973828,0.114460334,0.058408547,-0.018777195,9.816020031670854,0.12986650665944507,stand
23/10/2020, 15:50:42,-9.0004835,-2.7422974,2.7973828,0.11934725,0.05352163,-0.021220656,9.816020031670854,0.13250904727723548,stand
23/10/2020, 15:50:42,-8.919053,-2.682422,2.818938,0.11934725,0.05352163,-0.021220656,9.730945828497868,0.13250904727723548,stand
23/10/2020, 15:50:42,-8.919053,-2.682422,2.818938,0.11812553,0.044969518,-0.023664117,9.730945828497868,0.12859194508414207,stand
23/10/2020, 15:50:42,-8.808882,-2.6536818,2.8644435,0.11812553,0.044969518,-0.023664117,9.635531200182049,0.12859194508414207,stand
23/10/2020, 15:50:42,-8.808882,-2.6536818,2.8644435,0.10957342,0.03275222,-0.03221623,9.635531200182049,0.11881467440399644,stand
23/10/2020, 15:50:42,-8.739427,-2.6441016,2.8141482,0.10957342,0.03275222,-0.03221623,9.554490092037964,0.11881467440399644,stand
23/10/2020, 15:50:42,-8.739427,-2.6441016,2.8141482,0.10590822,0.019313188,-0.045655258,9.554490092037964,0.11693568068194385,stand
23/10/2020, 15:50:42,-8.703502,-2.5914114,2.7518775,0.10590822,0.019313188,-0.045655258,9.488897970337112,0.11693568068194385,stand
23/10/2020, 15:50:42,-8.703502,-2.5914114,2.7518775,0.10590822,0.013204537,-0.05665083,9.488897970337112,0.12083140227691581,stand
23/10/2020, 15:50:42,-8.737032,-2.5459058,2.7135572,0.10590822,0.013204537,-0.05665083,9.496354903980436,0.12083140227691581,stand
23/10/2020, 15:50:42,-8.737032,-2.5459058,2.7135572,0.108351685,0.013204537,-0.06886813,9.496354903980436,0.12906303445480682,stand
23/10/2020, 15:50:42,-8.840017,-2.4836354,2.6441016,0.108351685,0.013204537,-0.06886813,9.555397662991904,0.12906303445480682,stand
23/10/2020, 15:50:42,-8.840017,-2.4836354,2.6441016,0.11201687,0.013204537,-0.077420235,9.555397662991904,0.13680654977289017,stand
23/10/2020, 15:50:42,-8.851993,-2.4572902,2.6441016,0.11201687,0.013204537,-0.077420235,9.559671620097632,0.13680654977289017,stand
23/10/2020, 15:50:42,-8.851993,-2.4572902,2.6441016,0.10590822,0.015647998,-0.083528884,9.559671620097632,0.13578838631363888,stand
23/10/2020, 15:50:42,-8.878338,-2.3926246,2.6464968,0.10590822,0.015647998,-0.083528884,9.568358317002362,0.13578838631363888,stand
23/10/2020, 15:50:42,-8.878338,-2.3926246,2.6464968,0.10468649,0.015647998,-0.08597235,9.568358317002362,0.13636482545527115,stand
23/10/2020, 15:50:42,-8.883128,-2.4165747,2.6297317,0.10468649,0.015647998,-0.08597235,9.57419907646658,0.13636482545527115,stand
23/10/2020, 15:50:42,-8.883128,-2.4165747,2.6297317,0.09246919,0.019313188,-0.084750615,9.57419907646658,0.12691027403626587,stand
23/10/2020, 15:50:42,-8.880733,-2.430945,2.6297317,0.09246919,0.019313188,-0.084750615,9.575614453474339,0.12691027403626587,stand
23/10/2020, 15:50:43,-9.060359,-2.3782544,2.5770411,-0.08590339,0.037639137,0.14737809,9.715314733454761,0.17468943250401356,stand
23/10/2020, 15:50:43,-8.986114,-2.3902297,2.6536818,-0.08590339,0.037639137,0.14737809,9.669822210776827,0.17468943250401356,stand
23/10/2020, 15:50:43,-8.986114,-2.3902297,2.6536818,-0.0944555,0.02908703,0.15837365,9.669822210776827,0.18668184581924033,stand
23/10/2020, 15:50:43,-8.952583,-2.4093897,2.5938063,-0.0944555,0.02908703,0.15837365,9.627135493863404,0.18668184581924033,stand
23/10/2020, 15:50:43,-8.952583,-2.4093897,2.5938063,-0.11278145,0.022978378,0.16326056,9.627135493863404,0.19975403175066198,stand
23/10/2020, 15:50:43,-8.962164,-2.43813,2.5890162,-0.11278145,0.022978378,0.16326056,9.64198446998175,0.19975403175066198,stand
23/10/2020, 15:50:43,-8.962164,-2.43813,2.5890162,-0.1274422,0.021756649,0.16326056,9.64198446998175,0.20825195539594002,stand
23/10/2020, 15:50:43,-8.978929,-2.4908204,2.5962012,-0.1274422,0.021756649,0.16326056,9.672931565537223,0.20825195539594002,stand
23/10/2020, 15:50:43,-8.978929,-2.4908204,2.5962012,-0.12988566,0.021756649,0.16570403,9.672931565537223,0.21166355519047408,stand
23/10/2020, 15:50:43,-8.969349,-2.5004005,2.6177564,-0.12988566,0.021756649,0.16570403,9.672325009841185,0.21166355519047408,stand
23/10/2020, 15:50:43,-8.969349,-2.5004005,2.6177564,-0.12133356,0.021756649,0.16692576,9.672325009841185,0.20750757511414142,stand
23/10/2020, 15:50:43,-8.933423,-2.5219557,2.663262,-0.12133356,0.021756649,0.16692576,9.657084023981401,0.20750757511414142,stand
23/10/2020, 15:50:43,-8.933423,-2.5219557,2.663262,-0.11155972,0.019313188,0.17059095,9.657084023981401,0.2047433589348319,stand
23/10/2020, 15:50:43,-8.926238,-2.5147705,2.6345215,-0.11155972,0.019313188,0.17059095,9.640669067152237,0.2047433589348319,stand
23/10/2020, 15:50:43,-8.926238,-2.5147705,2.6345215,-0.10300761,0.018091459,0.17425615,9.640669067152237,0.20323157338004047,stand
23/10/2020, 15:50:43,-8.998089,-2.5243506,2.6393116,-0.10300761,0.018091459,0.17425615,9.711020252835871,0.20323157338004047,stand
23/10/2020, 15:50:43,-8.998089,-2.5243506,2.6393116,-0.10422934,0.013204537,0.18158652,9.711020252835871,0.20978984399572256,stand
23/10/2020, 15:50:43,-9.038804,-2.5147705,2.5914114,-0.10422934,0.013204537,0.18158652,9.733419863252914,0.20978984399572256,stand
23/10/2020, 15:50:43,-9.038804,-2.5147705,2.5914114,-0.11522491,0.008317618,0.19013864,9.733419863252914,0.22248295429827308,stand
23/10/2020, 15:50:43,-9.019644,-2.5818312,2.5698562,-0.11522491,0.008317618,0.19013864,9.727486167187806,0.22248295429827308,stand
23/10/2020, 15:50:43,-9.019644,-2.5818312,2.5698562,-0.12133356,0.0022089682,0.2011342,9.727486167187806,0.23490781412081324,stand
23/10/2020, 15:50:43,-8.954978,-2.5985963,2.5938063,-0.12133356,0.0022089682,0.2011342,9.678438130507711,0.23490781412081324,stand
23/10/2020, 15:50:43,-8.954978,-2.5985963,2.5938063,-0.12133356,-0.006343142,0.21090804,9.678438130507711,0.2434014588852775,stand
23/10/2020, 15:50:43,-8.875943,-2.6249416,2.5842261,-0.12133356,-0.006343142,0.21090804,9.609938108007237,0.2434014588852775,stand
23/10/2020, 15:50:43,-8.875943,-2.6249416,2.5842261,-0.1274422,-0.010008331,0.22068188,9.609938108007237,0.2550336652123501,stand
23/10/2020, 15:50:43,-8.842413,-2.5818312,2.548301,-0.1274422,-0.010008331,0.22068188,9.557612519779564,0.2550336652123501,stand
23/10/2020, 15:50:43,-8.842413,-2.5818312,2.548301,-0.13232912,-0.012451792,0.22312534,9.557612519779564,0.25971322676837966,stand
23/10/2020, 15:50:43,-8.813672,-2.560276,2.5315359,-0.13232912,-0.012451792,0.22312534,9.520740647126702,0.25971322676837966,stand
23/10/2020, 15:50:43,-8.813672,-2.560276,2.5315359,-0.14821161,-0.014895253,0.2219036,9.520740647126702,0.2672634688559808,stand
23/10/2020, 15:50:43,-8.835227,-2.6345215,2.5195606,-0.14821161,-0.014895253,0.2219036,9.557725948673948,0.2672634688559808,stand
23/10/2020, 15:50:44,-9.072334,-2.4261549,2.430945,-0.012599585,0.027865298,-0.06031602,9.700668535151788,0.06762578273205118,stand
23/10/2020, 15:50:44,-9.091495,-2.4261549,2.454895,-0.012599585,0.027865298,-0.06031602,9.724608488843494,0.06762578273205118,stand
23/10/2020, 15:50:44,-9.091495,-2.4261549,2.454895,-0.0064909356,0.03275222,-0.05665083,9.724608488843494,0.0657583189428324,stand
23/10/2020, 15:50:44,-9.067544,-2.4572902,2.4716604,-0.0064909356,0.03275222,-0.05665083,9.7143056312071,0.0657583189428324,stand
23/10/2020, 15:50:44,-9.067544,-2.4572902,2.4716604,0.0069480953,0.03519568,-0.05298564,9.7143056312071,0.06398819958173378,stand
23/10/2020, 15:50:44,-9.10347,-2.4932153,2.4788454,0.0069480953,0.03519568,-0.05298564,9.758788871455575,0.06398819958173378,stand
23/10/2020, 15:50:44,-9.10347,-2.4932153,2.4788454,0.020387124,0.03886087,-0.048098717,9.758788871455575,0.0651098188846292,stand
23/10/2020, 15:50:44,-9.105865,-2.5315359,2.555486,0.020387124,0.03886087,-0.048098717,9.790605246160414,0.0651098188846292,stand
23/10/2020, 15:50:44,-9.105865,-2.5315359,2.555486,0.035047885,0.037639137,-0.040768337,9.790605246160414,0.06562862308083824,stand
23/10/2020, 15:50:44,-9.14658,-2.5075855,2.555486,0.035047885,0.037639137,-0.040768337,9.822342626059726,0.06562862308083824,stand
23/10/2020, 15:50:44,-9.14658,-2.5075855,2.555486,0.050930377,0.033973947,-0.033437956,9.822342626059726,0.06975836370683024,stand
23/10/2020, 15:50:44,-9.1130495,-2.5530908,2.572251,0.050930377,0.033973947,-0.033437956,9.807263616003139,0.06975836370683024,stand
23/10/2020, 15:50:44,-9.1130495,-2.5530908,2.572251,0.058260757,0.02542184,-0.027329307,9.807263616003139,0.06919159482322937,stand
23/10/2020, 15:50:44,-9.062755,-2.5027955,2.663262,0.058260757,0.02542184,-0.027329307,9.771922559209312,0.06919159482322937,stand
23/10/2020, 15:50:44,-9.062755,-2.5027955,2.663262,0.05948249,0.011982808,-0.022442386,9.771922559209312,0.06469478206079904,stand
23/10/2020, 15:50:44,-9.010064,-2.4980054,2.5938063,0.05948249,0.011982808,-0.022442386,9.703046811008791,0.06469478206079904,stand
23/10/2020, 15:50:44,-9.010064,-2.4980054,2.5938063,0.05948249,9.872383E-4,-0.022442386,9.703046811008791,0.06358303060046193,stand
23/10/2020, 15:50:44,-8.981323,-2.4692652,2.560276,0.05948249,9.872383E-4,-0.022442386,9.66004406187637,0.06358303060046193,stand
23/10/2020, 15:50:44,-8.981323,-2.4692652,2.560276,0.058260757,-0.007564872,-0.028551036,9.66004406187637,0.06532001864207054,stand
23/10/2020, 15:50:44,-9.0076685,-2.43813,2.4620802,0.058260757,-0.007564872,-0.028551036,9.6511350755714,0.06532001864207054,stand
23/10/2020, 15:50:44,-9.0076685,-2.43813,2.4620802,0.054595567,-0.016116982,-0.03221623,9.6511350755714,0.06540885619104349,stand
23/10/2020, 15:50:44,-9.096285,-2.4189699,2.4860303,0.054595567,-0.016116982,-0.03221623,9.735202126917867,0.06540885619104349,stand
23/10/2020, 15:50:44,-9.096285,-2.4189699,2.4860303,0.053373836,-0.022225633,-0.034659687,9.735202126917867,0.06740948801173965,stand
23/10/2020, 15:50:44,-9.125025,-2.3662794,2.4860303,0.053373836,-0.022225633,-0.034659687,9.74913854646646,0.06740948801173965,stand
23/10/2020, 15:50:44,-9.125025,-2.3662794,2.4860303,0.047265187,-0.025890823,-0.038324878,9.74913854646646,0.06612963690300369,stand
23/10/2020, 15:50:44,-9.1130495,-2.3686745,2.572251,0.047265187,-0.025890823,-0.038324878,9.760879361598034,0.06612963690300369,stand
23/10/2020, 15:50:44,-9.1130495,-2.3686745,2.572251,0.038713075,-0.031999473,-0.039546605,9.760879361598034,0.06392653923027995,stand
23/10/2020, 15:50:44,-9.19927,-2.3543043,2.5243506,0.038713075,-0.031999473,-0.039546605,9.82556197244039,0.06392653923027995,stand
23/10/2020, 15:50:44,-9.19927,-2.3543043,2.5243506,0.016721934,-0.039329853,-0.037103146,9.82556197244039,0.05659597048956697,stand
23/10/2020, 15:50:44,-9.187295,-2.3758595,2.543511,0.016721934,-0.039329853,-0.037103146,9.824486999848688,0.05659597048956697,stand
23/10/2020, 15:50:45,-9.060359,-2.3782544,2.3734643,-0.0064909356,-0.11263365,-0.046876986,9.663308558001026,0.12217169805811166,stand
23/10/2020, 15:50:45,-9.0004835,-2.3519094,2.3375392,-0.0064909356,-0.11263365,-0.046876986,9.591885673826484,0.12217169805811166,stand
23/10/2020, 15:50:45,-9.0004835,-2.3519094,2.3375392,-0.033368994,-0.09797289,-0.0676464,9.591885673826484,0.12364551208241484,stand
23/10/2020, 15:50:45,-8.866363,-2.4069948,2.3614893,-0.033368994,-0.09797289,-0.0676464,9.485918037271993,0.12364551208241484,stand
23/10/2020, 15:50:45,-8.866363,-2.4069948,2.3614893,-0.038255915,-0.06620791,-0.08963754,9.485918037271993,0.11782143590092749,stand
23/10/2020, 15:50:45,-8.763377,-2.6273365,2.5147705,-0.038255915,-0.06620791,-0.08963754,9.488084504784771,0.11782143590092749,stand
23/10/2020, 15:50:45,-8.763377,-2.6273365,2.5147705,-0.008934394,-0.027112553,-0.10796349,9.488084504784771,0.1116737595108576,stand
23/10/2020, 15:50:45,-8.801697,-2.955454,2.7901978,-0.008934394,-0.027112553,-0.10796349,9.694832603052424,0.1116737595108576,stand
23/10/2020, 15:50:45,-8.801697,-2.955454,2.7901978,0.05215211,0.009539349,-0.12506771,9.694832603052424,0.13584098753317053,stand
23/10/2020, 15:50:45,-8.962164,-3.1135256,3.1278956,0.05215211,0.009539349,-0.12506771,9.98990264762767,0.13584098753317053,stand
23/10/2020, 15:50:45,-8.962164,-3.1135256,3.1278956,0.14256014,0.030308757,-0.12995464,9.98990264762767,0.19526961235530835,stand
23/10/2020, 15:50:45,-9.081915,-3.187771,3.417693,0.14256014,0.030308757,-0.12995464,10.213896783782763,0.19526961235530835,stand
23/10/2020, 15:50:45,-9.081915,-3.187771,3.417693,0.23785508,0.022978378,-0.1446154,10.213896783782763,0.27931461909383454,stand
23/10/2020, 15:50:45,-9.175321,-3.302732,3.7410207,0.23785508,0.022978378,-0.1446154,10.44460544513527,0.27931461909383454,stand
23/10/2020, 15:50:45,-9.175321,-3.302732,3.7410207,0.33437175,-0.030777743,-0.16294135,10.44460544513527,0.3732313193655567,stand
23/10/2020, 15:50:45,-9.192085,-3.278782,4.1888895,0.33437175,-0.030777743,-0.16294135,10.62034074310918,0.3732313193655567,stand
23/10/2020, 15:50:45,-9.192085,-3.278782,4.1888895,0.410119,-0.1431769,-0.18371075,10.62034074310918,0.47164272188695044,stand
23/10/2020, 15:50:45,-9.115445,-3.1326857,4.7062135,0.410119,-0.1431769,-0.18371075,10.726299677155335,0.47164272188695044,stand
23/10/2020, 15:50:45,-9.115445,-3.1326857,4.7062135,0.43211016,-0.3007801,-0.21914093,10.726299677155335,0.5702723911508834,stand
23/10/2020, 15:50:45,-8.964559,-3.046465,5.0678616,0.43211016,-0.3007801,-0.21914093,10.739063282596458,0.5702723911508834,stand
23/10/2020, 15:50:45,-8.964559,-3.046465,5.0678616,0.3526977,-0.45105287,-0.26801014,10.739063282596458,0.6321975941624285,stand
23/10/2020, 15:50:45,-8.770562,-3.1063404,4.703819,0.3526977,-0.45105287,-0.26801014,10.425834394868389,0.6321975941624285,stand
23/10/2020, 15:50:45,-8.770562,-3.1063404,4.703819,0.17188165,-0.57200414,-0.33764875,10.425834394868389,0.686104010817272,stand
23/10/2020, 15:50:45,-8.811277,-3.06802,4.3301954,0.17188165,-0.57200414,-0.33764875,10.286007439117654,0.686104010817272,stand
23/10/2020, 15:50:45,-8.811277,-3.06802,4.3301954,-0.0064909356,-0.6636339,-0.3889614,10.286007439117654,0.7692483585606943,stand
23/10/2020, 15:50:45,-9.010064,-3.0608351,4.095484,-0.0064909356,-0.6636339,-0.3889614,10.35967927012057,0.7692483585606943,stand
23/10/2020, 15:50:45,-9.010064,-3.0608351,4.095484,-0.12866393,-0.7161683,-0.41095254,10.35967927012057,0.8356634528874946,stand
23/10/2020, 15:50:45,-9.110655,-3.1015503,4.040398,-0.12866393,-0.7161683,-0.41095254,10.437838039517999,0.8356634528874946,stand
23/10/2020, 15:50:45,-9.110655,-3.1015503,4.040398,-0.23861964,-0.7381594,-0.4305002,10.437838039517999,0.8872142298176913,stand
23/10/2020, 15:50:45,-9.125025,-3.03928,4.0020776,-0.23861964,-0.7381594,-0.4305002,10.41728971524623,0.8872142298176913,stand
23/10/2020, 15:51:00,-9.297466,-6.375542,5.9875493,-0.3559057,-1.1168958,-1.1439905,12.764840921622612,1.6379375428857241,stand
23/10/2020, 15:51:00,-9.304651,-6.5096636,5.8175025,-0.3559057,-1.1168958,-1.1439905,12.759137523656694,1.6379375428857241,stand
23/10/2020, 15:51:00,-9.304651,-6.5096636,5.8175025,-0.19585909,-1.147439,-1.2942634,12.759137523656694,1.7407167204995806,stand
23/10/2020, 15:51:00,-9.2328005,-6.3635674,5.5947657,-0.19585909,-1.147439,-1.2942634,12.531599939536845,1.7407167204995806,stand
23/10/2020, 15:51:00,-9.2328005,-6.3635674,5.5947657,-3.8228463E-4,-1.1572129,-1.427432,12.531599939536845,1.8375809317057672,stand
23/10/2020, 15:51:00,-9.072334,-6.3060865,5.3935843,-3.8228463E-4,-1.1572129,-1.427432,12.294906587327992,1.8375809317057672,stand
23/10/2020, 15:51:00,-9.072334,-6.3060865,5.3935843,0.19509453,-1.1535476,-1.5349442,12.294906587327992,1.929970898201553,stand
23/10/2020, 15:51:00,-8.947793,-6.1623855,5.1732426,0.19509453,-1.1535476,-1.5349442,12.033305155902756,1.929970898201553,stand
23/10/2020, 15:51:00,-8.947793,-6.1623855,5.1732426,0.3600281,-1.147439,-1.6241305,12.033305155902756,2.020899881250614,stand
23/10/2020, 15:51:00,-8.739427,-5.951624,5.017566,0.3600281,-1.147439,-1.6241305,11.70364795175637,2.020899881250614,stand
23/10/2020, 15:51:00,-8.739427,-5.951624,5.017566,0.48097935,-1.1498824,-1.6876605,11.70364795175637,2.098039219866713,stand
23/10/2020, 15:51:00,-8.646021,-5.740862,4.8187795,0.48097935,-1.1498824,-1.6876605,11.442543775548758,2.098039219866713,stand
23/10/2020, 15:51:00,-8.646021,-5.740862,4.8187795,0.5445093,-1.1559911,-1.7279775,11.442543775548758,2.1491188961027743,stand
23/10/2020, 15:51:00,-8.610096,-5.5253105,4.6750784,0.5445093,-1.1559911,-1.7279775,11.248073924918128,2.1491188961027743,stand
23/10/2020, 15:51:00,-8.610096,-5.5253105,4.6750784,0.54084414,-1.1547694,-1.7450818,11.248073924918128,2.1613225646059004,stand
23/10/2020, 15:51:00,-8.610096,-5.5253105,4.6750784,0.14744705,0.2392246,2.4344566,11.248073924918128,2.4506219442902553,stand
23/10/2020, 15:51:00,-8.610096,-5.5253105,4.6750784,-0.049251486,0.39316258,2.4491174,11.248073924918128,2.4809632542821984,stand
23/10/2020, 15:51:00,-8.610096,-5.5253105,4.6750784,-0.1518768,0.48723578,2.4894345,11.248073924918128,2.5412102053609607,stand
23/10/2020, 15:51:00,-8.610096,-5.5253105,4.6750784,-0.2447283,0.5422136,2.5334167,11.248073924918128,2.602323570772535,stand
23/10/2020, 15:51:00,-8.610096,-5.5253105,4.6750784,-0.3107017,0.58008724,2.523643,11.248073924918128,2.6080281502975313,stand
23/10/2020, 15:51:00,-8.610096,-5.5253105,4.6750784,-0.2984844,0.59596974,2.4869912,11.248073924918128,2.5747617244862098,stand
23/10/2020, 15:51:00,-8.610096,-5.5253105,4.6750784,-0.1885287,0.56786996,2.4381218,11.248073924918128,2.5104695287333594,stand
23/10/2020, 15:51:00,-8.610096,-5.5253105,4.6750784,-0.034590725,0.49700963,2.3635964,11.248073924918128,2.415533734739253,stand
23/10/2020, 15:51:00,-8.610096,-5.5253105,4.6750784,0.057039026,0.45913598,2.284184,11.248073924918128,2.3305698333618983,stand
23/10/2020, 15:51:00,-8.610096,-5.5253105,4.6750784,0.15111224,0.4518056,2.2182105,11.248073924918128,2.268792816028772,stand
23/10/2020, 15:51:00,-8.610096,-5.5253105,4.6750784,0.25373757,0.45913598,2.170563,11.248073924918128,2.233054469263421,stand
23/10/2020, 15:51:00,-8.610096,-5.5253105,4.6750784,0.22197258,0.5092269,2.14735,11.248073924918128,2.2180388224791154,stand
23/10/2020, 15:51:00,-8.610096,-5.5253105,4.6750784,0.05948249,0.58375245,2.1449068,11.248073924918128,2.223719878753906,stand
23/10/2020, 15:51:00,-8.610096,-5.5253105,4.6750784,-0.09567723,0.6436172,2.1876671,11.248073924918128,2.282385753157041,stand
23/10/2020, 15:51:00,-8.610096,-5.5253105,4.6750784,-0.22273715,0.6558345,2.2096584,11.248073924918128,2.315668564121415,stand
23/10/2020, 15:51:01,-8.904683,-2.1746778,2.7063723,-0.24961519,0.076734506,0.90729415,9.557565375460035,0.9441284927477801,stand
23/10/2020, 15:51:01,-8.904683,-2.1746778,2.7063723,-0.27282807,0.082843155,0.9097376,9.557565375460035,0.953373286006519,stand
23/10/2020, 15:51:01,-8.904683,-2.1746778,2.7063723,-0.29970613,0.090173535,0.917068,9.557565375460035,0.9690040023601483,stand
23/10/2020, 15:51:01,-8.904683,-2.1746778,2.7063723,-0.32169726,0.10239083,0.930507,9.557565375460035,0.9898567057672603,stand
23/10/2020, 15:51:01,-8.904683,-2.1746778,2.7063723,-0.3265842,0.117051594,0.9280636,9.557565375460035,0.9907877177022906,stand
23/10/2020, 15:51:01,-8.904683,-2.1746778,2.7063723,-0.2935975,0.1256037,0.9121811,9.557565375460035,0.9664626730304855,stand
23/10/2020, 15:51:01,-8.904683,-2.1746778,2.7063723,-0.22762406,0.13904274,0.89141166,9.557565375460035,0.9304624364394106,stand
23/10/2020, 15:51:01,-8.904683,-2.1746778,2.7063723,-0.15065508,0.15248176,0.87186396,9.557565375460035,0.8978276044388566,stand
23/10/2020, 15:51:01,-8.904683,-2.1746778,2.7063723,-0.09567723,0.16469906,0.8498728,9.557565375460035,0.8709556452278513,stand
23/10/2020, 15:51:01,-8.904683,-2.1746778,2.7063723,-0.06391225,0.17569463,0.8242165,9.557565375460035,0.8451545377919004,stand
23/10/2020, 15:51:01,-8.899893,-2.3782544,2.7542725,-0.06391225,0.17569463,0.8242165,9.615102850262245,0.8451545377919004,stand
23/10/2020, 15:51:01,-8.935819,-2.2944288,2.7399025,-0.06391225,0.17569463,0.8242165,9.623945379429887,0.8451545377919004,stand
23/10/2020, 15:51:01,-9.012459,-2.2848487,2.6393116,-0.06391225,0.17569463,0.8242165,9.66493210786804,0.8451545377919004,stand
23/10/2020, 15:51:01,-9.093889,-2.2944288,2.6297317,-0.06391225,0.17569463,0.8242165,9.740570499590707,0.8451545377919004,stand
23/10/2020, 15:51:01,-9.086704,-2.3686745,2.7111623,-0.06391225,0.17569463,0.8242165,9.773904764270258,0.8451545377919004,stand
23/10/2020, 15:51:01,-9.1202345,-2.5004005,2.7279274,-0.06391225,0.17569463,0.8242165,9.842371064510846,0.8451545377919004,stand
23/10/2020, 15:51:01,-9.144185,-2.5818312,2.6896071,-0.06391225,0.17569463,0.8242165,9.875016938885908,0.8451545377919004,stand
23/10/2020, 15:51:01,-9.18011,-2.6393116,2.675237,-0.06391225,0.17569463,0.8242165,9.919540178810779,0.8451545377919004,stand
23/10/2020, 15:51:01,-9.182506,-2.6536818,2.6776319,-0.06391225,0.17569463,0.8242165,9.926235360993422,0.8451545377919004,stand
23/10/2020, 15:51:01,-9.230406,-2.804568,2.682422,-0.06391225,0.17569463,0.8242165,10.013060506272296,0.8451545377919004,stand
23/10/2020, 15:51:01,-9.223221,-2.926714,2.792593,-0.06391225,0.17569463,0.8242165,10.071347108201968,0.8451545377919004,stand
23/10/2020, 15:51:01,-9.256751,-3.0704153,2.7734327,-0.06391225,0.17569463,0.8242165,10.139369762057983,0.8451545377919004,stand
23/10/2020, 15:51:01,-9.137,-3.1302907,2.8285182,-0.06391225,0.17569463,0.8242165,10.063995510231251,0.8451545377919004,stand
23/10/2020, 15:51:01,-9.065149,-3.1326857,2.802173,-0.06391225,0.17569463,0.8242165,9.992138128180432,0.8451545377919004,stand
23/10/2020, 15:51:01,-9.045989,-3.1566358,2.8213332,-0.06391225,0.17569463,0.8242165,9.987701829481296,0.8451545377919004,stand
23/10/2020, 15:51:01,-8.995694,-3.1446607,2.8955786,-0.06391225,0.17569463,0.8242165,9.959707825965657,0.8451545377919004,stand
23/10/2020, 15:51:01,-9.002879,-3.1901662,2.9458742,-0.06391225,0.17569463,0.8242165,9.995357339867049,0.8451545377919004,stand
23/10/2020, 15:51:01,-9.010064,-3.2476466,2.943479,-0.06391225,0.17569463,0.8242165,10.01960741576096,0.8451545377919004,stand
23/10/2020, 15:51:01,-8.993299,-3.182981,2.936294,-0.06391225,0.17569463,0.8242165,9.981613572691954,0.8451545377919004,stand
23/10/2020, 15:51:01,-8.974138,-3.1326857,2.9913795,-0.06391225,0.17569463,0.8242165,9.964799459589592,0.8451545377919004,stand
23/10/2020, 15:51:02,-10.595567,-4.1960745,4.7948294,3.126025,-0.12973787,0.8804161,12.36379652488512,3.250230218793512,stand
23/10/2020, 15:51:02,-10.595567,-4.1960745,4.7948294,3.0380604,-0.1395117,0.7142608,12.36379652488512,3.1240107532023527,stand
23/10/2020, 15:51:02,-10.595567,-4.1960745,4.7948294,2.871905,-0.1553942,0.56643146,12.36379652488512,2.931353065606133,stand
23/10/2020, 15:51:02,-10.712923,-4.3349857,4.7133985,2.871905,-0.1553942,0.56643146,12.480983398341426,2.931353065606133,stand
23/10/2020, 15:51:02,-10.693763,-4.4523416,4.5792775,2.871905,-0.1553942,0.56643146,12.45590985347501,2.931353065606133,stand
23/10/2020, 15:51:02,-10.461446,-4.524192,4.387676,2.871905,-0.1553942,0.56643146,12.213183817075615,2.931353065606133,stand
23/10/2020, 15:51:02,-10.202784,-4.502637,4.0787187,2.871905,-0.1553942,0.56643146,11.874614854327488,2.931353065606133,stand
23/10/2020, 15:51:02,-9.898616,-4.3301954,3.7003052,2.871905,-0.1553942,0.56643146,11.420396082130122,2.931353065606133,stand
23/10/2020, 15:51:02,-9.587264,-4.054768,3.027305,2.871905,-0.1553942,0.56643146,10.840726510958426,2.931353065606133,stand
23/10/2020, 15:51:02,-9.414823,-3.7649708,2.5075855,2.871905,-0.1553942,0.56643146,10.445184264576566,2.931353065606133,stand
23/10/2020, 15:51:02,-9.24717,-3.2117214,2.059717,2.871905,-0.1553942,0.56643146,10.003386909148745,2.931353065606133,stand
23/10/2020, 15:51:02,-9.043594,-2.7734327,1.707649,2.871905,-0.1553942,0.56643146,9.612210627798792,2.931353065606133,stand
23/10/2020, 15:51:02,-8.782537,-2.2728736,1.4130616,2.871905,-0.1553942,0.56643146,9.18126690409721,2.931353065606133,stand
23/10/2020, 15:51:02,-8.56938,-1.8369801,1.2645704,2.871905,-0.1553942,0.56643146,8.85482379024536,2.931353065606133,stand
23/10/2020, 15:51:02,-8.528665,-1.4010864,1.0705738,2.871905,-0.1553942,0.56643146,8.709035031820807,2.931353065606133,stand
23/10/2020, 15:51:02,-8.643626,-1.0514137,1.0035132,2.871905,-0.1553942,0.56643146,8.764974818131824,2.931353065606133,stand
23/10/2020, 15:51:02,-8.828042,-0.91250247,1.0633887,2.871905,-0.1553942,0.56643146,8.938555944963815,2.931353065606133,stand
23/10/2020, 15:51:02,-8.995694,-0.8933423,1.089734,2.871905,-0.1553942,0.56643146,9.10538818624094,2.931353065606133,stand
23/10/2020, 15:51:02,-9.036409,-0.97956306,1.2454102,2.871905,-0.1553942,0.56643146,9.174272985216385,2.931353065606133,stand
23/10/2020, 15:51:02,-8.873548,-1.0873389,1.4130616,2.871905,-0.1553942,0.56643146,9.050905770609791,2.931353065606133,stand
23/10/2020, 15:51:02,-8.794512,-1.3531861,1.5807129,2.871905,-0.1553942,0.56643146,9.03732281900846,2.931353065606133,stand
23/10/2020, 15:51:02,-8.760982,-1.6765138,1.6741188,2.871905,-0.1553942,0.56643146,9.075691158000287,2.931353065606133,stand
23/10/2020, 15:51:02,-8.727451,-1.9327809,1.7172291,2.871905,-0.1553942,0.56643146,9.102358175685751,2.931353065606133,stand
23/10/2020, 15:51:02,-8.844808,-2.1171973,1.8106349,2.871905,-0.1553942,0.56643146,9.27316260977221,2.931353065606133,stand
23/10/2020, 15:51:02,-8.976534,-2.3878345,1.7771046,2.871905,-0.1553942,0.56643146,9.45716740489213,2.931353065606133,stand
23/10/2020, 15:51:02,-9.06994,-2.5962012,1.7651294,2.871905,-0.1553942,0.56643146,9.597903267310368,2.931353065606133,stand
23/10/2020, 15:51:02,-9.134604,-2.7973828,1.8058448,2.871905,-0.1553942,0.56643146,9.722521515598475,2.931353065606133,stand
23/10/2020, 15:51:02,-9.134604,-2.7973828,1.8058448,2.6385546,-0.17494188,0.42715424,9.722521515598475,2.6786257007217227,stand
23/10/2020, 15:51:02,-9.134604,-2.7973828,1.8058448,2.3587785,-0.18960264,0.31353337,9.722521515598475,2.3870668687672,stand
23/10/2020, 15:51:02,-9.134604,-2.7973828,1.8058448,2.030133,-0.21403724,0.20479938,9.722521515598475,2.0516322188950866,stand
23/10/2020, 15:51:03,-8.828042,-3.5685792,3.8464015,-2.1042013,0.6607214,1.6806493,10.269561222948793,2.772868186996703,stand
23/10/2020, 15:51:03,-8.828042,-3.5685792,3.8464015,-1.6753742,0.70226026,1.6940883,10.269561222948793,2.4839451107813013,stand
23/10/2020, 15:51:03,-9.0148535,-3.8487966,4.598438,-1.6753742,0.70226026,1.6940883,10.827116356994582,2.4839451107813013,stand
23/10/2020, 15:51:03,-9.0148535,-3.8487966,4.598438,-1.1879039,0.70226026,1.6696537,10.827116356994582,2.166109051319481,stand
23/10/2020, 15:51:03,-9.15137,-3.8655617,5.134922,-1.1879039,0.70226026,1.6696537,11.182913995654943,2.166109051319481,stand
23/10/2020, 15:51:03,-9.15137,-3.8655617,5.134922,-0.72242475,0.6619432,1.6171193,11.182913995654943,1.8908043736866562,stand
23/10/2020, 15:51:03,-9.381292,-3.7482057,5.5229154,-0.72242475,0.6619432,1.6171193,11.513482784140862,1.8908043736866562,stand
23/10/2020, 15:51:03,-9.381292,-3.7482057,5.5229154,-0.28382364,0.5776438,1.5535893,11.513482784140862,1.681626617655742,stand
23/10/2020, 15:51:03,-9.565708,-3.7098854,5.6187162,-0.28382364,0.5776438,1.5535893,11.697691830883164,1.681626617655742,stand
23/10/2020, 15:51:03,-9.565708,-3.7098854,5.6187162,0.09124746,0.47501847,1.4705117,11.697691830883164,1.548022362074014,stand
23/10/2020, 15:51:03,-9.812395,-3.8008962,5.4414845,0.09124746,0.47501847,1.4705117,11.846504219739414,1.548022362074014,stand
23/10/2020, 15:51:03,-9.812395,-3.8008962,5.4414845,0.40645382,0.38216698,1.3739951,11.846504219739414,1.4829425979017226,stand
23/10/2020, 15:51:03,-9.8866415,-3.7050953,5.094207,0.40645382,0.38216698,1.3739951,11.722813413853615,1.4829425979017226,stand
23/10/2020, 15:51:03,-9.8866415,-3.7050953,5.094207,0.6825648,0.32352394,1.2725915,11.722813413853615,1.4798822561449885,stand
23/10/2020, 15:51:03,-9.977652,-3.6811452,4.773274,0.6825648,0.32352394,1.2725915,11.657122519893779,1.4798822561449885,stand
23/10/2020, 15:51:03,-9.977652,-3.6811452,4.773274,0.9427933,0.27954167,1.1663009,11.657122519893779,1.5255361494861948,stand
23/10/2020, 15:51:03,-9.989627,-3.6955154,4.4427614,0.9427933,0.27954167,1.1663009,11.540693582507043,1.5255361494861948,stand
23/10/2020, 15:51:03,-9.989627,-3.6955154,4.4427614,1.1798089,0.25755054,1.057567,11.540693582507043,1.6052193539181157,stand
23/10/2020, 15:51:03,-10.068663,-3.5877395,4.176914,1.1798089,0.25755054,1.057567,11.475907557791807,1.6052193539181157,stand
23/10/2020, 15:51:03,-10.068663,-3.5877395,4.176914,1.3850595,0.2477767,0.9500547,11.475907557791807,1.697759402453184,stand
23/10/2020, 15:51:03,-10.083033,-3.3410523,3.8679566,1.3850595,0.2477767,0.9500547,11.30447988898409,1.697759402453184,stand
23/10/2020, 15:51:03,-10.083033,-3.3410523,3.8679566,1.5475496,0.23678114,0.83765554,11.30447988898409,1.775568049366597,stand
23/10/2020, 15:51:03,-10.066268,-3.1614258,3.6140847,1.5475496,0.23678114,0.83765554,11.152845934001316,1.775568049366597,stand
23/10/2020, 15:51:03,-10.066268,-3.1614258,3.6140847,1.6465098,0.22822903,0.71548253,11.152845934001316,1.8096955978870268,stand
23/10/2020, 15:51:03,-10.063872,-2.8452833,3.3626075,1.6465098,0.22822903,0.71548253,10.985640280231458,1.8096955978870268,stand
23/10/2020, 15:51:03,-10.063872,-2.8452833,3.3626075,1.6648357,0.21967691,0.5908661,10.985640280231458,1.7801849791797806,stand
23/10/2020, 15:51:03,-10.049502,-2.6345215,3.1542408,1.6648357,0.21967691,0.5908661,10.857367853671915,1.7801849791797806,stand
23/10/2020, 15:51:03,-10.049502,-2.6345215,3.1542408,1.6220751,0.21723345,0.4894625,10.857367853671915,1.7081836766898912,stand
23/10/2020, 15:51:03,-9.960887,-2.3998096,2.9027638,1.6220751,0.21723345,0.4894625,10.649149871136057,1.7081836766898912,stand
23/10/2020, 15:51:03,-9.960887,-2.3998096,2.9027638,1.536554,0.20868134,0.39050236,10.649149871136057,1.5990741476663435,stand
23/10/2020, 15:51:04,-9.287886,-2.802173,2.320774,0.64102596,0.030308757,-0.29366645,9.975118316231192,0.7057427915637794,stand
23/10/2020, 15:51:04,-9.352551,-2.7830129,2.3998096,0.64102596,0.030308757,-0.29366645,10.048605154236563,0.7057427915637794,stand
23/10/2020, 15:51:04,-9.352551,-2.7830129,2.3998096,0.654465,0.022978378,-0.2790057,10.048605154236563,0.7118262794004366,stand
23/10/2020, 15:51:04,-9.2328005,-2.7327175,2.339934,0.654465,0.022978378,-0.2790057,9.90896772754618,0.7118262794004366,stand
23/10/2020, 15:51:04,-9.2328005,-2.7327175,2.339934,0.6715692,0.015647998,-0.26067975,9.90896772754618,0.7205581315786522,stand
23/10/2020, 15:51:04,-8.976534,-2.7614577,2.315984,0.6715692,0.015647998,-0.26067975,9.67303422611417,0.7205581315786522,stand
23/10/2020, 15:51:04,-8.976534,-2.7614577,2.315984,0.67645615,0.011982808,-0.24968418,9.67303422611417,0.721164826708823,stand
23/10/2020, 15:51:04,-8.772957,-2.823728,2.3495142,0.67645615,0.011982808,-0.24968418,9.510963639245933,0.721164826708823,stand
23/10/2020, 15:51:04,-8.772957,-2.823728,2.3495142,0.67767787,0.008317618,-0.24357553,9.510963639245933,0.7201704770021948,stand
23/10/2020, 15:51:04,-8.710687,-2.799778,2.3016138,0.67767787,0.008317618,-0.24357553,9.434630113769902,0.7201704770021948,stand
23/10/2020, 15:51:04,-8.710687,-2.799778,2.3016138,0.68012136,0.004652428,-0.2386886,9.434630113769902,0.7208043851437149,stand
23/10/2020, 15:51:04,-8.823253,-2.8452833,2.2680836,0.68012136,0.004652428,-0.2386886,9.544088630958143,0.7208043851437149,stand
23/10/2020, 15:51:04,-8.823253,-2.8452833,2.2680836,0.6825648,0.0034306985,-0.22891477,9.544088630958143,0.7199364137690512,stand
23/10/2020, 15:51:04,-8.966953,-2.8596535,2.2608986,0.6825648,0.0034306985,-0.22891477,9.679645215718233,0.7199364137690512,stand
23/10/2020, 15:51:04,-8.966953,-2.8596535,2.2608986,0.69600385,0.0034306985,-0.21669747,9.679645215718233,0.728965656311747,stand
23/10/2020, 15:51:04,-9.163345,-2.9171338,2.2920337,0.69600385,0.0034306985,-0.21669747,9.885847751873477,0.728965656311747,stand
23/10/2020, 15:51:04,-9.163345,-2.9171338,2.2920337,0.7167733,0.0058741583,-0.20203671,9.885847751873477,0.7447262988369177,stand
23/10/2020, 15:51:04,-9.292676,-2.8859987,2.2561085,0.7167733,0.0058741583,-0.20203671,9.988635594067103,0.7447262988369177,stand
23/10/2020, 15:51:04,-9.292676,-2.8859987,2.2561085,0.7350992,0.0058741583,-0.18004556,9.988635594067103,0.7568498781203593,stand
23/10/2020, 15:51:04,-9.333391,-2.9338992,2.315984,0.7350992,0.0058741583,-0.18004556,10.054040846402692,0.7568498781203593,stand
23/10/2020, 15:51:04,-9.333391,-2.9338992,2.315984,0.74609476,0.004652428,-0.15561096,10.054040846402692,0.7621639016003582,stand
23/10/2020, 15:51:04,-9.347761,-2.9027638,2.2656887,0.74609476,0.004652428,-0.15561096,10.046891142077069,0.7621639016003582,stand
23/10/2020, 15:51:04,-9.347761,-2.9027638,2.2656887,0.7558686,0.0070958887,-0.13850674,10.046891142077069,0.7684867142384233,stand
23/10/2020, 15:51:04,-9.256751,-2.8764186,2.2369483,0.7558686,0.0070958887,-0.13850674,9.948123520781923,0.7684867142384233,stand
23/10/2020, 15:51:04,-9.256751,-2.8764186,2.2369483,0.7693076,0.0070958887,-0.12995464,9.948123520781923,0.7802389140982487,stand
23/10/2020, 15:51:04,-9.163345,-2.8955786,2.2632935,0.7693076,0.0070958887,-0.12995464,9.872880573214193,0.7802389140982487,stand
23/10/2020, 15:51:04,-9.163345,-2.8955786,2.2632935,0.77908146,0.013204537,-0.13117637,9.872880573214193,0.7901579123372638,stand
23/10/2020, 15:51:04,-9.024434,-2.912344,2.193838,0.77908146,0.013204537,-0.13117637,9.733194888547965,0.7901579123372638,stand
23/10/2020, 15:51:04,-9.024434,-2.912344,2.193838,0.79007703,0.020534918,-0.14339367,9.733194888547965,0.8032466249791711,stand
23/10/2020, 15:51:04,-8.931028,-2.8285182,2.1722827,0.79007703,0.020534918,-0.14339367,9.616787131041258,0.8032466249791711,stand
23/10/2020, 15:51:23,-8.672366,-2.6345215,2.1459377,0.8487201,0.06085201,-0.43294367,9.314273266812695,0.9547088318816024,stand
23/10/2020, 15:51:23,-8.720266,-2.560276,2.1555176,0.8487201,0.06085201,-0.43294367,9.340466501482226,0.9547088318816024,stand
23/10/2020, 15:51:23,-8.720266,-2.560276,2.1555176,0.8707112,0.06207374,-0.46470866,9.340466501482226,0.9889111643814327,stand
23/10/2020, 15:51:23,-8.775352,-2.5698562,2.1411476,0.8707112,0.06207374,-0.46470866,9.391244230511418,0.9889111643814327,stand
23/10/2020, 15:51:23,-8.775352,-2.5698562,2.1411476,0.885372,0.0645172,-0.49158671,9.391244230511418,1.0147430787223481,stand
23/10/2020, 15:51:23,-8.796907,-2.5530908,2.1387525,0.885372,0.0645172,-0.49158671,9.406280615525313,1.0147430787223481,stand
23/10/2020, 15:51:23,-8.796907,-2.5530908,2.1387525,0.8902589,0.06207374,-0.517243,9.406280615525313,1.0314816638134359,stand
23/10/2020, 15:51:23,-8.789722,-2.5267458,2.1171973,0.8902589,0.06207374,-0.517243,9.387555019226511,1.0314816638134359,stand
23/10/2020, 15:51:23,-8.789722,-2.5267458,2.1171973,0.89758927,0.058408547,-0.54167765,9.387555019226511,1.0499965380787826,stand
23/10/2020, 15:51:23,-8.847202,-2.5123756,2.1746778,0.89758927,0.058408547,-0.54167765,9.450621324687251,1.0499965380787826,stand
23/10/2020, 15:51:23,-8.847202,-2.5123756,2.1746778,0.8914806,0.04985644,-0.5648905,9.450621324687251,1.0565626579066865,stand
23/10/2020, 15:51:23,-8.851993,-2.42376,2.184258,0.8914806,0.04985644,-0.5648905,9.434159649455582,1.0565626579066865,stand
23/10/2020, 15:51:23,-8.851993,-2.42376,2.184258,0.8780416,0.0400826,-0.5856599,9.434159649455582,1.0562013318288397,stand
23/10/2020, 15:51:23,-8.854387,-2.4189699,2.1483326,0.8780416,0.0400826,-0.5856599,9.426925391425065,1.0562013318288397,stand
23/10/2020, 15:51:23,-8.854387,-2.4189699,2.1483326,0.8523853,0.030308757,-0.60765105,9.426925391425065,1.0472435700789289,stand
23/10/2020, 15:51:23,-8.847202,-2.3303542,2.184258,0.8523853,0.030308757,-0.60765105,9.406089636933038,1.0472435700789289,stand
23/10/2020, 15:51:23,-8.847202,-2.3303542,2.184258,0.81817687,0.020534918,-0.6345291,9.406089636933038,1.0355975388311525,stand
23/10/2020, 15:51:23,-9.407638,-3.9374123,1.8681153,0.81817687,0.020534918,-0.6345291,10.368062271076566,1.0355975388311525,stand
23/10/2020, 15:51:24,-9.347761,-4.038003,1.9255958,0.81817687,0.020534918,-0.6345291,10.36310887697316,1.0355975388311525,stand
23/10/2020, 15:51:24,-9.4507475,-4.016448,1.8130299,0.81817687,0.020534918,-0.6345291,10.427634448341498,1.0355975388311525,stand
23/10/2020, 15:51:24,-9.5489435,-3.9206471,1.7675245,0.81817687,0.020534918,-0.6345291,10.472723578940982,1.0355975388311525,stand
23/10/2020, 15:51:24,-9.699829,-3.7074904,1.7531544,0.81817687,0.020534918,-0.6345291,10.5311784873768,1.0355975388311525,stand
23/10/2020, 15:51:24,-9.72378,-3.5182838,1.6525636,0.81817687,0.020534918,-0.6345291,10.471923357204725,1.0355975388311525,stand
23/10/2020, 15:51:24,-9.536968,-3.3937428,1.583108,0.81817687,0.020534918,-0.6345291,10.245852039232107,1.0355975388311525,stand
23/10/2020, 15:51:24,-9.1849,-3.283572,1.575923,0.81817687,0.020534918,-0.6345291,9.880676658270747,1.0355975388311525,stand
23/10/2020, 15:51:24,-8.847202,-3.2524366,1.5328126,0.81817687,0.020534918,-0.6345291,9.549913459880141,1.0355975388311525,stand
23/10/2020, 15:51:24,-8.49274,-3.3697927,1.6022681,0.81817687,0.020534918,-0.6345291,9.276281212419503,1.0355975388311525,stand
23/10/2020, 15:51:24,-8.298743,-3.4799635,1.7938697,0.81817687,0.020534918,-0.6345291,9.175906187662113,1.0355975388311525,stand
23/10/2020, 15:51:24,-8.104747,-3.5182838,1.9567311,0.81817687,0.020534918,-0.6345291,9.049532514056787,1.0355975388311525,stand
23/10/2020, 15:51:24,-7.9826,-3.530259,2.0190015,0.81817687,0.020534918,-0.6345291,8.958850428300751,1.0355975388311525,stand
23/10/2020, 15:51:24,-7.9466753,-3.4703834,2.0022364,0.81817687,0.020534918,-0.6345291,8.89955952741569,1.0355975388311525,stand
23/10/2020, 15:51:24,-7.999366,-3.3769777,2.0333717,0.81817687,0.020534918,-0.6345291,8.917871494375719,1.0355975388311525,stand
23/10/2020, 15:51:24,-7.9730206,-3.3314724,2.095642,0.81817687,0.020534918,-0.6345291,8.891539846823642,1.0355975388311525,stand
23/10/2020, 15:51:24,-7.8915896,-3.3697927,2.1052222,0.81817687,0.020534918,-0.6345291,8.835420223628342,1.0355975388311525,stand
23/10/2020, 15:51:24,-7.6401124,-3.547024,2.1531227,0.81817687,0.020534918,-0.6345291,8.694172417688366,1.0355975388311525,stand
23/10/2020, 15:51:24,-7.443721,-3.7410207,2.2058132,0.81817687,0.020534918,-0.6345291,8.617994376463937,1.0355975388311525,stand
23/10/2020, 15:51:24,-7.4509063,-4.009263,2.1531227,0.81817687,0.020534918,-0.6345291,8.730757794214977,1.0355975388311525,stand
23/10/2020, 15:51:24,-7.8341093,-4.174519,1.9758912,0.81817687,0.020534918,-0.6345291,9.094175288919752,1.0355975388311525,stand
23/10/2020, 15:51:24,-8.552615,-4.3062453,1.84177,0.81817687,0.020534918,-0.6345291,9.751055938554016,1.0355975388311525,stand
23/10/2020, 15:51:24,-9.271121,-4.392466,1.7723145,0.81817687,0.020534918,-0.6345291,10.410981801994641,1.0355975388311525,stand
23/10/2020, 15:51:24,-9.953702,-4.4451566,1.7771046,0.81817687,0.020534918,-0.6345291,11.045075859989518,1.0355975388311525,stand
23/10/2020, 15:51:24,-9.953702,-4.4451566,1.7771046,0.7021125,0.27221128,-0.3352053,11.045075859989518,0.8242715110884654,stand
23/10/2020, 15:51:24,-9.953702,-4.4451566,1.7771046,0.6178131,0.25877225,-0.42316985,11.045075859989518,0.7922934063901548,stand
23/10/2020, 15:51:24,-9.953702,-4.4451566,1.7771046,0.5286268,0.24411152,-0.49647364,11.045075859989518,0.7651946185983082,stand
23/10/2020, 15:51:24,-9.953702,-4.4451566,1.7771046,0.45165783,0.22822903,-0.5477863,11.045075859989518,0.7457567384390158,stand
23/10/2020, 15:51:24,-9.953702,-4.4451566,1.7771046,0.4137842,0.21479,-0.59299034,11.045075859989518,0.7543140299144349,stand
23/10/2020, 15:51:24,-9.953702,-4.4451566,1.7771046,0.4260015,0.20990308,-0.63941604,11.045075859989518,0.796485681680951,stand
23/10/2020, 15:51:24,-9.953702,-4.4451566,1.7771046,0.5078574,0.20990308,-0.6907287,11.045075859989518,0.8826576869620152,stand
23/10/2020, 15:51:25,-8.801697,-3.290757,2.3495142,-0.42676607,-0.14195517,0.28054667,9.686029351395575,0.5300820477821202,stand
23/10/2020, 15:51:25,-8.851993,-3.2165112,2.3566992,-0.42676607,-0.14195517,0.28054667,9.70864300443104,0.5300820477821202,stand
23/10/2020, 15:51:25,-8.861572,-3.2644117,2.3758595,-0.42676607,-0.14195517,0.28054667,9.737995432611092,0.5300820477821202,stand
23/10/2020, 15:51:25,-8.782537,-3.3242872,2.5027955,-0.42676607,-0.14195517,0.28054667,9.718427577300302,0.5300820477821202,stand
23/10/2020, 15:51:25,-8.722662,-3.3697927,2.4501052,-0.42676607,-0.14195517,0.28054667,9.666610065670234,0.5300820477821202,stand
23/10/2020, 15:51:25,-8.634046,-3.3865578,2.5578809,-0.42676607,-0.14195517,0.28054667,9.62072096454278,0.5300820477821202,stand
23/10/2020, 15:51:25,-8.6627865,-3.3051271,2.5123756,-0.42676607,-0.14195517,0.28054667,9.60623579877199,0.5300820477821202,stand
23/10/2020, 15:51:25,-8.732242,-3.288362,2.6273365,-0.42676607,-0.14195517,0.28054667,9.693723010534743,0.5300820477821202,stand
23/10/2020, 15:51:25,-8.799302,-3.3386574,2.4668703,-0.42676607,-0.14195517,0.28054667,9.729326784444421,0.5300820477821202,stand
23/10/2020, 15:51:25,-8.804092,-3.3554225,2.6153615,-0.42676607,-0.14195517,0.28054667,9.77808870752006,0.5300820477821202,stand
23/10/2020, 15:51:25,-8.782537,-3.408113,2.572251,-0.42676607,-0.14195517,0.28054667,9.765483813301543,0.5300820477821202,stand
