DATE,TIME,ax,ay,az,gx,gy,gz,ma,mg,label
23/10/2020, 15:19:27,0.364043,4.009263,8.806487,0.01911256,-0.07704309,0.059722893,9.683022883769425,0.09933655455246095,jump
23/10/2020, 15:19:27,0.3903882,4.054768,8.708291,0.01911256,-0.07704309,0.059722893,9.613941972141507,0.09933655455246095,jump
23/10/2020, 15:19:27,0.3903882,4.054768,8.708291,-0.057856433,-0.07704309,0.058501165,9.613941972141507,0.11271818994268344,jump
23/10/2020, 15:19:27,0.33769777,4.047583,8.600515,-0.057856433,-0.07704309,0.058501165,9.511352864748531,0.11271818994268344,jump
23/10/2020, 15:19:27,0.33769777,4.047583,8.600515,0.013003912,-0.056273676,0.07927057,9.511352864748531,0.09807982405004263,jump
23/10/2020, 15:19:27,0.29698244,4.006868,8.880733,0.013003912,-0.056273676,0.07927057,9.747338057247065,0.09807982405004263,jump
23/10/2020, 15:19:27,0.29698244,4.006868,8.880733,0.06309484,-0.002517555,0.06705327,9.747338057247065,0.09210558241149552,jump
23/10/2020, 15:19:27,0.6514453,3.9829175,10.186019,0.06309484,-0.002517555,0.06705327,10.956413424478963,0.09210558241149552,jump
23/10/2020, 15:19:27,0.6514453,3.9829175,10.186019,0.01911256,0.19295925,0.048727322,10.956413424478963,0.199932272811647,jump
23/10/2020, 15:19:27,-1.6789087,3.8464015,4.519402,0.01911256,0.19295925,0.048727322,6.167538671360054,0.199932272811647,jump
23/10/2020, 15:19:27,-1.6789087,3.8464015,4.519402,-0.09573006,-0.18822052,0.06216635,6.167538671360054,0.2201269225974499,jump
23/10/2020, 15:19:27,0.55803955,4.248765,16.207098,-0.09573006,-0.18822052,0.06216635,16.76405195366495,0.2201269225974499,jump
23/10/2020, 15:19:27,0.55803955,4.248765,16.207098,-0.11405601,-0.3775887,0.08660095,16.76405195366495,0.40383377445474894,jump
23/10/2020, 15:19:27,2.7518775,4.6654983,16.111298,-0.11405601,-0.3775887,0.08660095,16.997459063281216,0.40383377445474894,jump
23/10/2020, 15:19:27,2.7518775,4.6654983,16.111298,-0.23500729,-0.33116293,0.07438365,16.997459063281216,0.41283197349863926,jump
23/10/2020, 15:19:27,2.179468,4.505032,17.897982,-0.23500729,-0.33116293,0.07438365,18.584486573505913,0.41283197349863926,jump
23/10/2020, 15:19:27,2.179468,4.505032,17.897982,0.14861594,-0.2932893,0.035288293,18.584486573505913,0.3306819882729249,jump
23/10/2020, 15:19:27,-1.8681153,3.899092,15.534098,0.14861594,-0.2932893,0.035288293,16.124545369369343,0.3306819882729249,jump
23/10/2020, 15:19:27,-1.8681153,3.899092,15.534098,7.866118E-4,0.18562888,-0.0038070686,16.124545369369343,0.18566957792726493,jump
23/10/2020, 15:19:27,-3.0799952,3.551814,2.811753,7.866118E-4,0.18562888,-0.0038070686,5.477929219899077,0.18566957792726493,jump
23/10/2020, 15:19:27,-3.0799952,3.551814,2.811753,0.24757607,-0.008626205,0.06216635,5.477929219899077,0.25540747549655546,jump
23/10/2020, 15:19:27,3.67875,4.296665,3.2476466,0.24757607,-0.008626205,0.06216635,6.522403073812229,0.25540747549655546,jump
23/10/2020, 15:19:27,3.67875,4.296665,3.2476466,0.008116991,-0.26274607,0.060944624,6.522403073812229,0.2698437101245452,jump
23/10/2020, 15:19:27,2.0980372,4.382886,18.707499,0.008116991,-0.26274607,0.060944624,19.328268194210793,0.2698437101245452,jump
23/10/2020, 15:19:27,2.0980372,4.382886,18.707499,-0.12505159,0.13309447,0.014518882,19.328268194210793,0.18320162866005602,jump
23/10/2020, 15:19:27,-3.666775,3.781736,8.243657,-0.12505159,0.13309447,0.014518882,9.782875231304876,0.18320162866005602,jump
23/10/2020, 15:19:27,-3.666775,3.781736,8.243657,0.22314148,0.15264216,0.046283863,9.782875231304876,0.27428806712681264,jump
23/10/2020, 15:19:27,2.4261549,4.378096,-0.244292,0.22314148,0.15264216,0.046283863,5.01135026141288,0.27428806712681264,jump
23/10/2020, 15:19:27,2.4261549,4.378096,-0.244292,0.0777556,-0.23464626,0.06583154,5.01135026141288,0.25580968114444613,jump
23/10/2020, 15:19:27,3.412903,4.402046,16.894468,0.0777556,-0.23464626,0.06583154,17.789012832082303,0.25580968114444613,jump
23/10/2020, 15:19:28,8.54064,-4.3445654,0.6514453,-3.5520043,-3.3622751,-3.5590415,9.604278159880185,6.04883502985512,jump
23/10/2020, 15:19:28,8.969349,-4.3206153,5.2858086,-3.5520043,-3.3622751,-3.5590415,11.271943421125552,6.04883502985512,jump
23/10/2020, 15:19:28,8.969349,-4.3206153,5.2858086,-3.417614,-3.5382044,-3.7581835,11.271943421125552,6.190550783357569,jump
23/10/2020, 15:19:28,10.085427,-3.5781593,3.527864,-3.417614,-3.5382044,-3.7581835,11.267869894952574,6.190550783357569,jump
23/10/2020, 15:19:28,10.085427,-3.5781593,3.527864,-3.3430886,-3.602956,-4.041625,11.267869894952574,6.363353419262567,jump
23/10/2020, 15:19:28,10.528506,-2.806963,2.3375392,-3.3430886,-3.602956,-4.041625,11.14417224639523,6.363353419262567,jump
23/10/2020, 15:19:28,10.528506,-2.806963,2.3375392,-3.2429068,-3.721464,-4.3165145,11.14417224639523,6.557288740701804,jump
23/10/2020, 15:19:28,11.175161,-2.8500733,2.4956105,-3.2429068,-3.721464,-4.3165145,11.799797503981724,6.557288740701804,jump
23/10/2020, 15:19:28,11.175161,-2.8500733,2.4956105,-3.119512,-3.8925061,-4.367827,11.799797503981724,6.630299518470155,jump
23/10/2020, 15:19:28,12.274476,-3.0704153,2.095642,-3.119512,-3.8925061,-4.367827,12.825050797656688,6.630299518470155,jump
23/10/2020, 15:19:28,12.274476,-3.0704153,2.095642,-3.0657558,-4.1686172,-4.465565,12.825050797656688,6.835020208985019,jump
23/10/2020, 15:19:28,13.991705,-3.4464333,2.1052222,-3.0657558,-4.1686172,-4.465565,14.562886743315673,6.835020208985019,jump
23/10/2020, 15:19:28,13.991705,-3.4464333,2.1052222,-3.0706427,-4.3824196,-4.661042,14.562886743315673,7.096461272750538,jump
23/10/2020, 15:19:28,15.735279,-3.5661843,2.2632935,-3.0706427,-4.3824196,-4.661042,16.29230418484922,7.096461272750538,jump
23/10/2020, 15:19:28,15.735279,-3.5661843,2.2632935,-2.906931,-4.485045,-4.8858404,16.29230418484922,7.241361213415249,jump
23/10/2020, 15:19:28,17.63932,-3.896697,3.1302907,-2.906931,-4.485045,-4.8858404,18.333810058322303,7.241361213415249,jump
23/10/2020, 15:19:28,17.63932,-3.896697,3.1302907,-2.5660682,-4.5510187,-5.124078,18.333810058322303,7.317967646700287,jump
23/10/2020, 15:19:28,19.387684,-4.7301636,3.6068995,-2.5660682,-4.5510187,-5.124078,20.279705550686167,7.317967646700287,jump
23/10/2020, 15:19:28,19.387684,-4.7301636,3.6068995,-2.200771,-4.5962224,-5.334215,20.279705550686167,7.377161051488606,jump
23/10/2020, 15:19:28,20.918102,-5.4534597,4.033213,-2.200771,-4.5962224,-5.334215,21.99031681667317,7.377161051488606,jump
23/10/2020, 15:19:28,20.918102,-5.4534597,4.033213,-1.7279613,-4.5607924,-5.5235834,21.99031681667317,7.36862617510689,jump
23/10/2020, 15:19:28,22.355114,-5.831873,5.1684523,-1.7279613,-4.5607924,-5.5235834,23.674348184955768,7.36862617510689,jump
23/10/2020, 15:19:28,22.355114,-5.831873,5.1684523,-1.1158746,-4.466719,-5.653087,23.674348184955768,7.290689295442627,jump
23/10/2020, 15:19:28,23.17421,-6.615044,5.807923,-1.1158746,-4.466719,-5.653087,24.789811752544562,7.290689295442627,jump
23/10/2020, 15:19:28,23.17421,-6.615044,5.807923,-0.55021363,-4.377533,-5.634761,24.789811752544562,7.1565396500327445,jump
23/10/2020, 15:19:28,23.976542,-6.8880763,6.1647806,-0.55021363,-4.377533,-5.634761,25.69678303721878,7.1565396500327445,jump
23/10/2020, 15:19:28,23.976542,-6.8880763,6.1647806,-0.06640854,-4.169839,-5.372089,25.69678303721878,6.800831260814709,jump
23/10/2020, 15:19:28,23.303541,-7.110813,5.757627,-0.06640854,-4.169839,-5.372089,25.035354281583025,6.800831260814709,jump
23/10/2020, 15:19:28,23.303541,-7.110813,5.757627,0.43205732,-3.8631845,-5.0031266,25.035354281583025,6.335782795166627,jump
23/10/2020, 15:19:28,22.438938,-6.246211,5.9300685,0.43205732,-3.8631845,-5.0031266,24.035116178739397,6.335782795166627,jump
23/10/2020, 15:19:29,8.959768,1.8896705,-0.009580079,-1.0841097,-0.46677497,-1.2927322,9.156876882897166,1.7505225727035958,jump
23/10/2020, 15:19:29,9.105865,1.8609302,-0.19160157,-1.0841097,-0.46677497,-1.2927322,9.296049759639871,1.7505225727035958,jump
23/10/2020, 15:19:29,9.105865,1.8609302,-0.19160157,-1.2588171,-0.54007876,-1.352597,9.296049759639871,1.9250517235285463,jump
23/10/2020, 15:19:29,9.398057,1.5423926,-0.019160157,-1.2588171,-0.54007876,-1.352597,9.523802662443662,1.9250517235285463,jump
23/10/2020, 15:19:29,9.398057,1.5423926,-0.019160157,-1.3736596,-0.57917416,-1.41124,9.523802662443662,2.0527985095310646,jump
23/10/2020, 15:19:29,9.70941,1.1088941,0.21076173,-1.3736596,-0.57917416,-1.41124,9.774799416921985,2.0527985095310646,jump
23/10/2020, 15:19:29,9.70941,1.1088941,0.21076173,-1.3834335,-0.61093915,-1.4845438,9.774799416921985,2.1191991590477586,jump
23/10/2020, 15:19:29,9.831555,0.46463382,0.488584,-1.3834335,-0.61093915,-1.4845438,9.854647626902135,2.1191991590477586,jump
23/10/2020, 15:19:29,9.831555,0.46463382,0.488584,-1.2783647,-0.6329303,-1.5761735,9.854647626902135,2.1258268927906703,jump
23/10/2020, 15:19:29,9.81958,-0.09580079,0.71371585,-1.2783647,-0.6329303,-1.5761735,9.84594947264845,2.1258268927906703,jump
23/10/2020, 15:19:29,9.81958,-0.09580079,0.71371585,-1.078001,-0.6683604,-1.6983466,9.84594947264845,2.1197106096787004,jump
23/10/2020, 15:19:29,9.869876,-0.52690434,0.977168,-1.078001,-0.6683604,-1.6983466,9.932116389367309,2.1197106096787004,jump
23/10/2020, 15:19:29,9.869876,-0.52690434,0.977168,-0.7945596,-0.7514381,-1.841289,9.932116389367309,2.141571732663125,jump
23/10/2020, 15:19:29,10.133328,-0.7831714,1.1328443,-0.7945596,-0.7514381,-1.841289,10.226487127439988,2.141571732663125,jump
23/10/2020, 15:19:29,10.133328,-0.7831714,1.1328443,-0.47813153,-0.87727624,-1.9976704,10.226487127439988,2.233586900516136,jump
23/10/2020, 15:19:29,10.665023,-1.0154883,1.0729688,-0.47813153,-0.87727624,-1.9976704,10.766856130969822,2.233586900516136,jump
23/10/2020, 15:19:29,10.665023,-1.0154883,1.0729688,-0.2154596,-0.9957841,-2.1320608,10.766856130969822,2.362983692632544,jump
23/10/2020, 15:19:29,11.302097,-1.214275,1.0442286,-0.2154596,-0.9957841,-2.1320608,11.415002448422559,2.362983692632544,jump
23/10/2020, 15:19:29,11.302097,-1.214275,1.0442286,-4.3511856E-4,-1.0800834,-2.2566772,11.415002448422559,2.5018337351910276,jump
23/10/2020, 15:19:29,11.996654,-1.4609619,1.1160791,-4.3511856E-4,-1.0800834,-2.2566772,12.136710381570195,2.5018337351910276,jump
23/10/2020, 15:19:29,11.996654,-1.4609619,1.1160791,0.19137649,-1.1301743,-2.3922892,12.136710381570195,2.652728085637951,jump
23/10/2020, 15:19:29,12.363091,-1.8992506,1.2837305,0.19137649,-1.1301743,-2.3922892,12.573827882670813,2.652728085637951,jump
23/10/2020, 15:19:29,12.363091,-1.8992506,1.2837305,0.3709708,-1.1570524,-2.5132406,12.573827882670813,2.7915529310169336,jump
23/10/2020, 15:19:29,12.4684725,-2.2848487,1.477727,0.3709708,-1.1570524,-2.5132406,12.761936247719833,2.7915529310169336,jump
23/10/2020, 15:19:29,12.4684725,-2.2848487,1.477727,0.560339,-1.181487,-2.59754,12.761936247719833,2.9081101687375694,jump
23/10/2020, 15:19:29,12.351116,-2.6393116,1.6932789,0.560339,-1.181487,-2.59754,12.742967858146379,2.9081101687375694,jump
23/10/2020, 15:19:29,12.351116,-2.6393116,1.6932789,0.77902865,-1.1998129,-2.654961,12.742967858146379,3.0158340643865547,jump
23/10/2020, 15:19:29,12.298426,-2.9674294,2.0621119,0.77902865,-1.1998129,-2.654961,12.818315669827145,3.0158340643865547,jump
23/10/2020, 15:19:29,12.298426,-2.9674294,2.0621119,1.075909,-1.1888174,-2.6891696,12.818315669827145,3.130894499146952,jump
23/10/2020, 15:19:29,12.22418,-3.288362,2.071692,1.075909,-1.1888174,-2.6891696,12.827151461083671,3.130894499146952,jump
23/10/2020, 15:19:30,33.54704,-1.7268091,-0.9388477,0.18404612,1.755552,4.0682187,33.604570115919394,4.434663396797567,jump
23/10/2020, 15:19:30,36.397114,-1.839375,-0.5987549,0.18404612,1.755552,4.0682187,36.448480089630465,4.434663396797567,jump
23/10/2020, 15:19:30,36.397114,-1.839375,-0.5987549,0.049655814,1.9779068,4.433516,36.448480089630465,4.854960911241313,jump
23/10/2020, 15:19:30,36.48573,-1.6741188,-0.05748047,0.049655814,1.9779068,4.433516,36.52416205955445,4.854960911241313,jump
23/10/2020, 15:19:30,36.48573,-1.6741188,-0.05748047,-0.03342183,2.0683148,4.853791,36.52416205955445,5.276204361413572,jump
23/10/2020, 15:19:30,34.905018,-1.9064356,0.16525635,-0.03342183,2.0683148,4.853791,34.95743236703006,5.276204361413572,jump
23/10/2020, 15:19:30,34.905018,-1.9064356,0.16525635,-0.13726889,2.0292194,5.1555586,34.95743236703006,5.542234063129763,jump
23/10/2020, 15:19:30,33.918266,-2.0932472,-0.34727785,-0.13726889,2.0292194,5.1555586,33.984571119762506,5.542234063129763,jump
23/10/2020, 15:19:30,33.918266,-2.0932472,-0.34727785,-0.20079884,1.9253725,5.244745,33.984571119762506,5.590592736803254,jump
23/10/2020, 15:19:30,34.0955,-2.2800586,-0.61073,-0.20079884,1.9253725,5.244745,34.177109930577124,5.590592736803254,jump
23/10/2020, 15:19:30,34.0955,-2.2800586,-0.61073,-0.29120684,1.8557339,5.2875056,34.177109930577124,5.6112623691626915,jump
23/10/2020, 15:19:30,34.641563,-2.8979738,-1.223855,-0.29120684,1.8557339,5.2875056,34.784105407271674,5.6112623691626915,jump
23/10/2020, 15:19:30,34.641563,-2.8979738,-1.223855,-0.4243754,1.8093082,5.330266,34.784105407271674,5.644946958984969,jump
23/10/2020, 15:19:30,34.69186,-3.2380664,-1.6932789,-0.4243754,1.8093082,5.330266,34.883770320372705,5.644946958984969,jump
23/10/2020, 15:19:30,34.69186,-3.2380664,-1.6932789,-0.6064132,1.7775432,5.2923923,34.883770320372705,5.6157646409640405,jump
23/10/2020, 15:19:30,33.439262,-3.4847536,-2.1507277,-0.6064132,1.7775432,5.2923923,33.68906954428317,5.6157646409640405,jump
23/10/2020, 15:19:30,33.439262,-3.4847536,-2.1507277,-0.80433345,1.7360044,5.199541,33.68906954428317,5.540387258570051,jump
23/10/2020, 15:19:30,31.245426,-3.1302907,-2.5459058,-0.80433345,1.7360044,5.199541,31.50487285627064,5.540387258570051,jump
23/10/2020, 15:19:30,31.245426,-3.1302907,-2.5459058,-0.96315837,1.6712526,5.0920286,31.50487285627064,5.445136799910505,jump
23/10/2020, 15:19:30,28.64204,-2.8788135,-2.7710378,-0.96315837,1.6712526,5.0920286,28.919417138270187,5.445136799910505,jump
23/10/2020, 15:19:30,28.64204,-2.8788135,-2.7710378,-1.1488613,1.6174965,4.946643,28.919417138270187,5.329676622231362,jump
23/10/2020, 15:19:30,25.705746,-2.687212,-3.05844,-1.1488613,1.6174965,4.946643,26.026150794369272,5.329676622231362,jump
23/10/2020, 15:19:30,25.705746,-2.687212,-3.05844,-1.322347,1.6199399,4.7633834,26.026150794369272,5.202175349635276,jump
23/10/2020, 15:19:30,22.613775,-2.3495142,-3.1853762,-1.322347,1.6199399,4.7633834,22.957562364629645,5.202175349635276,jump
23/10/2020, 15:19:30,22.613775,-2.3495142,-3.1853762,-1.4335244,1.6113878,4.5532455,22.957562364629645,5.038214753985534,jump
23/10/2020, 15:19:30,19.205662,-1.9399658,-2.929109,-1.4335244,1.6113878,4.5532455,19.524358932904804,5.038214753985534,jump
23/10/2020, 15:19:30,19.205662,-1.9399658,-2.929109,-1.516602,1.5454144,4.349217,19.524358932904804,4.858402570299427,jump
23/10/2020, 15:19:30,16.116087,-1.5519727,-2.4022048,-1.516602,1.5454144,4.349217,16.367879092125225,4.858402570299427,jump
23/10/2020, 15:19:30,16.116087,-1.5519727,-2.4022048,-1.5410366,1.4562281,4.135414,16.367879092125225,4.647262009043103,jump
23/10/2020, 15:19:30,12.882811,-0.85023195,-1.4513819,-1.5410366,1.4562281,4.135414,12.992159659199832,4.647262009043103,jump
23/10/2020, 15:19:31,0.22273682,0.83586186,-0.73048097,2.1058273,-0.034282535,4.3101215,1.1322010374032605,4.797169133956935,jump
23/10/2020, 15:19:31,3.2596216,0.5388794,-0.9388477,2.1058273,-0.034282535,4.3101215,3.4346701662754606,4.797169133956935,jump
23/10/2020, 15:19:31,3.2596216,0.5388794,-0.9388477,1.7784038,0.010921476,4.194057,3.4346701662754606,4.555540936626612,jump
23/10/2020, 15:19:31,5.9324636,0.9053174,-1.219065,1.7784038,0.010921476,4.194057,6.1237116119462405,4.555540936626612,jump
23/10/2020, 15:19:31,5.9324636,0.9053174,-1.219065,1.4595323,0.41042718,3.960707,6.1237116119462405,4.240976825069543,jump
23/10/2020, 15:19:31,7.671248,2.5985963,-1.7315992,1.4595323,0.41042718,3.960707,8.282462435167067,4.240976825069543,jump
23/10/2020, 15:19:31,7.671248,2.5985963,-1.7315992,1.2408426,0.9895272,3.5404317,8.282462435167067,3.879885479113705,jump
23/10/2020, 15:19:31,7.486831,4.897815,-2.8261232,1.2408426,0.9895272,3.5404317,9.382334879847647,3.879885479113705,jump
23/10/2020, 15:19:31,7.486831,4.897815,-2.8261232,1.0245963,1.5319754,3.0346355,9.382334879847647,3.5504590015259794,jump
23/10/2020, 15:19:31,5.5372853,6.7755103,-3.9877076,1.0245963,1.5319754,3.0346355,9.616178076596121,3.5504590015259794,jump
23/10/2020, 15:19:31,5.5372853,6.7755103,-3.9877076,0.682512,1.9168204,2.5459435,9.616178076596121,3.259118190640495,jump
23/10/2020, 15:19:31,2.6584718,8.078402,-4.766089,0.682512,1.9168204,2.5459435,9.749033197481296,3.259118190640495,jump
23/10/2020, 15:19:31,2.6584718,8.078402,-4.766089,0.29644525,2.1086318,2.1647637,9.749033197481296,3.0365127847215336,jump
23/10/2020, 15:19:31,-0.22752686,8.3322735,-5.345684,0.29644525,2.1086318,2.1647637,9.902266803617936,3.0365127847215336,jump
23/10/2020, 15:19:31,-0.22752686,8.3322735,-5.345684,-0.16414694,2.0890841,1.9179742,9.902266803617936,2.8407467256862633,jump
23/10/2020, 15:19:31,-2.2800586,7.6664577,-5.863008,-0.16414694,2.0890841,1.9179742,9.91706122482833,2.8407467256862633,jump
23/10/2020, 15:19:31,-2.2800586,7.6664577,-5.863008,-0.7102603,1.8337427,1.7139454,9.91706122482833,2.6085802418386663,jump
23/10/2020, 15:19:31,-2.955454,6.832991,-5.6785917,-0.7102603,1.8337427,1.7139454,9.363272969866692,2.6085802418386663,jump
23/10/2020, 15:19:31,-2.955454,6.832991,-5.6785917,-1.1842915,1.3780375,1.4060694,9.363272969866692,2.2975127175041816,jump
23/10/2020, 15:19:31,-2.0525317,6.2438164,-5.2905984,-1.1842915,1.3780375,1.4060694,8.437331375666114,2.2975127175041816,jump
23/10/2020, 15:19:31,-2.0525317,6.2438164,-5.2905984,-1.3919857,0.9528753,1.0224462,8.437331375666114,1.9725596498876456,jump
23/10/2020, 15:19:31,-0.5891748,5.989944,-5.326524,-1.3919857,0.9528753,1.0224462,8.037313695415952,1.9725596498876456,jump
23/10/2020, 15:19:31,-0.5891748,5.989944,-5.326524,-1.3455598,0.7402943,0.72923094,8.037313695415952,1.7001013653994441,jump
23/10/2020, 15:19:31,0.6682105,6.2749515,-5.1876125,-1.3455598,0.7402943,0.72923094,8.169017375384435,1.7001013653994441,jump
23/10/2020, 15:19:31,0.6682105,6.2749515,-5.1876125,-1.1122094,0.6779861,0.5361976,8.169017375384435,1.408610250576127,jump
23/10/2020, 15:19:31,1.3004956,6.6916847,-4.9696655,-1.1122094,0.6779861,0.5361976,8.43608373321536,1.408610250576127,jump
23/10/2020, 15:19:31,1.3004956,6.6916847,-4.9696655,-0.82510287,0.64988625,0.35660326,8.43608373321536,1.109194647496777,jump
23/10/2020, 15:19:31,1.0849439,6.6413894,-4.6128078,-0.82510287,0.64988625,0.35660326,8.158624354270943,1.109194647496777,jump
23/10/2020, 15:19:31,1.0849439,6.6413894,-4.6128078,-0.58808726,0.5460392,0.15135264,8.158624354270943,0.8166474654633437,jump
23/10/2020, 15:19:31,0.6825806,6.2917166,-3.9805226,-0.58808726,0.5460392,0.15135264,7.476374399318095,0.8166474654633437,jump
23/10/2020, 15:19:32,1.1783496,3.6260598,1.453777,0.30011046,-1.7911303,-2.1112914,4.080476039587433,2.784917497284335,jump
23/10/2020, 15:19:32,1.4082716,3.3482375,1.7986598,0.30011046,-1.7911303,-2.1112914,4.0532826568939235,2.784917497284335,jump
23/10/2020, 15:19:32,1.4082716,3.3482375,1.7986598,0.21214591,-1.9365162,-2.3446417,4.0532826568939235,3.048351256081371,jump
23/10/2020, 15:19:32,2.1267774,3.2332766,1.3747413,0.21214591,-1.9365162,-2.3446417,4.106966453196981,3.048351256081371,jump
23/10/2020, 15:19:32,2.1267774,3.2332766,1.3747413,0.020334292,-2.1246626,-2.6818392,4.106966453196981,3.4215298406745704,jump
23/10/2020, 15:19:32,3.8799317,3.056045,0.8933423,0.020334292,-2.1246626,-2.6818392,5.019097705797087,3.4215298406745704,jump
23/10/2020, 15:19:32,3.8799317,3.056045,0.8933423,-0.29120684,-2.4093258,-3.17664,5.019097705797087,3.997586061571297,jump
23/10/2020, 15:19:32,6.2893214,2.5411158,0.68737066,-0.29120684,-2.4093258,-3.17664,6.818013764114725,3.997586061571297,jump
23/10/2020, 15:19:32,6.2893214,2.5411158,0.68737066,-0.7127037,-2.801501,-3.7850614,6.818013764114725,4.762671951575365,jump
23/10/2020, 15:19:32,9.208851,1.6166383,0.613125,-0.7127037,-2.801501,-3.7850614,9.369758581338624,4.762671951575365,jump
23/10/2020, 15:19:32,9.208851,1.6166383,0.613125,-1.1623003,-3.1887896,-4.384931,9.369758581338624,5.54499250618267,jump
23/10/2020, 15:19:32,13.452826,0.47900394,1.1855347,-1.1623003,-3.1887896,-4.384931,13.513454499534955,5.54499250618267,jump
23/10/2020, 15:19:32,13.452826,0.47900394,1.1855347,-1.521489,-3.5113263,-5.158286,13.513454499534955,6.422791975579176,jump
23/10/2020, 15:19:32,19.823578,-0.7879615,2.2561085,-1.521489,-3.5113263,-5.158286,19.967101666544036,6.422791975579176,jump
23/10/2020, 15:19:32,19.823578,-0.7879615,2.2561085,-1.5593626,-3.6689293,-6.366577,19.967101666544036,7.511721437296642,jump
23/10/2020, 15:19:32,29.250374,-2.8931837,2.811753,-1.5593626,-3.6689293,-6.366577,29.527289697770385,7.511721437296642,jump
23/10/2020, 15:19:32,29.250374,-2.8931837,2.811753,-1.3846552,-3.227885,-8.0036955,29.527289697770385,8.740460698047002,jump
23/10/2020, 15:19:32,42.446934,-5.910908,3.2572267,-1.3846552,-3.227885,-8.0036955,42.980118034838014,8.740460698047002,jump
23/10/2020, 15:19:32,42.446934,-5.910908,3.2572267,-1.2356042,-2.1038933,-9.026283,42.980118034838014,9.350233909163972,jump
23/10/2020, 15:19:32,46.571156,-9.584868,3.5781593,-1.2356042,-2.1038933,-9.026283,47.68170987006869,9.350233909163972,jump
23/10/2020, 15:19:32,46.571156,-9.584868,3.5781593,-1.0889965,-1.317099,-8.6695385,47.68170987006869,8.83637713765433,jump
23/10/2020, 15:19:32,40.91891,-10.581197,2.9578493,-1.0889965,-1.317099,-8.6695385,42.368241330969525,8.83637713765433,jump
23/10/2020, 15:19:32,40.91891,-10.581197,2.9578493,-0.92650646,-1.2291344,-8.21872,42.368241330969525,8.361611764440315,jump
23/10/2020, 15:19:32,38.396954,-9.208851,2.1507277,-0.92650646,-1.2291344,-8.21872,39.544337248958485,8.361611764440315,jump
23/10/2020, 15:19:32,38.396954,-9.208851,2.1507277,-0.53188765,-1.3403119,-8.379989,39.544337248958485,8.503149448097096,jump
23/10/2020, 15:19:32,38.70831,-8.983719,2.196233,-0.53188765,-1.3403119,-8.379989,39.79778691573665,8.503149448097096,jump
23/10/2020, 15:19:32,38.70831,-8.983719,2.196233,-0.06152162,-1.2804471,-8.421527,39.79778691573665,8.51853539216719,jump
23/10/2020, 15:19:32,38.202957,-10.253079,4.021238,-0.06152162,-1.2804471,-8.421527,39.75879684527126,8.51853539216719,jump
23/10/2020, 15:19:32,38.202957,-10.253079,4.021238,0.50536114,-1.0605357,-8.061117,39.75879684527126,8.14627128520224,jump
23/10/2020, 15:19:32,36.524048,-12.173884,6.5096636,0.50536114,-1.0605357,-8.061117,39.045937722080716,8.14627128520224,jump
23/10/2020, 15:19:33,5.158872,2.5171657,0.7424561,-0.11405601,-1.2083651,-3.1656444,5.788032966473593,3.390347985193096,jump
23/10/2020, 15:19:33,5.158872,2.5171657,0.7424561,0.053321004,-1.0764182,-3.2829304,5.788032966473593,3.4553076605594093,jump
23/10/2020, 15:19:33,5.158872,2.5171657,0.7424561,0.21214591,-1.01411,-3.4148772,5.788032966473593,3.5685867014276855,jump
23/10/2020, 15:19:33,5.158872,2.5171657,0.7424561,0.2903366,-1.0324359,-3.5492675,5.788032966473593,3.707764720738076,jump
23/10/2020, 15:19:33,4.742139,1.9830762,1.2502003,0.2903366,-1.0324359,-3.5492675,5.289940735496646,3.707764720738076,jump
23/10/2020, 15:19:33,4.394861,1.453777,1.0609937,0.2903366,-1.0324359,-3.5492675,4.749103090272863,3.707764720738076,jump
23/10/2020, 15:19:33,4.4259963,0.8885523,0.6466553,0.2903366,-1.0324359,-3.5492675,4.560387219046803,3.707764720738076,jump
23/10/2020, 15:19:33,4.4259963,0.8885523,0.6466553,0.2756759,-1.0800834,-3.6482277,4.560387219046803,3.8147270642358895,jump
23/10/2020, 15:19:33,4.7301636,0.5292993,0.43589357,0.2756759,-1.0800834,-3.6482277,4.779603373514301,3.8147270642358895,jump
23/10/2020, 15:19:33,4.7301636,0.5292993,0.43589357,0.1510594,-1.0971876,-3.701984,4.779603373514301,3.8641072274653796,jump
23/10/2020, 15:19:33,5.125342,0.6586304,0.6777906,0.1510594,-1.0971876,-3.701984,5.211748607846915,3.8641072274653796,jump
23/10/2020, 15:19:33,5.125342,0.6586304,0.6777906,-0.02364799,-1.0373229,-3.7166445,5.211748607846915,3.858762043911431,jump
23/10/2020, 15:19:33,5.374424,0.74724615,1.3843213,-0.02364799,-1.0373229,-3.7166445,5.599924595710605,3.858762043911431,jump
23/10/2020, 15:19:33,5.374424,0.74724615,1.3843213,-0.2924286,-0.9273672,-3.719088,5.599924595710605,3.8441046506270737,jump
23/10/2020, 15:19:33,5.6522465,1.0130934,1.0825489,-0.2924286,-0.9273672,-3.719088,5.843471603795394,3.8441046506270737,jump
23/10/2020, 15:19:33,5.6522465,1.0130934,1.0825489,-0.6711649,-0.9615756,-3.7691789,5.843471603795394,3.9473787890379053,jump
23/10/2020, 15:19:33,6.588699,1.4441968,-0.07903565,-0.6711649,-0.9615756,-3.7691789,6.74558402285746,3.9473787890379053,jump
23/10/2020, 15:19:33,6.588699,1.4441968,-0.07903565,-1.09144,-1.2499039,-3.8559217,6.74558402285746,4.197812942460469,jump
23/10/2020, 15:19:33,8.382568,1.4010864,-0.9436377,-1.09144,-1.2499039,-3.8559217,8.551078744925793,4.197812942460469,jump
23/10/2020, 15:19:33,8.382568,1.4010864,-0.9436377,-1.5984579,-1.6738442,-3.8962388,8.551078744925793,4.531831753893552,jump
23/10/2020, 15:19:33,11.0123005,0.68737066,-1.7148341,-1.5984579,-1.6738442,-3.8962388,11.166194360787905,4.531831753893552,jump
23/10/2020, 15:19:33,11.0123005,0.68737066,-1.7148341,-2.2728531,-2.1222193,-3.8412611,11.166194360787905,4.94216181932122,jump
23/10/2020, 15:19:33,15.8167095,-0.32572266,-3.2644117,-2.2728531,-2.1222193,-3.8412611,16.153351940463796,4.94216181932122,jump
23/10/2020, 15:19:33,15.8167095,-0.32572266,-3.2644117,-2.902044,-2.3054788,-4.033073,16.153351940463796,5.47747840437853,jump
23/10/2020, 15:19:33,24.017258,-1.1208692,-3.1901662,-2.902044,-2.3054788,-4.033073,24.25411666600972,5.47747840437853,jump
23/10/2020, 15:19:33,24.017258,-1.1208692,-3.1901662,-3.2453501,-1.7935737,-4.789324,24.25411666600972,6.056965138903814,jump
23/10/2020, 15:19:33,34.145794,-2.066902,-2.5866213,-3.2453501,-1.7935737,-4.789324,34.305946063286136,6.056965138903814,jump
23/10/2020, 15:19:33,34.145794,-2.066902,-2.5866213,-3.3308713,-0.9090412,-5.8058033,34.305946063286136,6.754880591409839,jump
23/10/2020, 15:19:33,40.456673,-5.125342,-1.5807129,-3.3308713,-0.9090412,-5.8058033,40.81066216361866,6.754880591409839,jump
23/10/2020, 15:19:33,40.456673,-5.125342,-1.5807129,-3.1292858,-0.267633,-6.019606,40.81066216361866,6.789677081743421,jump
23/10/2020, 15:19:34,27.039772,-9.302257,6.222261,-0.8385419,-0.5474092,1.0835327,29.26427481668424,1.4754160292094898,jump
23/10/2020, 15:19:34,30.155693,-10.499766,6.4066777,-0.8385419,-0.5474092,1.0835327,32.56772077417781,1.4754160292094898,jump
23/10/2020, 15:19:34,30.155693,-10.499766,6.4066777,-1.7194092,0.23816326,1.6223156,32.56772077417781,2.3759204287061078,jump
23/10/2020, 15:19:34,30.270653,-13.380975,6.222261,-1.7194092,0.23816326,1.6223156,33.67609591863955,2.3759204287061078,jump
23/10/2020, 15:19:34,30.270653,-13.380975,6.222261,-2.296066,0.6950903,2.1293335,33.67609591863955,3.207667523409497,jump
23/10/2020, 15:19:34,28.757,-16.293318,6.0282645,-2.296066,0.6950903,2.1293335,33.597280026231545,3.207667523409497,jump
23/10/2020, 15:19:34,28.757,-16.293318,6.0282645,-2.2313142,0.759842,2.638795,33.597280026231545,3.538270952221733,jump
23/10/2020, 15:19:34,28.024124,-18.171015,6.588699,-2.2313142,0.759842,2.638795,34.0433292318427,3.538270952221733,jump
23/10/2020, 15:19:34,28.024124,-18.171015,6.588699,-1.4090898,0.6779861,3.0285268,34.0433292318427,3.4083975240837256,jump
23/10/2020, 15:19:34,27.91635,-19.617605,7.201824,-1.4090898,0.6779861,3.0285268,34.871754619258674,3.4083975240837256,jump
23/10/2020, 15:19:34,27.91635,-19.617605,7.201824,-0.3254153,0.6938685,3.331516,34.871754619258674,3.4185300477475042,jump
23/10/2020, 15:19:34,27.772648,-19.334993,7.0581226,-0.3254153,0.6938685,3.331516,34.56846876099839,3.4185300477475042,jump
23/10/2020, 15:19:34,27.772648,-19.334993,7.0581226,0.64463836,0.86002386,3.6528308,34.56846876099839,3.8076728834375633,jump
23/10/2020, 15:19:34,27.068512,-16.954344,6.318062,0.64463836,0.86002386,3.6528308,32.55874719181796,3.8076728834375633,jump
23/10/2020, 15:19:34,27.068512,-16.954344,6.318062,1.4277673,1.1031482,4.02668,32.55874719181796,4.412437779691401,jump
23/10/2020, 15:19:34,25.897346,-13.903089,5.0199614,1.4277673,1.1031482,4.02668,29.81892753548088,4.412437779691401,jump
23/10/2020, 15:19:34,25.897346,-13.903089,5.0199614,1.9017985,1.3584898,4.4836073,29.81892753548088,5.056190882501066,jump
23/10/2020, 15:19:34,24.99203,-12.463682,2.9817994,1.9017985,1.3584898,4.4836073,28.086224805697427,5.056190882501066,jump
23/10/2020, 15:19:34,24.99203,-12.463682,2.9817994,1.8688118,1.5319754,5.0248337,28.086224805697427,5.575693661742226,jump
23/10/2020, 15:19:34,24.225624,-12.061319,1.3244458,1.8688118,1.5319754,5.0248337,27.09447256483523,5.575693661742226,jump
23/10/2020, 15:19:34,24.225624,-12.061319,1.3244458,1.5450534,1.5784011,5.578277,27.09447256483523,5.999642940925846,jump
23/10/2020, 15:19:34,24.51542,-12.662469,-0.31374758,1.5450534,1.5784011,5.578277,27.59424612169894,5.999642940925846,jump
23/10/2020, 15:19:34,24.51542,-12.662469,-0.31374758,1.1198913,1.7017959,6.036426,27.59424612169894,6.370926586091404,jump
23/10/2020, 15:19:34,25.624315,-13.213324,-1.705254,1.1198913,1.7017959,6.036426,28.88088198235813,6.370926586091404,jump
23/10/2020, 15:19:34,25.624315,-13.213324,-1.705254,0.8095719,1.922929,6.420049,28.88088198235813,6.750562527007107,jump
23/10/2020, 15:19:34,26.417067,-12.504397,-2.459685,0.8095719,1.922929,6.420049,29.330383755627068,6.750562527007107,jump
23/10/2020, 15:19:34,26.417067,-12.504397,-2.459685,0.6544122,2.1220708,6.749916,29.330383755627068,7.105829073197171,jump
23/10/2020, 15:19:34,26.278156,-11.120076,-2.9410841,0.6544122,2.1220708,6.749916,28.685319724522472,7.105829073197171,jump
23/10/2020, 15:19:34,26.278156,-11.120076,-2.9410841,0.5163567,2.1953747,7.0663443,28.685319724522472,7.417514115852907,jump
23/10/2020, 15:19:34,24.826773,-9.718989,-2.8141482,0.5163567,2.1953747,7.0663443,26.80945405322377,7.417514115852907,jump
23/10/2020, 15:19:35,1.1591895,-4.145779,3.1614258,-0.3779497,0.58024764,1.4867036,5.340956665290578,1.640067378912624,jump
23/10/2020, 15:19:35,2.5171657,-4.5936475,3.2308815,-0.3779497,0.58024764,1.4867036,6.154373655808827,1.640067378912624,jump
23/10/2020, 15:19:35,2.5171657,-4.5936475,3.2308815,-0.55143535,0.51793945,1.7188323,6.154373655808827,1.8779580766635637,jump
23/10/2020, 15:19:35,4.018843,-5.1876125,3.391348,-0.55143535,0.51793945,1.7188323,7.386722191438176,1.8779580766635637,jump
23/10/2020, 15:19:35,4.018843,-5.1876125,3.391348,-0.7469121,0.4727354,1.9582914,7.386722191438176,2.148548750371744,jump
23/10/2020, 15:19:35,5.606741,-5.721702,3.5566041,-0.7469121,0.4727354,1.9582914,8.76486463465081,2.148548750371744,jump
23/10/2020, 15:19:35,5.606741,-5.721702,3.5566041,-0.9484976,0.43486178,2.1904202,8.76486463465081,2.4262507884703255,jump
23/10/2020, 15:19:35,7.443721,-6.3851223,3.5901344,-0.9484976,0.43486178,2.1904202,10.443554532252497,2.4262507884703255,jump
23/10/2020, 15:19:35,7.443721,-6.3851223,3.5901344,-1.2062826,0.35300586,2.4103315,10.443554532252497,2.7183503754660716,jump
23/10/2020, 15:19:35,9.687855,-6.912027,3.3769777,-1.2062826,0.35300586,2.4103315,12.37071638462591,2.7183503754660716,jump
23/10/2020, 15:19:35,9.687855,-6.912027,3.3769777,-1.4567373,0.20762001,2.5874822,12.37071638462591,2.976617842236362,jump
23/10/2020, 15:19:35,12.739109,-7.7359133,3.8392165,-1.4567373,0.20762001,2.5874822,15.390543734663023,2.976617842236362,jump
23/10/2020, 15:19:35,12.739109,-7.7359133,3.8392165,-1.7365135,-0.008626205,2.7536376,15.390543734663023,3.255468215249324,jump
23/10/2020, 15:19:35,17.440533,-9.489068,4.176914,-1.7365135,-0.008626205,2.7536376,20.289435792453713,3.255468215249324,jump
23/10/2020, 15:19:35,17.440533,-9.489068,4.176914,-2.0590503,-0.29084584,2.8159459,20.289435792453713,3.500547191160681,jump
23/10/2020, 15:19:35,25.51175,-11.848162,4.7397437,-2.0590503,-0.29084584,2.8159459,28.525312561505288,3.500547191160681,jump
23/10/2020, 15:19:35,25.51175,-11.848162,4.7397437,-2.2752964,-0.40568846,2.64246,28.525312561505288,3.510577229675543,jump
23/10/2020, 15:19:35,38.425694,-14.446758,5.2666483,-2.2752964,-0.40568846,2.64246,41.38816655315948,3.510577229675543,jump
23/10/2020, 15:19:35,38.425694,-14.446758,5.2666483,-1.8709037,0.44463563,2.5789301,41.38816655315948,3.2169647614156958,jump
23/10/2020, 15:19:35,47.96027,-16.293318,4.152964,-1.8709037,0.44463563,2.5789301,50.822306197855326,3.2169647614156958,jump
23/10/2020, 15:19:35,47.96027,-16.293318,4.152964,-1.0205797,1.7433347,3.2459948,50.822306197855326,3.8232552756900753,jump
23/10/2020, 15:19:35,43.812096,-15.378421,0.43349856,-1.0205797,1.7433347,3.2459948,46.434722705879736,3.8232552756900753,jump
23/10/2020, 15:19:35,43.812096,-15.378421,0.43349856,-0.3938322,2.207592,4.2869086,46.434722705879736,4.83799047790642,jump
23/10/2020, 15:19:35,39.02445,-12.221786,-2.6488917,-0.3938322,2.207592,4.2869086,40.97921719121209,4.83799047790642,jump
23/10/2020, 15:19:35,39.02445,-12.221786,-2.6488917,-0.30953282,2.0829756,4.9527516,40.97921719121209,5.38185347243558,jump
23/10/2020, 15:19:35,40.49499,-9.678274,-3.894302,-0.30953282,2.0829756,4.9527516,41.81720816150178,5.38185347243558,jump
23/10/2020, 15:19:35,40.49499,-9.678274,-3.894302,-0.4793533,2.0157804,5.4243393,41.81720816150178,5.806600312911057,jump
23/10/2020, 15:19:35,43.436077,-9.515413,-3.6260598,-0.4793533,2.0157804,5.4243393,44.61372204630322,5.806600312911057,jump
23/10/2020, 15:19:35,43.436077,-9.515413,-3.6260598,-0.6882691,1.97302,6.18059,44.61372204630322,6.5242790186925035,jump
23/10/2020, 15:19:35,46.1185,-10.200389,-3.3673975,-0.6882691,1.97302,6.18059,47.35296526989108,6.5242790186925035,jump
23/10/2020, 15:19:36,11.402688,-2.7470875,1.1400293,-2.2972877,3.5221734,6.080408,11.784203438234057,7.392874873740307,jump
23/10/2020, 15:19:36,9.745335,-2.4716604,0.31374758,-2.2972877,3.5221734,6.080408,10.058781711382819,7.392874873740307,jump
23/10/2020, 15:19:36,9.745335,-2.4716604,0.31374758,-2.1677842,3.569821,6.154934,10.058781711382819,7.4381530769408,jump
23/10/2020, 15:19:36,8.413704,-1.2310401,-0.847837,-2.1677842,3.569821,6.154934,8.54544913592553,7.4381530769408,jump
23/10/2020, 15:19:36,8.413704,-1.2310401,-0.847837,-1.8977818,3.4769695,6.0694127,8.54544913592553,7.247666061425075,jump
23/10/2020, 15:19:36,7.2808595,0.80233157,-0.9196875,-1.8977818,3.4769695,6.0694127,7.382443747536298,7.247666061425075,jump
23/10/2020, 15:19:36,7.2808595,0.80233157,-0.9196875,-1.4665111,3.3291402,5.910588,7.382443747536298,6.940380196412346,jump
23/10/2020, 15:19:36,5.8965383,1.719624,-0.9244776,-1.4665111,3.3291402,5.910588,6.211354849118839,6.940380196412346,jump
23/10/2020, 15:19:36,5.8965383,1.719624,-0.9244776,-1.1769611,3.2326236,5.722441,6.211354849118839,6.676932363371704,jump
23/10/2020, 15:19:36,4.7972245,3.8727467,-1.3819263,-1.1769611,3.2326236,5.722441,6.318326554823901,6.676932363371704,jump
23/10/2020, 15:19:36,4.7972245,3.8727467,-1.3819263,-0.8617548,3.1361067,5.3363748,6.318326554823901,6.249374551654368,jump
23/10/2020, 15:19:36,4.1098537,7.311995,-2.3495142,-0.8617548,3.1361067,5.3363748,8.710705270184848,6.249374551654368,jump
23/10/2020, 15:19:36,4.1098537,7.311995,-2.3495142,-0.46591425,3.1128938,4.751166,8.710705270184848,5.699189513918207,jump
23/10/2020, 15:19:36,3.0728102,10.653048,-3.3697927,-0.46591425,3.1128938,4.751166,11.588144266874886,5.699189513918207,jump
23/10/2020, 15:19:36,3.0728102,10.653048,-3.3697927,0.04721235,3.3059273,4.212383,11.588144266874886,5.354955925373823,jump
23/10/2020, 15:19:36,1.3100758,12.595408,-3.439248,0.04721235,3.3059273,4.212383,13.122082138450141,5.354955925373823,jump
23/10/2020, 15:19:36,1.3100758,12.595408,-3.439248,0.30499738,3.673668,3.8629684,13.122082138450141,5.339605276278654,jump
23/10/2020, 15:19:36,-1.0729688,13.261224,-3.046465,0.30499738,3.673668,3.8629684,13.64889252396597,5.339605276278654,jump
23/10/2020, 15:19:36,-1.0729688,13.261224,-3.046465,0.1425073,3.7604108,3.60274,13.64889252396597,5.209676906564388,jump
23/10/2020, 15:19:36,-2.9171338,13.237273,-2.2872438,0.1425073,3.7604108,3.60274,13.746510693767199,5.209676906564388,jump
23/10/2020, 15:19:36,-2.9171338,13.237273,-2.2872438,-0.53433114,3.2558362,2.9112408,13.746510693767199,4.400148012973914,jump
23/10/2020, 15:19:36,-3.403323,13.294754,-1.9998415,-0.53433114,3.2558362,2.9112408,13.868397798803716,4.400148012973914,jump
23/10/2020, 15:19:36,-3.403323,13.294754,-1.9998415,-1.2075044,2.433612,1.7677015,13.868397798803716,3.2411885729956,jump
23/10/2020, 15:19:36,-2.7686427,13.632452,-1.104104,-1.2075044,2.433612,1.7677015,13.954503780913434,3.2411885729956,jump
23/10/2020, 15:19:36,-2.7686427,13.632452,-1.104104,-1.471398,1.9571375,0.7182354,13.954503780913434,2.5517172988005945,jump
23/10/2020, 15:19:36,-1.3795313,13.357024,-1.1064991,-1.471398,1.9571375,0.7182354,13.473586827621402,2.5517172988005945,jump
23/10/2020, 15:19:36,-1.3795313,13.357024,-1.1064991,-1.4616243,1.8093082,0.03406656,13.473586827621402,2.3261775685579846,jump
23/10/2020, 15:19:36,-0.57959473,12.293635,-2.1435425,-1.4616243,1.8093082,0.03406656,12.492564796408349,2.3261775685579846,jump
23/10/2020, 15:19:36,-0.57959473,12.293635,-2.1435425,-1.3480033,1.7225653,-0.31534824,12.492564796408349,2.2099295264709173,jump
23/10/2020, 15:19:36,-0.39757326,10.727293,-2.8788135,-1.3480033,1.7225653,-0.31534824,11.113975306616831,2.2099295264709173,jump
23/10/2020, 15:19:37,0.7232959,4.514612,-2.1267774,-1.0071406,1.2106605,-1.4955394,5.042624559605653,2.1717893964019845,jump
23/10/2020, 15:19:37,1.1376343,4.4667115,-1.9447559,-1.0071406,1.2106605,-1.4955394,5.002779139511978,2.1717893964019845,jump
23/10/2020, 15:19:37,1.1376343,4.4667115,-1.9447559,-0.72125584,1.0799353,-1.7533244,5.002779139511978,2.18188374540507,jump
23/10/2020, 15:19:37,1.463357,4.4379716,-1.8058448,-0.72125584,1.0799353,-1.7533244,5.009798485049948,2.18188374540507,jump
23/10/2020, 15:19:37,1.463357,4.4379716,-1.8058448,-0.5819786,0.99441415,-1.9695706,5.009798485049948,2.281834154660432,jump
23/10/2020, 15:19:37,1.7315992,4.519402,-1.7435743,-0.5819786,0.99441415,-1.9695706,5.144266878643148,2.281834154660432,jump
23/10/2020, 15:19:37,1.7315992,4.519402,-1.7435743,-0.58442205,0.9308842,-2.1467216,5.144266878643148,2.411743794473966,jump
23/10/2020, 15:19:37,2.1387525,4.382886,-1.9950514,-0.58442205,0.9308842,-2.1467216,5.269172725666348,2.411743794473966,jump
23/10/2020, 15:19:37,2.1387525,4.382886,-1.9950514,-0.7078168,0.86002386,-2.3385332,5.269172725666348,2.5902476679756496,jump
23/10/2020, 15:19:37,2.4764502,3.999683,-2.184258,-0.7078168,0.86002386,-2.3385332,5.186641676975504,2.5902476679756496,jump
23/10/2020, 15:19:37,2.4764502,3.999683,-2.184258,-0.847094,0.7635072,-2.5437837,5.186641676975504,2.7877135437070057,jump
23/10/2020, 15:19:37,2.663262,3.290757,-2.2800586,-0.847094,0.7635072,-2.5437837,4.808400197780387,2.7877135437070057,jump
23/10/2020, 15:19:37,2.663262,3.290757,-2.2800586,-0.98270607,0.6596601,-2.7355955,4.808400197780387,2.980661875355822,jump
23/10/2020, 15:19:37,2.929109,2.320774,-2.44771,-0.98270607,0.6596601,-2.7355955,4.467320992334388,2.980661875355822,jump
23/10/2020, 15:19:37,2.929109,2.320774,-2.44771,-1.0938835,0.542374,-2.8968637,4.467320992334388,3.143655516341328,jump
23/10/2020, 15:19:37,3.3099172,1.3483961,-2.3016138,-1.0938835,0.542374,-2.8968637,4.251017526334923,3.143655516341328,jump
23/10/2020, 15:19:37,3.3099172,1.3483961,-2.3016138,-1.1464179,0.43852696,-3.0214803,4.251017526334923,3.261276303792277,jump
23/10/2020, 15:19:37,3.8152664,0.64186525,-2.0070264,-1.1464179,0.43852696,-3.0214803,4.358486387507831,3.261276303792277,jump
23/10/2020, 15:19:37,3.8152664,0.64186525,-2.0070264,-1.173296,0.37744048,-3.1302142,4.358486387507831,3.364123331511603,jump
23/10/2020, 15:19:37,4.4547367,0.49576905,-1.8465601,-1.173296,0.37744048,-3.1302142,4.847705682623586,3.364123331511603,jump
23/10/2020, 15:19:37,4.4547367,0.49576905,-1.8465601,-1.1781828,0.3334582,-3.2377264,4.847705682623586,3.4615288141766483,jump
23/10/2020, 15:19:37,5.1636624,0.6993457,-1.7794995,-1.1781828,0.3334582,-3.2377264,5.506279390628591,3.4615288141766483,jump
23/10/2020, 15:19:37,5.1636624,0.6993457,-1.7794995,-1.1696308,0.26626304,-3.3782253,5.506279390628591,3.584876356417395,jump
23/10/2020, 15:19:37,6.1647806,1.1831397,-1.8513502,-1.1696308,0.26626304,-3.3782253,6.54460366095792,3.584876356417395,jump
23/10/2020, 15:19:37,6.1647806,1.1831397,-1.8513502,-1.2294955,0.10499469,-3.5504894,6.54460366095792,3.7588107552691596,jump
23/10/2020, 15:19:37,7.4940166,0.6682105,-2.680027,-1.2294955,0.10499469,-3.5504894,7.986822619504007,3.7588107552691596,jump
23/10/2020, 15:19:37,7.4940166,0.6682105,-2.680027,-1.5569191,-0.23098107,-3.6543365,7.986822619504007,3.978884798356439,jump
23/10/2020, 15:19:37,9.616004,-0.9053174,-4.014053,-1.5569191,-0.23098107,-3.6543365,10.459433675231525,3.978884798356439,jump
23/10/2020, 15:19:37,9.616004,-0.9053174,-4.014053,-2.4096868,-0.79175514,-3.7288618,10.459433675231525,4.5097535501279475,jump
23/10/2020, 15:19:37,13.859979,-3.06323,-6.569539,-2.4096868,-0.79175514,-3.7288618,15.641011180628984,4.5097535501279475,jump
23/10/2020, 15:19:38,2.0812721,5.247488,-3.7170706,-0.46713597,1.3658202,0.910047,6.759026401189913,1.7064191391264292,jump
23/10/2020, 15:19:38,1.7938697,6.9216065,-3.9422023,-0.46713597,1.3658202,0.910047,8.165020816485946,1.7064191391264292,jump
23/10/2020, 15:19:38,1.7938697,6.9216065,-3.9422023,-0.24111594,1.5991706,0.66692275,8.165020816485946,1.7493625546441,jump
23/10/2020, 15:19:38,0.67539555,7.879615,-4.25595,-0.24111594,1.5991706,0.66692275,8.980957588021974,1.7493625546441,jump
23/10/2020, 15:19:38,0.67539555,7.879615,-4.25595,-0.08839968,1.6883569,0.42990708,8.980957588021974,1.7444722828418868,jump
23/10/2020, 15:19:38,-0.47181886,8.078402,-4.25595,-0.08839968,1.6883569,0.42990708,9.143100955188192,1.7444722828418868,jump
23/10/2020, 15:19:38,-0.47181886,8.078402,-4.25595,-0.0932866,1.5771794,0.17578726,9.143100955188192,1.589685034830474,jump
23/10/2020, 15:19:38,-1.1615845,8.183782,-4.021238,-0.0932866,1.5771794,0.17578726,9.192057117805883,1.589685034830474,jump
23/10/2020, 15:19:38,-1.1615845,8.183782,-4.021238,-0.15926002,1.3426073,-0.108875856,9.192057117805883,1.3563966823069982,jump
23/10/2020, 15:19:38,-1.0585986,7.9730206,-3.5733693,-0.15926002,1.3426073,-0.108875856,8.801059920523526,1.3563966823069982,jump
23/10/2020, 15:19:38,-1.0585986,7.9730206,-3.5733693,-0.2692157,1.0823787,-0.4350778,8.801059920523526,1.1972107261483949,jump
23/10/2020, 15:19:38,-0.2682422,7.448511,-3.3841627,-0.2692157,1.0823787,-0.4350778,8.185647731350368,1.1972107261483949,jump
23/10/2020, 15:19:38,-0.2682422,7.448511,-3.3841627,-0.3730628,0.9113365,-0.77716213,8.185647731350368,1.2544684177120982,jump
23/10/2020, 15:19:38,0.6346802,6.9551373,-3.2045362,-0.3730628,0.9113365,-0.77716213,7.68412684894455,1.2544684177120982,jump
23/10/2020, 15:19:38,0.6346802,6.9551373,-3.2045362,-0.40849292,0.8612456,-1.0984771,7.68412684894455,1.4543941689744797,jump
23/10/2020, 15:19:38,1.0825489,6.662945,-2.9985645,-0.40849292,0.8612456,-1.0984771,7.386347832471225,1.4543941689744797,jump
23/10/2020, 15:19:38,1.0825489,6.662945,-2.9985645,-0.4097147,0.85025,-1.3611491,7.386347832471225,1.6563568470001258,jump
23/10/2020, 15:19:38,1.0681788,6.5048733,-2.9913795,-0.4097147,0.85025,-1.3611491,7.238973237568184,1.6563568470001258,jump
23/10/2020, 15:19:38,1.0681788,6.5048733,-2.9913795,-0.43537098,0.8160415,-1.5944996,7.238973237568184,1.8433395252143308,jump
23/10/2020, 15:19:38,0.8214917,6.4905033,-3.0895753,-0.43537098,0.8160415,-1.5944996,7.235119719268344,1.8433395252143308,jump
23/10/2020, 15:19:38,0.8214917,6.4905033,-3.0895753,-0.50134444,0.73418564,-1.8400673,7.235119719268344,2.0435807658833327,jump
23/10/2020, 15:19:38,0.62031007,6.4090724,-3.3314724,-0.50134444,0.73418564,-1.8400673,7.249807027018854,2.0435807658833327,jump
23/10/2020, 15:19:38,0.62031007,6.4090724,-3.3314724,-0.5978611,0.61689955,-2.0880785,7.249807027018854,2.2578916670876517,jump
23/10/2020, 15:19:38,0.6322852,6.236631,-3.4584084,-0.5978611,0.61689955,-2.0880785,7.1593252538663075,2.2578916670876517,jump
23/10/2020, 15:19:38,0.6322852,6.236631,-3.4584084,-0.64917374,0.5216046,-2.3140986,7.1593252538663075,2.4593800460929907,jump
23/10/2020, 15:19:38,0.68737066,6.08814,-3.278782,-0.64917374,0.5216046,-2.3140986,6.948981069248685,2.4593800460929907,jump
23/10/2020, 15:19:38,0.68737066,6.08814,-3.278782,-0.63817817,0.47029194,-2.5242362,6.948981069248685,2.6457918081478677,jump
23/10/2020, 15:19:38,0.81191164,5.858218,-3.1446607,-0.63817817,0.47029194,-2.5242362,6.698269321389141,2.6457918081478677,jump
23/10/2020, 15:19:38,0.81191164,5.858218,-3.1446607,-0.6100784,0.43241832,-2.7392607,6.698269321389141,2.83949472360356,jump
23/10/2020, 15:19:38,0.8143067,5.4103494,-3.04407,-0.6100784,0.43241832,-2.7392607,6.2610971767141645,2.83949472360356,jump
23/10/2020, 15:19:39,28.378588,-7.599397,-0.6490503,1.5572706,-0.012291394,5.847058,29.385648622451285,6.050894817014682,jump
23/10/2020, 15:19:39,24.450756,-6.246211,-1.6453785,1.5572706,-0.012291394,5.847058,25.289560995746132,6.050894817014682,jump
23/10/2020, 15:19:39,24.450756,-6.246211,-1.6453785,1.8358251,0.24549364,5.718776,25.289560995746132,6.011233017752339,jump
23/10/2020, 15:19:39,21.126469,-4.7708793,-1.9926564,1.8358251,0.24549364,5.718776,21.74993439765025,6.011233017752339,jump
23/10/2020, 15:19:39,21.126469,-4.7708793,-1.9926564,2.0264149,0.5228263,5.589273,21.74993439765025,5.9682222633071,jump
23/10/2020, 15:19:39,18.044079,-3.3362625,-2.193838,2.0264149,0.5228263,5.589273,18.480593945872545,5.9682222633071,jump
23/10/2020, 15:19:39,18.044079,-3.3362625,-2.193838,2.1400359,0.75495505,5.4683213,18.480593945872545,5.920493961102049,jump
23/10/2020, 15:19:39,15.407162,-1.583108,-2.1674929,2.1400359,0.75495505,5.4683213,15.63920995901068,5.920493961102049,jump
23/10/2020, 15:19:39,15.407162,-1.583108,-2.1674929,2.1913486,1.0102967,5.376692,15.63920995901068,5.893345638479654,jump
23/10/2020, 15:19:39,13.081597,1.0849439,-2.1171973,2.1913486,1.0102967,5.376692,13.296157948988307,5.893345638479654,jump
23/10/2020, 15:19:39,13.081597,1.0849439,-2.1171973,2.2182264,1.3633766,5.2606273,13.296157948988307,5.869712393236712,jump
23/10/2020, 15:19:39,10.763218,3.9781277,-3.05844,2.2182264,1.3633766,5.2606273,11.875454320311466,5.869712393236712,jump
23/10/2020, 15:19:39,10.763218,3.9781277,-3.05844,2.09361,1.7592171,5.041938,11.875454320311466,5.735781119674298,jump
23/10/2020, 15:19:39,8.423284,7.0341725,-4.3397756,2.09361,1.7592171,5.041938,11.801056791674766,5.735781119674298,jump
23/10/2020, 15:19:39,8.423284,7.0341725,-4.3397756,1.9127941,2.0878625,4.6399884,11.801056791674766,5.435756034182097,jump
23/10/2020, 15:19:39,6.1647806,10.051897,-4.7708793,1.9127941,2.0878625,4.6399884,12.720316164760806,5.435756034182097,jump
23/10/2020, 15:19:39,6.1647806,10.051897,-4.7708793,1.7405301,2.366417,4.040119,12.720316164760806,4.995191403121646,jump
23/10/2020, 15:19:39,4.0499783,11.541599,-4.5457473,1.7405301,2.366417,4.040119,13.048933136654304,4.995191403121646,jump
23/10/2020, 15:19:39,4.0499783,11.541599,-4.5457473,1.4522018,2.6083195,3.4707932,13.048933136654304,4.578059270248837,jump
23/10/2020, 15:19:39,1.3028907,11.225457,-4.3565407,1.4522018,2.6083195,3.4707932,12.111476372476398,4.578059270248837,jump
23/10/2020, 15:19:39,1.3028907,11.225457,-4.3565407,0.9073103,2.7121665,3.1751344,12.111476372476398,4.27323507002401,jump
23/10/2020, 15:19:39,-1.6429834,10.485396,-4.3254056,0.9073103,2.7121665,3.1751344,11.460892875862974,4.27323507002401,jump
23/10/2020, 15:19:39,-1.6429834,10.485396,-4.3254056,0.3221016,2.5264635,3.0529616,11.460892875862974,3.9758447849194014,jump
23/10/2020, 15:19:39,-3.432063,10.394385,-4.1553593,0.3221016,2.5264635,3.0529616,11.708514608611697,3.9758447849194014,jump
23/10/2020, 15:19:39,-3.432063,10.394385,-4.1553593,-0.14704272,2.0903058,2.779294,11.708514608611697,3.4807291100223336,jump
23/10/2020, 15:19:39,-3.767366,10.487791,-4.0930886,-0.14704272,2.0903058,2.779294,11.871823024457905,3.4807291100223336,jump
23/10/2020, 15:19:39,-3.767366,10.487791,-4.0930886,-0.5660961,1.6480397,2.3248103,11.871823024457905,2.9053816355868873,jump
23/10/2020, 15:19:39,-3.3386574,10.660233,-3.8775368,-0.5660961,1.6480397,2.3248103,11.824655699748705,2.9053816355868873,jump
23/10/2020, 15:19:39,-3.3386574,10.660233,-3.8775368,-0.98759294,1.343829,1.8520008,11.824655699748705,2.4922125446108034,jump
23/10/2020, 15:19:39,-2.3016138,10.279425,-3.547024,-0.98759294,1.343829,1.8520008,11.11509680347153,2.4922125446108034,jump
23/10/2020, 15:19:40,21.988676,-5.7552323,2.2656887,0.061873112,1.9107118,1.9692869,22.842020919273157,2.7445835203023243,jump
23/10/2020, 15:19:40,22.228178,-6.454578,1.829795,0.061873112,1.9107118,1.9692869,23.21856206129399,2.7445835203023243,jump
23/10/2020, 15:19:40,22.228178,-6.454578,1.829795,-0.2594419,2.2051485,2.4909656,23.21856206129399,3.33689967993353,jump
23/10/2020, 15:19:40,22.242548,-7.082073,1.2765454,-0.2594419,2.2051485,2.4909656,23.377687443064495,3.33689967993353,jump
23/10/2020, 15:19:40,22.242548,-7.082073,1.2765454,-0.4756881,2.2246962,3.0114226,23.377687443064495,3.774151355093215,jump
23/10/2020, 15:19:40,23.389761,-7.31439,0.6682105,-0.4756881,2.2246962,3.0114226,24.51586684795084,3.774151355093215,jump
23/10/2020, 15:19:40,23.389761,-7.31439,0.6682105,-0.5086748,2.1391752,3.530658,24.51586684795084,4.159370919847934,jump
23/10/2020, 15:19:40,26.081764,-7.094048,0.24189699,-0.5086748,2.1391752,3.530658,27.030398746558063,4.159370919847934,jump
23/10/2020, 15:19:40,26.081764,-7.094048,0.24189699,-0.3865018,2.152614,4.0743275,27.030398746558063,4.624205390319397,jump
23/10/2020, 15:19:40,29.408445,-6.7803006,0.11256592,-0.3865018,2.152614,4.0743275,30.180155830228323,4.624205390319397,jump
23/10/2020, 15:19:40,29.408445,-6.7803006,0.11256592,-0.2924286,2.393295,4.779266,30.180155830228323,5.353013921672018,jump
23/10/2020, 15:19:40,32.457306,-5.704937,0.05508545,-0.2924286,2.393295,4.779266,32.95490930324345,5.353013921672018,jump
23/10/2020, 15:19:40,32.457306,-5.704937,0.05508545,-0.39627564,2.751262,5.619816,32.95490930324345,6.269673565689537,jump
23/10/2020, 15:19:40,35.06069,-4.0356083,0.06945557,-0.39627564,2.751262,5.619816,35.2922522687803,6.269673565689537,jump
23/10/2020, 15:19:40,35.06069,-4.0356083,0.06945557,-0.7627946,2.9662864,6.4005017,35.2922522687803,7.095571374042127,jump
23/10/2020, 15:19:40,39.798042,-3.0201197,0.12454102,-0.7627946,2.9662864,6.4005017,39.912664706483454,7.095571374042127,jump
23/10/2020, 15:19:40,39.798042,-3.0201197,0.12454102,-1.3308991,2.980947,6.887972,39.912664706483454,7.62243361276072,jump
23/10/2020, 15:19:40,45.912525,-3.4919386,0.011975098,-1.3308991,2.980947,6.887972,46.04512728460156,7.62243361276072,jump
23/10/2020, 15:19:40,45.912525,-3.4919386,0.011975098,-1.8342519,3.0066035,7.3693333,46.04512728460156,8.167693508398864,jump
23/10/2020, 15:19:40,48.74344,-5.0415163,-0.0047900393,-1.8342519,3.0066035,7.3693333,49.00346648867891,8.167693508398864,jump
23/10/2020, 15:19:40,48.74344,-5.0415163,-0.0047900393,-2.0883718,3.0408118,8.026624,49.00346648867891,8.833715032900928,jump
23/10/2020, 15:19:40,47.356724,-7.544312,-1.2286451,-2.0883718,3.0408118,8.026624,47.9696310178873,8.833715032900928,jump
23/10/2020, 15:19:40,47.356724,-7.544312,-1.2286451,-2.1494584,2.9210823,8.660702,47.9696310178873,9.389390174053904,jump
23/10/2020, 15:19:40,47.047764,-8.372989,-2.42376,-2.1494584,2.9210823,8.660702,47.8484444146398,9.389390174053904,jump
23/10/2020, 15:19:40,47.047764,-8.372989,-2.42376,-2.006516,2.7023926,9.030887,47.8484444146398,9.637735507371863,jump
23/10/2020, 15:19:40,48.523098,-8.121511,-3.3602126,-2.006516,2.7023926,9.030887,49.31268615273875,9.637735507371863,jump
23/10/2020, 15:19:40,48.523098,-8.121511,-3.3602126,-1.7316265,2.4739292,9.254463,49.31268615273875,9.73467744391291,jump
23/10/2020, 15:19:40,49.418835,-7.434141,-3.2117214,-1.7316265,2.4739292,9.254463,50.0779675206985,9.73467744391291,jump
23/10/2020, 15:19:40,49.418835,-7.434141,-3.2117214,-1.3027993,2.298,9.564782,50.0779675206985,9.922859870728516,jump
23/10/2020, 15:19:40,49.361355,-5.611531,-2.7734327,-1.3027993,2.298,9.564782,49.756653396953894,9.922859870728516,jump
23/10/2020, 15:19:41,0.62031007,-2.4333398,0.016765138,-0.31686318,0.4226445,-0.16507542,2.5112165177956522,0.5534261821003305,jump
23/10/2020, 15:19:41,0.047900394,-2.6081765,-0.34009278,-0.31686318,0.4226445,-0.16507542,2.6306923125155883,0.5534261821003305,jump
23/10/2020, 15:19:41,0.047900394,-2.6081765,-0.34009278,-0.42193198,0.43608353,-0.2249402,2.6306923125155883,0.6471425888032865,jump
23/10/2020, 15:19:41,-0.033530276,-2.699187,-0.6011499,-0.42193198,0.43608353,-0.2249402,2.7655227680121364,0.6471425888032865,jump
23/10/2020, 15:19:41,-0.033530276,-2.699187,-0.6011499,-0.5428832,0.33467993,-0.2933571,2.7655227680121364,0.7019909078124601,jump
23/10/2020, 15:19:41,0.50534916,-3.0033545,-0.6993457,-0.5428832,0.33467993,-0.2933571,3.1248361143176244,0.7019909078124601,jump
23/10/2020, 15:19:41,0.50534916,-3.0033545,-0.6993457,-0.6980429,0.19051579,-0.3251221,3.1248361143176244,0.793261979468629,jump
23/10/2020, 15:19:41,1.8872755,-3.439248,-0.9987232,-0.6980429,0.19051579,-0.3251221,4.048170462118479,0.793261979468629,jump
23/10/2020, 15:19:41,1.8872755,-3.439248,-0.9987232,-0.8495375,0.019473586,-0.36543918,4.048170462118479,0.9250075471563894,jump
23/10/2020, 15:19:41,3.6883302,-3.8224514,-1.223855,-0.8495375,0.019473586,-0.36543918,5.450938902785109,0.9250075471563894,jump
23/10/2020, 15:19:41,3.6883302,-3.8224514,-1.223855,-0.94361067,-0.11369499,-0.41675183,5.450938902785109,1.0377907942986238,jump
23/10/2020, 15:19:41,5.4103494,-4.2104445,-0.9484278,-0.94361067,-0.11369499,-0.41675183,6.9209275425919365,1.0377907942986238,jump
23/10/2020, 15:19:41,5.4103494,-4.2104445,-0.9484278,-0.9118457,-0.089260384,-0.44973853,6.9209275425919365,1.0206344669828997,jump
23/10/2020, 15:19:41,6.8425713,-4.615203,-0.019160157,-0.9118457,-0.089260384,-0.44973853,8.253559618894375,1.0206344669828997,jump
23/10/2020, 15:19:41,6.8425713,-4.615203,-0.019160157,-0.7334731,0.085447006,-0.44973853,8.253559618894375,0.8646090209649371,jump
23/10/2020, 15:19:41,7.6257424,-4.9002104,0.728086,-0.7334731,0.085447006,-0.44973853,9.093630665542959,0.8646090209649371,jump
23/10/2020, 15:19:41,7.6257424,-4.9002104,0.728086,-0.44514483,0.2760369,-0.40942144,9.093630665542959,0.6648129090722473,jump
23/10/2020, 15:19:41,7.7598634,-5.113367,1.1280543,-0.44514483,0.2760369,-0.40942144,9.361330511303704,0.6648129090722473,jump
23/10/2020, 15:19:41,7.7598634,-5.113367,1.1280543,-0.08717795,0.36766663,-0.32390034,9.361330511303704,0.497684818184425,jump
23/10/2020, 15:19:41,7.568262,-5.53489,1.2478052,-0.08717795,0.36766663,-0.32390034,9.458890969709602,0.497684818184425,jump
23/10/2020, 15:19:41,7.568262,-5.53489,1.2478052,0.26712376,0.34323204,-0.16996235,9.458890969709602,0.46695881193651495,jump
23/10/2020, 15:19:41,7.5323367,-6.318062,0.74006104,0.26712376,0.34323204,-0.16996235,9.85909184262125,0.46695881193651495,jump
23/10/2020, 15:19:41,7.5323367,-6.318062,0.74006104,0.57255626,0.16363773,0.049949054,9.85909184262125,0.5975724906133256,jump
23/10/2020, 15:19:41,8.361013,-7.072493,-0.39517823,0.57255626,0.16363773,0.049949054,10.958232952014972,0.5975724906133256,jump
23/10/2020, 15:19:41,8.361013,-7.072493,-0.39517823,0.8095719,-0.16012073,0.28329948,10.958232952014972,0.8725273270418632,jump
23/10/2020, 15:19:41,10.186019,-7.230564,-0.6514453,0.8095719,-0.16012073,0.28329948,12.508413984050595,0.8725273270418632,jump
23/10/2020, 15:19:41,10.186019,-7.230564,-0.6514453,1.0099356,-0.4105754,0.5313107,12.508413984050595,1.2127790970345345,jump
23/10/2020, 15:19:41,12.502003,-7.086863,-0.09101075,1.0099356,-0.4105754,0.5313107,14.371220638129316,1.2127790970345345,jump
23/10/2020, 15:19:41,12.502003,-7.086863,-0.09101075,1.2090776,-0.4105754,0.83429974,14.371220638129316,1.52528582468301,jump
23/10/2020, 15:19:41,14.7054205,-6.593489,-0.0071850587,1.2090776,-0.4105754,0.83429974,16.115940647962603,1.52528582468301,jump
23/10/2020, 15:19:42,8.626861,-2.675237,0.91250247,1.0563613,-0.1466817,-0.9934084,9.078120817285443,1.457489268123243,jump
23/10/2020, 15:19:42,7.668853,-3.2620168,1.5399976,1.0563613,-0.1466817,-0.9934084,8.474883440467451,1.457489268123243,jump
23/10/2020, 15:19:42,7.668853,-3.2620168,1.5399976,0.7716983,0.061012406,-0.67942375,8.474883440467451,1.029979322677841,jump
23/10/2020, 15:19:42,6.6030693,-3.4871485,2.0573218,0.7716983,0.061012406,-0.67942375,7.745534326998963,1.029979322677841,jump
23/10/2020, 15:19:42,6.6030693,-3.4871485,2.0573218,0.6629643,0.35056242,-0.4350778,7.745534326998963,0.8670111506909592,jump
23/10/2020, 15:19:42,5.4606447,-3.3530276,2.0812721,0.6629643,0.35056242,-0.4350778,6.737442274768866,0.8670111506909592,jump
23/10/2020, 15:19:42,5.4606447,-3.3530276,2.0812721,0.60798645,0.67309916,-0.3104613,6.737442274768866,0.9586950660428245,jump
23/10/2020, 15:19:42,3.9445972,-2.9698243,1.6573536,0.60798645,0.67309916,-0.3104613,5.208313063062945,0.9586950660428245,jump
23/10/2020, 15:19:42,3.9445972,-2.9698243,1.6573536,0.5407913,0.9675361,-0.25304002,5.208313063062945,1.1369303142972709,jump
23/10/2020, 15:19:42,2.1219873,-2.459685,1.0585986,0.5407913,0.9675361,-0.25304002,3.41665217528086,1.1369303142972709,jump
23/10/2020, 15:19:42,2.1219873,-2.459685,1.0585986,0.37219256,1.1398001,-0.22005329,3.41665217528086,1.2190549433115911,jump
23/10/2020, 15:19:42,0.39517823,-1.8800904,0.30416748,0.37219256,1.1398001,-0.22005329,1.9451024225138454,1.2190549433115911,jump
23/10/2020, 15:19:42,0.39517823,-1.8800904,0.30416748,0.075312145,1.1104785,-0.19073176,1.9451024225138454,1.1292533237432374,jump
23/10/2020, 15:19:42,-1.3268409,-1.7699195,-0.25866213,0.075312145,1.1104785,-0.19073176,2.227112009403612,1.1292533237432374,jump
23/10/2020, 15:19:42,-1.3268409,-1.7699195,-0.25866213,-0.3009807,0.8588021,-0.121093154,2.227112009403612,0.9180380922620238,jump
23/10/2020, 15:19:42,-2.4764502,-1.8633252,-0.80233157,-0.3009807,0.8588021,-0.121093154,3.2013313642319936,0.9180380922620238,jump
23/10/2020, 15:19:42,-2.4764502,-1.8633252,-0.80233157,-0.6919343,0.43241832,-0.045345888,3.2013313642319936,0.8171994299649984,jump
23/10/2020, 15:19:42,-2.3447242,-1.8753004,-0.89573735,-0.6919343,0.43241832,-0.045345888,3.1331818476692184,0.8171994299649984,jump
23/10/2020, 15:19:42,-2.3447242,-1.8753004,-0.89573735,-0.9839278,-0.019621775,-0.06978049,3.1331818476692184,0.9865942528485461,jump
23/10/2020, 15:19:42,-1.214275,-2.1243825,-0.7544312,-0.9839278,-0.019621775,-0.06978049,2.560591960472507,0.9865942528485461,jump
23/10/2020, 15:19:42,-1.214275,-2.1243825,-0.7544312,-1.1940653,-0.31039354,-0.15652332,2.560591960472507,1.2436380976042085,jump
23/10/2020, 15:19:42,0.4263135,-2.6009912,-0.57719976,-1.1940653,-0.31039354,-0.15652332,2.698158303155811,1.2436380976042085,jump
23/10/2020, 15:19:42,0.4263135,-2.6009912,-0.57719976,-1.3589989,-0.35071063,-0.22371846,2.698158303155811,1.4212409694918493,jump
23/10/2020, 15:19:42,2.0381618,-3.173401,-0.25387207,-1.3589989,-0.35071063,-0.22371846,3.780083202213251,1.4212409694918493,jump
23/10/2020, 15:19:42,2.0381618,-3.173401,-0.25387207,-1.4933892,-0.2077682,-0.26159212,3.780083202213251,1.5302971971078458,jump
23/10/2020, 15:19:42,3.0943654,-3.7290456,0.026345216,-1.4933892,-0.2077682,-0.26159212,4.845778817514098,1.5302971971078458,jump
23/10/2020, 15:19:42,3.0943654,-3.7290456,0.026345216,-1.5813538,-0.007404475,-0.3336742,4.845778817514098,1.6161909175195563,jump
23/10/2020, 15:19:42,3.6140847,-4.4403663,0.2778223,-1.5813538,-0.007404475,-0.3336742,5.73198448931001,1.6161909175195563,jump
23/10/2020, 15:19:42,3.6140847,-4.4403663,0.2778223,-1.6033449,0.1379814,-0.45340374,5.73198448931001,1.6719236654233691,jump
23/10/2020, 15:19:42,3.6260598,-5.357659,0.67539555,-1.6033449,0.1379814,-0.45340374,6.504535117867993,1.6719236654233691,jump
23/10/2020, 15:19:43,31.13286,-8.54064,-0.62989014,1.2212949,-0.12224709,-0.64521533,32.2892284566572,1.3866536556085678,jump
23/10/2020, 15:19:43,31.717245,-8.770562,0.5724097,1.2212949,-0.12224709,-0.64521533,32.912521181461706,1.3866536556085678,jump
23/10/2020, 15:19:43,31.717245,-8.770562,0.5724097,1.2493947,-0.31650218,-0.19073176,32.912521181461706,1.3028964818896343,jump
23/10/2020, 15:19:43,31.77712,-8.353828,1.465752,1.2493947,-0.31650218,-0.19073176,32.8895161318529,1.3028964818896343,jump
23/10/2020, 15:19:43,31.77712,-8.353828,1.465752,1.1870865,-0.42645788,0.3248383,32.8895161318529,1.3025208342253425,jump
23/10/2020, 15:19:43,30.737682,-7.1706886,2.1100123,1.1870865,-0.42645788,0.3248383,31.63346397539309,1.3025208342253425,jump
23/10/2020, 15:19:43,30.737682,-7.1706886,2.1100123,0.9036451,-0.4960965,0.8086434,31.63346397539309,1.3101871401266865,jump
23/10/2020, 15:19:43,28.68515,-5.264253,1.8465601,0.9036451,-0.4960965,0.8086434,29.222593730228166,1.3101871401266865,jump
23/10/2020, 15:19:43,28.68515,-5.264253,1.8465601,0.46504402,-0.602387,1.1824929,29.222593730228166,1.4062095856042123,jump
23/10/2020, 15:19:43,26.905651,-3.3290772,1.0418335,0.46504402,-0.602387,1.1824929,27.130835466151872,1.4062095856042123,jump
23/10/2020, 15:19:43,26.905651,-3.3290772,1.0418335,-0.0016568489,-0.6708039,1.3278787,27.130835466151872,1.4876970462894357,jump
23/10/2020, 15:19:43,26.122478,-0.44786867,0.45984375,-0.0016568489,-0.6708039,1.3278787,26.13036403944155,1.4876970462894357,jump
23/10/2020, 15:19:43,26.122478,-0.44786867,0.45984375,-0.2276769,-0.6011653,1.2912267,26.13036403944155,1.4423948792147758,jump
23/10/2020, 15:19:43,24.39567,0.7448511,-0.33530274,-0.2276769,-0.6011653,1.2912267,24.40934130182218,1.4423948792147758,jump
23/10/2020, 15:19:43,24.39567,0.7448511,-0.33530274,-0.42804062,-0.45822287,1.2777878,24.40934130182218,1.4233512019455197,jump
23/10/2020, 15:19:43,22.774242,0.76401126,-0.9388477,-0.42804062,-0.45822287,1.2777878,22.80638650025285,1.4233512019455197,jump
23/10/2020, 15:19:43,22.774242,0.76401126,-0.9388477,-0.58442205,-0.3629279,1.1348454,22.80638650025285,1.3270794372359407,jump
23/10/2020, 15:19:43,21.100122,-0.2203418,-1.0178833,-0.58442205,-0.3629279,1.1348454,21.125808964481458,1.3270794372359407,jump
23/10/2020, 15:19:43,21.100122,-0.2203418,-1.0178833,-0.66994315,-0.22975934,0.95647275,21.125808964481458,1.1901484410436678,jump
23/10/2020, 15:19:43,19.289488,-1.8657203,-0.25866213,-0.66994315,-0.22975934,0.95647275,19.381232141287203,1.1901484410436678,jump
23/10/2020, 15:19:43,19.289488,-1.8657203,-0.25866213,-0.6222957,0.009699745,0.833078,19.381232141287203,1.0398870102955065,jump
23/10/2020, 15:19:43,17.14834,-3.535049,0.7089258,-0.6222957,0.009699745,0.833078,17.52326223646094,1.0398870102955065,jump
23/10/2020, 15:19:43,17.14834,-3.535049,0.7089258,-0.38528007,0.30047148,0.70113117,17.52326223646094,0.8545810424288133,jump
23/10/2020, 15:19:43,14.62878,-4.4595265,1.7172291,-0.38528007,0.30047148,0.70113117,15.389524612393789,0.8545810424288133,jump
23/10/2020, 15:19:43,14.62878,-4.4595265,1.7172291,0.034995053,0.60101706,0.54841495,15.389524612393789,0.8143740603516147,jump
23/10/2020, 15:19:43,11.527229,-4.4619217,2.8859987,0.034995053,0.60101706,0.54841495,12.693098493851053,0.8143740603516147,jump
23/10/2020, 15:19:43,11.527229,-4.4619217,2.8859987,0.57377803,0.9198886,0.4140246,12.693098493851053,1.1605311968643044,jump
23/10/2020, 15:19:43,8.499925,-3.7577858,3.1326857,0.57377803,0.9198886,0.4140246,9.807313228948788,1.1605311968643044,jump
23/10/2020, 15:19:43,8.499925,-3.7577858,3.1326857,1.1821996,1.194778,0.31017753,9.807313228948788,1.709181201059346,jump
23/10/2020, 15:19:43,5.4127445,-2.8907888,3.1350808,1.1821996,1.194778,0.31017753,6.89080509251559,1.709181201059346,jump
23/10/2020, 15:19:44,0.5029541,-0.10777588,-1.1543995,-0.1055039,-0.07459962,-0.5340379,1.2638104016659104,0.5494475798741052,jump
23/10/2020, 15:19:44,0.9987232,-0.07185059,-0.68018556,-0.1055039,-0.07459962,-0.5340379,1.2104804610141975,0.5494475798741052,jump
23/10/2020, 15:19:44,0.9987232,-0.07185059,-0.68018556,0.023999482,-0.1344644,-0.5169337,1.2104804610141975,0.5346747409188081,jump
23/10/2020, 15:19:44,1.3268409,0.5388794,-0.100590825,0.023999482,-0.1344644,-0.5169337,1.435623986367339,0.5346747409188081,jump
23/10/2020, 15:19:44,1.3268409,0.5388794,-0.100590825,0.23047185,-0.16256419,-0.5670246,1.435623986367339,0.63329398603148,jump
23/10/2020, 15:19:44,1.3891114,1.1999048,0.61552006,0.23047185,-0.16256419,-0.5670246,1.9360441505164145,0.63329398603148,jump
23/10/2020, 15:19:44,1.3891114,1.1999048,0.61552006,0.4442746,-0.19921608,-0.6232242,1.9360441505164145,0.7908700105832562,jump
23/10/2020, 15:19:44,1.1711646,0.93405765,0.62031007,0.4442746,-0.19921608,-0.6232242,1.6213805458745127,0.7908700105832562,jump
23/10/2020, 15:19:44,1.1711646,0.93405765,0.62031007,0.5139132,-0.27862856,-0.6171155,1.6213805458745127,0.8500424709329213,jump
23/10/2020, 15:19:44,1.214275,0.16525635,0.33530274,0.5139132,-0.27862856,-0.6171155,1.2705122474600077,0.8500424709329213,jump
23/10/2020, 15:19:44,1.214275,0.16525635,0.33530274,0.49803072,-0.38125387,-0.5792419,1.2705122474600077,0.8537624133255066,jump
23/10/2020, 15:19:44,1.5112574,-0.3520679,-0.06945557,0.49803072,-0.38125387,-0.5792419,1.553278736558879,0.8537624133255066,jump
23/10/2020, 15:19:44,1.5112574,-0.3520679,-0.06945557,0.48947865,-0.4398969,-0.556029,1.553278736558879,0.861549135118851,jump
23/10/2020, 15:19:44,1.6789087,-0.4622388,-0.11496094,0.48947865,-0.4398969,-0.556029,1.7451690913000812,0.861549135118851,jump
23/10/2020, 15:19:44,1.6789087,-0.4622388,-0.11496094,0.50413936,-0.4301231,-0.5523638,1.7451690913000812,0.8627097733980995,jump
23/10/2020, 15:19:44,1.6238233,-0.05748047,0.081430666,0.50413936,-0.4301231,-0.5523638,1.626879534258099,0.8627097733980995,jump
23/10/2020, 15:19:44,1.6238233,-0.05748047,0.081430666,0.49192208,-0.4301231,-0.52792925,1.626879534258099,0.8400610071433571,jump
23/10/2020, 15:19:44,1.705254,0.4382886,-0.06706055,0.49192208,-0.4301231,-0.52792925,1.76195490226358,0.8400610071433571,jump
23/10/2020, 15:19:44,1.705254,0.4382886,-0.06706055,0.27445412,-0.5156442,-0.50471634,1.76195490226358,0.7719796475685969,jump
23/10/2020, 15:19:44,2.4668703,1.1807446,0.07903565,0.27445412,-0.5156442,-0.50471634,2.736028814426525,0.7719796475685969,jump
23/10/2020, 15:19:44,2.4668703,1.1807446,0.07903565,-0.10183871,-0.71234274,-0.5144902,2.736028814426525,0.8845922524416715,jump
23/10/2020, 15:19:44,3.9853127,1.6645386,-0.3065625,-0.10183871,-0.71234274,-0.5144902,4.329825252501225,0.8845922524416715,jump
23/10/2020, 15:19:44,3.9853127,1.6645386,-0.3065625,-0.57220477,-1.0092231,-0.5181554,4.329825252501225,1.2706040234265406,jump
23/10/2020, 15:19:44,5.9037232,1.3867164,-1.2430152,-0.57220477,-1.0092231,-0.5181554,6.190477936769414,1.2706040234265406,jump
23/10/2020, 15:19:44,5.9037232,1.3867164,-1.2430152,-1.1537483,-1.3317598,-0.47050795,6.190477936769414,1.8237590308926164,jump
23/10/2020, 15:19:44,8.459209,0.8262818,-1.8968556,-1.1537483,-1.3317598,-0.47050795,8.70856056506744,1.8237590308926164,jump
23/10/2020, 15:19:44,8.459209,0.8262818,-1.8968556,-1.7414004,-1.5834361,-0.3959824,8.70856056506744,2.386744073534548,jump
23/10/2020, 15:19:44,11.754756,0.20597169,-2.2513185,-1.7414004,-1.5834361,-0.3959824,11.970177405740303,2.386744073534548,jump
23/10/2020, 15:19:44,11.754756,0.20597169,-2.2513185,-2.200771,-1.6347488,-0.43752125,11.970177405740303,2.7761883837012826,jump
23/10/2020, 15:19:44,16.214283,-0.68737066,-2.1698878,-2.200771,-1.6347488,-0.43752125,16.373266756141774,2.7761883837012826,jump
23/10/2020, 15:19:45,7.3934255,1.705254,0.9412427,0.57255626,0.2858107,-0.24570961,7.645689568333765,0.6854791338883498,jump
23/10/2020, 15:19:45,6.5336137,1.2046949,1.3795313,0.57255626,0.2858107,-0.24570961,6.785462694246426,0.6854791338883498,jump
23/10/2020, 15:19:45,6.5336137,1.2046949,1.3795313,0.7216073,0.23816326,-0.20661424,6.785462694246426,0.7874822660139008,jump
23/10/2020, 15:19:45,5.7911572,0.9196875,1.6789087,0.7216073,0.23816326,-0.20661424,6.099349293243788,0.7874822660139008,jump
23/10/2020, 15:19:45,5.7911572,0.9196875,1.6789087,0.9415187,0.22228077,-0.1968404,6.099349293243788,0.9872245913424978,jump
23/10/2020, 15:19:45,5.0726514,0.6514453,1.3627661,0.9415187,0.22228077,-0.1968404,5.292759646341424,0.9872245913424978,jump
23/10/2020, 15:19:45,5.0726514,0.6514453,1.3627661,1.1308869,0.24427192,-0.25181827,5.292759646341424,1.1840550746653766,jump
23/10/2020, 15:19:45,4.5002418,0.7376661,0.732876,1.1308869,0.24427192,-0.25181827,4.61881308707899,1.1840550746653766,jump
23/10/2020, 15:19:45,4.5002418,0.7376661,0.732876,1.2078559,0.26626304,-0.3874303,4.61881308707899,1.2961150497273424,jump
23/10/2020, 15:19:45,3.63564,0.94603276,0.043110352,1.2078559,0.26626304,-0.3874303,3.7569554183957616,1.2961150497273424,jump
23/10/2020, 15:19:45,3.63564,0.94603276,0.043110352,1.1907517,0.24549364,-0.556029,3.7569554183957616,1.3369087261210655,jump
23/10/2020, 15:19:45,2.8764186,0.9867481,-0.5484595,1.1907517,0.24549364,-0.556029,3.0900264578306413,1.3369087261210655,jump
23/10/2020, 15:19:45,2.8764186,0.9867481,-0.5484595,1.075909,0.20273308,-0.69164103,3.0900264578306413,1.295008972095824,jump
23/10/2020, 15:19:45,2.179468,0.9651929,-1.0657837,1.075909,0.20273308,-0.69164103,2.6110482069018413,1.295008972095824,jump
23/10/2020, 15:19:45,2.179468,0.9651929,-1.0657837,0.8572194,0.12820756,-0.786936,2.6110482069018413,1.1706965962747231,jump
23/10/2020, 15:19:45,1.5591577,1.1160791,-1.3388159,0.8572194,0.12820756,-0.786936,2.338596470484824,1.1706965962747231,jump
23/10/2020, 15:19:45,1.5591577,1.1160791,-1.3388159,0.58721703,0.024360506,-0.86268324,2.338596470484824,1.0438580577328196,jump
23/10/2020, 15:19:45,1.0202783,1.1951149,-1.2741505,0.58721703,0.024360506,-0.86268324,2.0230489020960123,1.0438580577328196,jump
23/10/2020, 15:19:45,1.0202783,1.1951149,-1.2741505,0.38685328,-0.089260384,-0.8797875,2.0230489020960123,0.9652196268536416,jump
23/10/2020, 15:19:45,0.67539555,0.7592212,-1.0801538,0.38685328,-0.089260384,-0.8797875,1.483006491073551,0.9652196268536416,jump
23/10/2020, 15:19:45,0.67539555,0.7592212,-1.0801538,0.25857162,-0.18089014,-0.85168767,1.483006491073551,0.9082689115810876,jump
23/10/2020, 15:19:45,0.613125,0.24668702,-0.69216067,0.25857162,-0.18089014,-0.85168767,0.9570074051684586,0.9082689115810876,jump
23/10/2020, 15:19:45,0.613125,0.24668702,-0.69216067,0.20481552,-0.24197663,-0.8358052,0.9570074051684586,0.8939084876414415,jump
23/10/2020, 15:19:45,0.73048097,-0.2562671,-0.40954837,0.20481552,-0.24197663,-0.8358052,0.8757882974040181,0.8939084876414415,jump
23/10/2020, 15:19:45,0.73048097,-0.2562671,-0.40954837,0.21581109,-0.31039354,-0.8614615,0.8757882974040181,0.94076273720935,jump
23/10/2020, 15:19:45,1.0154883,-0.6730005,-0.122146,0.21581109,-0.31039354,-0.8614615,1.2243634096403122,0.94076273720935,jump
23/10/2020, 15:19:45,1.0154883,-0.6730005,-0.122146,0.25246298,-0.39102772,-0.92010456,1.2243634096403122,1.0311317287310786,jump
23/10/2020, 15:19:45,1.5352076,-1.1999048,0.06227051,0.25246298,-0.39102772,-0.92010456,1.9494900895026126,1.0311317287310786,jump
23/10/2020, 15:19:45,1.5352076,-1.1999048,0.06227051,0.29400182,-0.47044018,-0.9799693,1.9494900895026126,1.1260954241671333,jump
23/10/2020, 15:19:45,2.1770728,-1.7723145,0.05748047,0.29400182,-0.47044018,-0.9799693,2.807854818269542,1.1260954241671333,jump
23/10/2020, 15:19:46,20.563639,0.41194338,-0.6490503,1.0307051,-1.1265092,-0.22982712,20.57800281091356,1.5440843407212486,jump
23/10/2020, 15:19:46,20.908522,0.19639161,-1.3675562,1.0307051,-1.1265092,-0.22982712,20.95411790904501,1.5440843407212486,jump
23/10/2020, 15:19:46,20.908522,0.19639161,-1.3675562,1.0612483,-1.2926644,-0.1968404,20.95411790904501,1.6840354444532064,jump
23/10/2020, 15:19:46,22.0725,0.081430666,-1.4897022,1.0612483,-1.2926644,-0.1968404,22.122863965267875,1.6840354444532064,jump
23/10/2020, 15:19:46,22.0725,0.081430666,-1.4897022,1.0893481,-1.3012165,-0.1846231,22.122863965267875,1.7070235095737527,jump
23/10/2020, 15:19:46,22.268892,-0.045505375,-1.1184741,1.0893481,-1.3012165,-0.1846231,22.2970091907672,1.7070235095737527,jump
23/10/2020, 15:19:46,22.268892,-0.045505375,-1.1184741,1.0930133,-1.0959659,-0.1882883,22.2970091907672,1.5592535715251,jump
23/10/2020, 15:19:46,20.886967,-0.3424878,-0.72569096,1.0930133,-1.0959659,-0.1882883,20.902375544931424,1.5592535715251,jump
23/10/2020, 15:19:46,20.886967,-0.3424878,-0.72569096,1.0820177,-0.84551126,-0.16507542,20.902375544931424,1.3830767868761482,jump
23/10/2020, 15:19:46,18.42728,-0.59156984,-0.23231691,1.0820177,-0.84551126,-0.16507542,18.438237169623605,1.3830767868761482,jump
23/10/2020, 15:19:46,18.42728,-0.59156984,-0.23231691,1.0478092,-0.6536997,-0.12964526,18.438237169623605,1.2417871781206489,jump
23/10/2020, 15:19:46,16.147223,-0.51732427,-0.06706055,1.0478092,-0.6536997,-0.12964526,16.155646585400437,1.2417871781206489,jump
23/10/2020, 15:19:46,16.147223,-0.51732427,-0.06706055,0.9378536,-0.5681786,-0.16018851,16.155646585400437,1.1081771526001774,jump
23/10/2020, 15:19:46,14.140196,-0.31853762,0.102985844,0.9378536,-0.5681786,-0.16018851,14.144158189165664,1.1081771526001774,jump
23/10/2020, 15:19:46,14.140196,-0.31853762,0.102985844,0.7936894,-0.5657351,-0.24815308,14.144158189165664,1.005772869551461,jump
23/10/2020, 15:19:46,12.466077,-0.25866213,0.14130616,0.7936894,-0.5657351,-0.24815308,12.469560761449687,1.005772869551461,jump
23/10/2020, 15:19:46,12.466077,-0.25866213,0.14130616,0.66174257,-0.615826,-0.33856112,12.469560761449687,0.9652815818029088,jump
23/10/2020, 15:19:46,11.144027,-0.41912845,-0.047900394,0.66174257,-0.615826,-0.33856112,11.152008583581285,0.9652815818029088,jump
23/10/2020, 15:19:46,11.144027,-0.41912845,-0.047900394,0.6140951,-0.6952385,-0.39842588,11.152008583581285,1.0095605444634046,jump
23/10/2020, 15:19:46,10.317744,-0.7065308,0.23471193,0.6140951,-0.6952385,-0.39842588,10.344569685962684,1.0095605444634046,jump
23/10/2020, 15:19:46,10.317744,-0.7065308,0.23471193,0.67640334,-0.7233383,-0.40942144,10.344569685962684,1.0716182654986108,jump
23/10/2020, 15:19:46,9.553733,-1.0346485,0.8382569,0.67640334,-0.7233383,-0.40942144,9.646086460791572,1.0716182654986108,jump
23/10/2020, 15:19:46,9.553733,-1.0346485,0.8382569,0.8340065,-0.6720256,-0.36177397,9.646086460791572,1.130515661765859,jump
23/10/2020, 15:19:46,8.62207,-1.223855,1.5591577,0.8340065,-0.6720256,-0.36177397,8.84697069084381,1.130515661765859,jump
23/10/2020, 15:19:46,8.62207,-1.223855,1.5591577,1.0930133,-0.5376353,-0.27625287,8.84697069084381,1.2490177879834585,jump
23/10/2020, 15:19:46,7.549102,-1.1280543,2.203418,1.0930133,-0.5376353,-0.27625287,7.94458908968667,1.2490177879834585,jump
23/10/2020, 15:19:46,7.549102,-1.1280543,2.203418,1.4350977,-0.37392348,-0.21760982,7.94458908968667,1.4988923232500984,jump
23/10/2020, 15:19:46,6.3875175,-1.104104,2.5243506,1.4350977,-0.37392348,-0.21760982,6.956419417197379,1.4988923232500984,jump
23/10/2020, 15:19:46,6.3875175,-1.104104,2.5243506,1.7600778,-0.2077682,-0.18706657,6.956419417197379,1.7821435153958591,jump
23/10/2020, 15:19:46,5.0918117,-1.343606,2.5387208,1.7600778,-0.2077682,-0.18706657,5.846103536113562,1.7821435153958591,jump
23/10/2020, 15:19:47,4.3301954,-1.6789087,-0.9508228,1.3239202,-0.6329303,-0.1846231,4.740610806499142,1.4790034677940622,jump
23/10/2020, 15:19:47,4.3301954,-1.6789087,-0.9508228,1.3850068,-0.679356,-0.25059655,4.740610806499142,1.5628713875939115,jump
23/10/2020, 15:19:47,5.46304,-1.5040723,-1.3076807,1.3850068,-0.679356,-0.25059655,5.815244368620933,1.5628713875939115,jump
23/10/2020, 15:19:47,5.46304,-1.5040723,-1.3076807,1.4192152,-0.79419863,-0.29824403,5.815244368620933,1.6534426990327151,jump
23/10/2020, 15:19:47,5.46304,-1.5040723,-1.3076807,1.383785,-0.9041543,-0.3177917,5.815244368620933,1.6832550360749527,jump
23/10/2020, 15:19:47,7.060518,-1.2645704,-1.5447876,1.383785,-0.9041543,-0.3177917,7.337330474137956,1.6832550360749527,jump
23/10/2020, 15:19:47,9.144185,-0.7783814,-1.4992822,1.383785,-0.9041543,-0.3177917,9.298916355053896,1.6832550360749527,jump
23/10/2020, 15:19:47,9.144185,-0.7783814,-1.4992822,1.2310687,-0.910263,-0.32023516,9.298916355053896,1.5641801402405624,jump
23/10/2020, 15:19:47,11.54639,-0.2562671,-1.7459693,1.2310687,-0.910263,-0.32023516,11.680462060019712,1.5641801402405624,jump
23/10/2020, 15:19:47,11.54639,-0.2562671,-1.7459693,0.8865409,-0.8345157,-0.35200015,11.680462060019712,1.2673891631774692,jump
23/10/2020, 15:19:47,14.240787,0.14370118,-1.7842896,0.8865409,-0.8345157,-0.35200015,14.352851320640314,1.2673891631774692,jump
23/10/2020, 15:19:47,14.240787,0.14370118,-1.7842896,0.4467181,-0.6756908,-0.48272526,14.352851320640314,0.9429415859718014,jump
23/10/2020, 15:19:47,16.690891,-0.11256592,-2.0022364,0.4467181,-0.6756908,-0.48272526,16.810933132987575,0.9429415859718014,jump
23/10/2020, 15:19:47,16.690891,-0.11256592,-2.0022364,0.04354716,-0.46921843,-0.66720647,16.810933132987575,0.8168394955785954,jump
23/10/2020, 15:19:47,18.829645,-1.2645704,-2.7255323,0.04354716,-0.46921843,-0.66720647,19.067857803093624,0.8168394955785954,jump
23/10/2020, 15:19:47,18.829645,-1.2645704,-2.7255323,-0.33274567,-0.2285376,-0.845579,19.067857803093624,0.936991467998673,jump
23/10/2020, 15:19:47,20.328926,-2.6488917,-3.0656252,-0.33274567,-0.2285376,-0.845579,20.72872212194885,0.936991467998673,jump
23/10/2020, 15:19:47,20.328926,-2.6488917,-3.0656252,-0.5941959,0.025582237,-1.0019605,20.72872212194885,1.165181572459851,jump
23/10/2020, 15:19:47,20.635489,-3.8344264,-2.6153615,-0.5941959,0.025582237,-1.0019605,21.151036083778525,1.165181572459851,jump
23/10/2020, 15:19:47,20.635489,-3.8344264,-2.6153615,-0.6955995,0.1990679,-1.116803,21.151036083778525,1.3306899499666205,jump
23/10/2020, 15:19:47,19.521805,-4.8571,-1.5471827,-0.6955995,0.1990679,-1.116803,20.176373751793292,1.3306899499666205,jump
23/10/2020, 15:19:47,19.521805,-4.8571,-1.5471827,-0.5379963,0.2357198,-1.1473464,20.176373751793292,1.2889559899813978,jump
23/10/2020, 15:19:47,18.091978,-6.0450296,-0.244292,-0.5379963,0.2357198,-1.1473464,19.07673275310197,1.2889559899813978,jump
23/10/2020, 15:19:47,18.091978,-6.0450296,-0.244292,-0.068852,0.09888604,-1.1277987,19.07673275310197,1.1342173081280005,jump
23/10/2020, 15:19:47,17.694405,-6.734795,1.5232325,-0.068852,0.09888604,-1.1277987,18.99393735643724,1.1342173081280005,jump
23/10/2020, 15:19:47,17.694405,-6.734795,1.5232325,0.84378034,-0.27985027,-1.0630469,18.99393735643724,1.3857670136887343,jump
23/10/2020, 15:19:47,19.39008,-7.7167535,2.44771,0.84378034,-0.27985027,-1.0630469,21.01225241831542,1.3857670136887343,jump
23/10/2020, 15:19:47,19.39008,-7.7167535,2.44771,1.7857342,-0.5339701,-1.1387942,21.01225241831542,2.1842213324114583,jump
23/10/2020, 15:19:47,23.85679,-8.509504,2.3902297,1.7857342,-0.5339701,-1.1387942,25.44152740627049,2.1842213324114583,jump
23/10/2020, 15:19:47,23.85679,-8.509504,2.3902297,2.5199938,-0.52297455,-1.4772135,25.44152740627049,2.967495707246715,jump
23/10/2020, 15:19:48,25.976383,-4.26074,-1.2789404,1.3214768,0.6388907,1.3156614,26.3545456601194,1.9711537949142341,jump
23/10/2020, 15:19:48,25.976383,-4.26074,-1.2789404,0.9732837,0.97486645,1.5367945,26.3545456601194,2.0638273279679002,jump
23/10/2020, 15:19:48,22.949078,-2.7901978,-1.4897022,0.9732837,0.97486645,1.5367945,23.166022095558517,2.0638273279679002,jump
23/10/2020, 15:19:48,22.949078,-2.7901978,-1.4897022,0.5701128,1.2314298,1.6711848,23.166022095558517,2.1527439665493056,jump
23/10/2020, 15:19:48,19.258352,-1.9160157,-1.2382251,0.5701128,1.2314298,1.6711848,19.393000032587445,2.1527439665493056,jump
23/10/2020, 15:19:48,19.258352,-1.9160157,-1.2382251,0.09363809,1.3975852,1.6577458,19.393000032587445,2.170284225115797,jump
23/10/2020, 15:19:48,15.445481,-1.5256275,-2.0070264,0.09363809,1.3975852,1.6577458,15.649874982125398,2.170284225115797,jump
23/10/2020, 15:19:48,15.445481,-1.5256275,-2.0070264,-0.28631997,1.5099843,1.6003245,15.649874982125398,2.218799251373369,jump
23/10/2020, 15:19:48,11.963123,-1.1567944,-2.2417383,-0.28631997,1.5099843,1.6003245,12.226196614214324,2.218799251373369,jump
23/10/2020, 15:19:48,11.963123,-1.1567944,-2.2417383,-0.53066593,1.6040574,1.5123599,12.226196614214324,2.2675623288040043,jump
23/10/2020, 15:19:48,8.964559,-1.0609937,-2.3016138,-0.53066593,1.6040574,1.5123599,9.315924248728505,2.2675623288040043,jump
23/10/2020, 15:19:48,8.964559,-1.0609937,-2.3016138,-0.7444687,1.6871351,1.3962955,9.315924248728505,2.3130714929848164,jump
23/10/2020, 15:19:48,6.12646,-1.0394385,-1.7771046,-0.7444687,1.6871351,1.3962955,6.463129755651324,2.3130714929848164,jump
23/10/2020, 15:19:48,6.12646,-1.0394385,-1.7771046,-0.90818053,1.7812083,1.3022224,6.463129755651324,2.3860590757180375,jump
23/10/2020, 15:19:48,3.415298,-0.974773,-0.76880133,-0.90818053,1.7812083,1.3022224,3.633937010428687,2.3860590757180375,jump
23/10/2020, 15:19:48,3.415298,-0.974773,-0.76880133,-0.97415394,1.8471818,1.2521315,3.633937010428687,2.434931144917898,jump
23/10/2020, 15:19:48,0.9436377,-1.1256592,0.5388794,-0.97415394,1.8471818,1.2521315,1.564593193461364,2.434931144917898,jump
23/10/2020, 15:19:48,0.9436377,-1.1256592,0.5388794,-0.9179543,1.8545121,1.2386924,1.564593193461364,2.4116828408924924,jump
23/10/2020, 15:19:48,-1.5256275,-1.6214283,1.719624,-0.9179543,1.8545121,1.2386924,2.8131256053726736,2.4116828408924924,jump
23/10/2020, 15:19:48,-1.5256275,-1.6214283,1.719624,-0.76768154,1.7396696,1.3193265,2.8131256053726736,2.314391409098896,jump
23/10/2020, 15:19:48,-3.6164796,-2.0453467,2.4692652,-0.76768154,1.7396696,1.3193265,4.833181040015781,2.314391409098896,jump
23/10/2020, 15:19:48,-3.6164796,-2.0453467,2.4692652,-0.6320695,1.3902547,1.4329475,4.833181040015781,2.0941964339702506,jump
23/10/2020, 15:19:48,-4.3254056,-1.7292042,2.186653,-0.6320695,1.3902547,1.4329475,5.145943215096349,2.0941964339702506,jump
23/10/2020, 15:19:48,-4.3254056,-1.7292042,2.186653,-0.56853956,0.759842,1.3999608,5.145943215096349,1.691297484967213,jump
23/10/2020, 15:19:48,-3.3697927,-0.4981641,0.6227051,-0.56853956,0.759842,1.3999608,3.462864701636891,1.691297484967213,jump
23/10/2020, 15:19:48,-3.3697927,-0.4981641,0.6227051,-0.49767923,0.17707676,1.2252533,3.462864701636891,1.3342737924881072,jump
23/10/2020, 15:19:48,-1.3986914,0.6586304,-0.8310718,-0.49767923,0.17707676,1.2252533,1.7552241934180168,1.3342737924881072,jump
23/10/2020, 15:19:48,-1.3986914,0.6586304,-0.8310718,-0.4231537,-0.026952155,1.0432156,1.7552241934180168,1.126092503716789,jump
23/10/2020, 15:19:48,-0.16765137,1.5399976,-2.1459377,-0.4231537,-0.026952155,1.0432156,2.6466484565816515,1.126092503716789,jump
23/10/2020, 15:19:48,-0.16765137,1.5399976,-2.1459377,-0.3535151,0.15508562,0.93692505,2.6466484565816515,1.0133375668741331,jump
23/10/2020, 15:19:49,16.381935,-4.528982,-0.050295413,-0.5233356,0.31268877,-1.5053133,16.996529272774357,1.6240758767352046,jump
23/10/2020, 15:19:49,15.622713,-5.3169436,-0.3784131,-0.5233356,0.31268877,-1.5053133,16.507036392781497,1.6240758767352046,jump
23/10/2020, 15:19:49,15.622713,-5.3169436,-0.3784131,-0.57098305,0.5081656,-1.1119162,16.507036392781497,1.3493003824400944,jump
23/10/2020, 15:19:49,14.765296,-5.4462748,-0.50774413,-0.57098305,0.5081656,-1.1119162,15.745909890658229,1.3493003824400944,jump
23/10/2020, 15:19:49,14.765296,-5.4462748,-0.50774413,-0.55143535,0.58513457,-0.76494485,15.745909890658229,1.1097765687528545,jump
23/10/2020, 15:19:49,13.876743,-5.3049684,-0.79754156,-0.55143535,0.58513457,-0.76494485,14.877592778531357,1.1097765687528545,jump
23/10/2020, 15:19:49,13.876743,-5.3049684,-0.79754156,-0.56365263,0.50205696,-0.3996476,14.877592778531357,0.8540981669949466,jump
23/10/2020, 15:19:49,13.687537,-4.663103,-0.7232959,-0.56365263,0.50205696,-0.3996476,14.478133925722775,0.8540981669949466,jump
23/10/2020, 15:19:49,13.687537,-4.663103,-0.7232959,-0.58686554,0.30413666,-0.03923724,14.478133925722775,0.6621554486546636,jump
23/10/2020, 15:19:49,14.607224,-4.071533,-0.019160157,-0.58686554,0.30413666,-0.03923724,15.164061338889931,0.6621554486546636,jump
23/10/2020, 15:19:49,14.607224,-4.071533,-0.019160157,-0.6393999,0.039021265,0.2796343,15.164061338889931,0.6989636710786525,jump
23/10/2020, 15:19:49,16.877703,-4.148174,0.58677983,-0.6393999,0.039021265,0.2796343,17.3898966469374,0.6989636710786525,jump
23/10/2020, 15:19:49,16.877703,-4.148174,0.58677983,-0.7041516,-0.23586799,0.5508584,17.3898966469374,0.924612403870581,jump
23/10/2020, 15:19:49,20.781586,-4.524192,2.0261867,-0.7041516,-0.23586799,0.5508584,21.3646448237703,0.924612403870581,jump
23/10/2020, 15:19:49,20.781586,-4.524192,2.0261867,-0.60030454,-0.31039354,0.7463352,21.3646448237703,1.00683957996393,jump
23/10/2020, 15:19:49,25.17884,-5.2115626,3.803291,-0.60030454,-0.31039354,0.7463352,25.99229547335594,1.00683957996393,jump
23/10/2020, 15:19:49,25.17884,-5.2115626,3.803291,-0.23867248,-0.19677262,0.9014949,25.99229547335594,0.9530881952686393,jump
23/10/2020, 15:19:49,27.312803,-6.320457,4.25595,-0.23867248,-0.19677262,0.9014949,28.35578440140224,0.9530881952686393,jump
23/10/2020, 15:19:49,27.312803,-6.320457,4.25595,0.26468033,-0.06482579,1.1690538,28.35578440140224,1.200393614024357,jump
23/10/2020, 15:19:49,25.406368,-7.1084185,3.391348,0.26468033,-0.06482579,1.1690538,26.599142871277827,1.200393614024357,jump
23/10/2020, 15:19:49,25.406368,-7.1084185,3.391348,0.64341664,0.039021265,1.5086948,26.599142871277827,1.6406302260479833,jump
23/10/2020, 15:19:49,23.044878,-6.2989016,1.8633252,0.64341664,0.039021265,1.5086948,23.962774131773244,1.6406302260479833,jump
23/10/2020, 15:19:49,23.044878,-6.2989016,1.8633252,0.7973546,0.06956452,1.6992846,23.962774131773244,1.8783454264567918,jump
23/10/2020, 15:19:49,22.812563,-4.88584,0.7041358,0.7973546,0.06956452,1.6992846,23.340528423899364,1.8783454264567918,jump
23/10/2020, 15:19:49,22.812563,-4.88584,0.7041358,0.7045031,0.06956452,1.7567059,23.340528423899364,1.893985062428253,jump
23/10/2020, 15:19:49,25.05909,-3.8583767,0.20597169,0.7045031,0.06956452,1.7567059,25.35522569481764,1.893985062428253,jump
23/10/2020, 15:19:49,25.05909,-3.8583767,0.20597169,0.4088444,0.15264216,1.8092403,25.35522569481764,1.8611297628314147,jump
23/10/2020, 15:19:49,28.03131,-3.417693,0.100590825,0.4088444,0.15264216,1.8092403,28.239069295737917,1.8611297628314147,jump
23/10/2020, 15:19:49,28.03131,-3.417693,0.100590825,-0.013874149,0.25893265,1.8776572,28.239069295737917,1.8954775325392232,jump
23/10/2020, 15:19:49,30.273048,-3.3769777,0.3424878,-0.013874149,0.25893265,1.8776572,30.46274340319414,1.8954775325392232,jump
23/10/2020, 15:19:50,3.3578174,0.90052736,-0.5125342,-0.010208959,0.3542276,0.2551997,3.5140544387363843,0.4367016193950238,jump
23/10/2020, 15:19:50,3.396138,0.99393314,-0.60354495,-0.010208959,0.3542276,0.2551997,3.589696726880168,0.4367016193950238,jump
23/10/2020, 15:19:50,3.396138,0.99393314,-0.60354495,-0.40482777,0.40554026,0.26863873,3.589696726880168,0.6328626977046781,jump
23/10/2020, 15:19:50,3.5015187,1.0442286,-0.8885523,-0.40482777,0.40554026,0.26863873,3.7603951744043402,0.6328626977046781,jump
23/10/2020, 15:19:50,3.5015187,1.0442286,-0.8885523,-0.74202526,0.40065333,0.25886488,3.7603951744043402,0.8821199462035114,jump
23/10/2020, 15:19:50,3.9206471,1.0083033,-1.1591895,-0.74202526,0.40065333,0.25886488,4.210922672576409,0.8821199462035114,jump
23/10/2020, 15:19:50,3.9206471,1.0083033,-1.1591895,-1.014471,0.39332297,0.23320857,4.210922672576409,1.1127626510010484,jump
23/10/2020, 15:19:50,4.512217,0.9053174,-0.89573735,-1.014471,0.39332297,0.23320857,4.688501647770379,1.1127626510010484,jump
23/10/2020, 15:19:50,4.512217,0.9053174,-0.89573735,-1.1769611,0.40798372,0.20388705,4.688501647770379,1.2622432373660704,jump
23/10/2020, 15:19:50,5.1780324,0.7831714,-0.61073,-1.1769611,0.40798372,0.20388705,5.272415775187766,1.2622432373660704,jump
23/10/2020, 15:19:50,5.1780324,0.7831714,-0.61073,-1.2575953,0.41775757,0.15868303,5.272415775187766,1.3346338946589098,jump
23/10/2020, 15:19:50,5.8103175,0.38320315,-0.35685793,-1.2575953,0.41775757,0.15868303,5.833865088679995,1.3346338946589098,jump
23/10/2020, 15:19:50,5.8103175,0.38320315,-0.35685793,-1.2856951,0.41653582,0.10614863,5.833865088679995,1.3556479828024681,jump
23/10/2020, 15:19:50,6.339617,-0.05508545,-0.083825685,-1.2856951,0.41653582,0.10614863,6.3404102400939895,1.3556479828024681,jump
23/10/2020, 15:19:50,6.339617,-0.05508545,-0.083825685,-1.2783647,0.40187508,0.056057703,6.3404102400939895,1.3412167030845823,jump
23/10/2020, 15:19:50,6.957532,-0.5460645,-0.13651612,-1.2783647,0.40187508,0.056057703,6.9802631489958324,1.3412167030845823,jump
23/10/2020, 15:19:50,6.957532,-0.5460645,-0.13651612,-1.2893603,0.34934068,-0.0050287982,6.9802631489958324,1.3358570812906623,jump
23/10/2020, 15:19:50,7.7454934,-0.852627,-0.5987549,-1.2893603,0.34934068,-0.0050287982,7.815251011402038,1.3358570812906623,jump
23/10/2020, 15:19:50,7.7454934,-0.852627,-0.5987549,-1.322347,0.21861558,-0.08321952,7.815251011402038,1.3428774948783089,jump
23/10/2020, 15:19:50,8.863968,-1.1304493,-1.4513819,-1.322347,0.21861558,-0.08321952,9.052864295022546,1.3428774948783089,jump
23/10/2020, 15:19:50,8.863968,-1.1304493,-1.4513819,-1.4029812,0.015808396,-0.16263197,9.052864295022546,1.4124642315319162,jump
23/10/2020, 15:19:50,10.4638405,-1.1280543,-2.1698878,-1.4029812,0.015808396,-0.16263197,10.74583068387631,1.4124642315319162,jump
23/10/2020, 15:19:50,10.4638405,-1.1280543,-2.1698878,-1.4909457,-0.18944225,-0.25059655,10.74583068387631,1.5236817477161877,jump
23/10/2020, 15:19:50,12.542718,-0.9580079,-2.440525,-1.4909457,-0.18944225,-0.25059655,12.81380953463836,1.5236817477161877,jump
23/10/2020, 15:19:50,12.542718,-0.9580079,-2.440525,-1.5324845,-0.33849332,-0.3507784,12.81380953463836,1.6081455317930506,jump
23/10/2020, 15:19:50,14.932947,-1.0226734,-2.3998096,-1.5324845,-0.33849332,-0.3507784,15.159084991434746,1.6081455317930506,jump
23/10/2020, 15:19:50,14.932947,-1.0226734,-2.3998096,-1.4909457,-0.36414966,-0.44973853,15.159084991434746,1.5993088485726281,jump
23/10/2020, 15:19:50,17.078884,-1.3651612,-2.0142114,-1.4909457,-0.36414966,-0.44973853,17.25134764663043,1.5993088485726281,jump
23/10/2020, 15:19:50,17.078884,-1.3651612,-2.0142114,-1.367551,-0.24319836,-0.54136825,17.25134764663043,1.4907785468469925,jump
23/10/2020, 15:19:50,18.254839,-1.9711012,-1.0657837,-1.367551,-0.24319836,-0.54136825,18.391853621451578,1.4907785468469925,jump
23/10/2020, 15:19:51,0.3544629,1.3627661,-2.787803,0.12173788,0.17707676,-0.5144902,3.123238818051176,0.557562949432664,jump
23/10/2020, 15:19:51,0.3903882,1.0825489,-2.320774,0.12173788,0.17707676,-0.5144902,2.590426082620977,0.557562949432664,jump
23/10/2020, 15:19:51,0.3903882,1.0825489,-2.320774,-0.17269905,0.14042486,-0.44851682,2.590426082620977,0.500710932295622,jump
23/10/2020, 15:19:51,0.25147706,0.5604346,-1.954336,-0.17269905,0.14042486,-0.44851682,2.0485987934766845,0.500710932295622,jump
23/10/2020, 15:19:51,0.25147706,0.5604346,-1.954336,-0.3180849,0.08300355,-0.36421743,2.0485987934766845,0.490634208783775,jump
23/10/2020, 15:19:51,-0.100590825,-0.06227051,-1.3699512,-0.3180849,0.08300355,-0.36421743,1.3750500183568042,0.490634208783775,jump
23/10/2020, 15:19:51,-0.100590825,-0.06227051,-1.3699512,-0.2924286,0.0023693652,-0.2567052,1.3750500183568042,0.3891242274830764,jump
23/10/2020, 15:19:51,-0.14130616,-0.6490503,-1.0418335,-0.2924286,0.0023693652,-0.2567052,1.2355771123424666,0.3891242274830764,jump
23/10/2020, 15:19:51,-0.14130616,-0.6490503,-1.0418335,-0.14948618,-0.10636461,-0.1882883,1.2355771123424666,0.26289167620424275,jump
23/10/2020, 15:19:51,-0.09580079,-0.8765772,-0.732876,-0.14948618,-0.10636461,-0.1882883,1.1465917369460834,0.26289167620424275,jump
23/10/2020, 15:19:51,-0.09580079,-0.8765772,-0.732876,0.081420794,-0.18822052,-0.15285812,1.1465917369460834,0.25577707896829155,jump
23/10/2020, 15:19:51,-0.12933107,-0.9364527,-0.364043,0.081420794,-0.18822052,-0.15285812,1.0130140489949817,0.25577707896829155,jump
23/10/2020, 15:19:51,-0.12933107,-0.9364527,-0.364043,0.34042758,-0.23831145,-0.1394191,1.0130140489949817,0.43831606020615116,jump
23/10/2020, 15:19:51,-0.1460962,-1.0681788,-0.14849122,0.34042758,-0.23831145,-0.1394191,1.0883012600098103,0.43831606020615116,jump
23/10/2020, 15:19:51,-0.1460962,-1.0681788,-0.14849122,0.5469,-0.28351548,-0.13819736,1.0883012600098103,0.6313312301012309,jump
23/10/2020, 15:19:51,-0.17483643,-0.9484278,0.08861572,0.5469,-0.28351548,-0.13819736,0.9684708604119513,0.6313312301012309,jump
23/10/2020, 15:19:51,-0.17483643,-0.9484278,0.08861572,0.7020597,-0.33971506,-0.15041466,0.9684708604119513,0.7943039075175511,jump
23/10/2020, 15:19:51,-0.11256592,-0.81909674,0.24668702,0.7020597,-0.33971506,-0.15041466,0.8628122916611728,0.7943039075175511,jump
23/10/2020, 15:19:51,-0.11256592,-0.81909674,0.24668702,0.8010198,-0.41668403,-0.18340138,0.8628122916611728,0.9213546262142503,jump
23/10/2020, 15:19:51,0.2203418,-0.8095166,0.22752686,0.8010198,-0.41668403,-0.18340138,0.8692733290816171,0.9213546262142503,jump
23/10/2020, 15:19:51,0.732876,-0.79754156,0.35925296,0.8010198,-0.41668403,-0.18340138,1.1411583861528438,0.9213546262142503,jump
23/10/2020, 15:19:51,0.732876,-0.79754156,0.35925296,0.8388934,-0.49731824,-0.22616193,1.1411583861528438,1.0011077895869835,jump
23/10/2020, 15:19:51,0.732876,-0.79754156,0.35925296,0.8327848,-0.54374397,-0.26403558,1.1411583861528438,1.029030013136797,jump
23/10/2020, 15:19:51,1.2525953,-0.5987549,0.4981641,0.8327848,-0.54374397,-0.26403558,1.4750152090801338,1.029030013136797,jump
23/10/2020, 15:19:51,1.2525953,-0.5987549,0.4981641,0.7704765,-0.5449657,-0.28724843,1.4750152090801338,0.9864752035437981,jump
23/10/2020, 15:19:51,1.705254,-0.4239185,0.43589357,0.7704765,-0.5449657,-0.28724843,1.8104146338640414,0.9864752035437981,jump
23/10/2020, 15:19:51,1.705254,-0.4239185,0.43589357,0.5823301,-0.52663976,-0.32145688,1.8104146338640414,0.8484057495968192,jump
23/10/2020, 15:19:51,2.2704787,-0.19878663,0.43589357,0.5823301,-0.52663976,-0.32145688,2.320472574233794,0.8484057495968192,jump
23/10/2020, 15:19:51,2.2704787,-0.19878663,0.43589357,0.23047185,-0.5303049,-0.36421743,2.320472574233794,0.6833702555752599,jump
23/10/2020, 15:19:51,3.032095,0.244292,0.44786867,0.23047185,-0.5303049,-0.36421743,3.0747137676564957,0.6833702555752599,jump
23/10/2020, 15:19:52,11.764337,-0.5292993,2.3686745,1.3055943,-0.84795475,-1.9292536,12.012093574539568,2.479036742111384,jump
23/10/2020, 15:19:52,11.965518,-0.13172609,1.6693287,1.3055943,-0.84795475,-1.9292536,12.082120301912617,2.479036742111384,jump
23/10/2020, 15:19:52,11.965518,-0.13172609,1.6693287,1.4069979,-0.7526598,-2.0025573,12.082120301912617,2.5605420452935563,jump
23/10/2020, 15:19:52,12.152329,0.45505372,0.9580079,1.4069979,-0.7526598,-2.0025573,12.198523021468716,2.5605420452935563,jump
23/10/2020, 15:19:52,12.152329,0.45505372,0.9580079,1.4534236,-0.66103005,-2.0514266,12.198523021468716,2.5995677036918603,jump
23/10/2020, 15:19:52,12.226575,0.7951465,0.42870852,1.4534236,-0.66103005,-2.0514266,12.259901415789873,2.5995677036918603,jump
23/10/2020, 15:19:52,12.226575,0.7951465,0.42870852,1.3605721,-0.5645134,-2.0575352,12.259901415789873,2.5304708618391505,jump
23/10/2020, 15:19:52,12.17628,1.0130934,-0.09340577,1.3605721,-0.5645134,-2.0575352,12.218710158773561,2.5304708618391505,jump
23/10/2020, 15:19:52,12.17628,1.0130934,-0.09340577,1.1137826,-0.4838792,-1.9891183,12.218710158773561,2.330502655708262,jump
23/10/2020, 15:19:52,12.14275,1.585503,-0.51013917,1.1137826,-0.4838792,-1.9891183,12.256444592578777,2.330502655708262,jump
23/10/2020, 15:19:52,12.14275,1.585503,-0.51013917,0.77902865,-0.4838792,-1.918258,12.256444592578777,2.126202789431882,jump
23/10/2020, 15:19:52,12.27208,2.1076174,-0.2778223,0.77902865,-0.4838792,-1.918258,12.454846209650938,2.126202789431882,jump
23/10/2020, 15:19:52,12.27208,2.1076174,-0.2778223,0.4149531,-0.5339701,-1.8742757,12.454846209650938,1.9925409689854907,jump
23/10/2020, 15:19:52,12.324771,2.1387525,0.4622388,0.4149531,-0.5339701,-1.8742757,12.517503952406123,1.9925409689854907,jump
23/10/2020, 15:19:52,12.324771,2.1387525,0.4622388,0.06309484,-0.5779524,-1.8009719,12.517503952406123,1.8924876694210804,jump
23/10/2020, 15:19:52,12.415782,1.9064356,1.2094849,0.06309484,-0.5779524,-1.8009719,12.619389548779708,1.8924876694210804,jump
23/10/2020, 15:19:52,12.415782,1.9064356,1.2094849,-0.22278999,-0.62437814,-1.7484375,12.619389548779708,1.8698976499067244,jump
23/10/2020, 15:19:52,12.336746,1.2478052,1.5950831,-0.22278999,-0.62437814,-1.7484375,12.501864471215844,1.8698976499067244,jump
23/10/2020, 15:19:52,12.336746,1.2478052,1.5950831,-0.35962373,-0.6536997,-1.7301116,12.501864471215844,1.88412809140727,jump
23/10/2020, 15:19:52,11.852952,0.28979737,1.7315992,-0.35962373,-0.6536997,-1.7301116,11.982273971991239,1.88412809140727,jump
23/10/2020, 15:19:52,11.852952,0.28979737,1.7315992,-0.29609376,-0.6683604,-1.7166725,11.982273971991239,1.8658354067110552,jump
23/10/2020, 15:19:52,11.261382,-0.37601808,1.7339942,-0.29609376,-0.6683604,-1.7166725,11.40030054458524,1.8658354067110552,jump
23/10/2020, 15:19:52,11.261382,-0.37601808,1.7339942,-0.08962141,-0.647591,-1.692238,11.40030054458524,1.814132148346919,jump
23/10/2020, 15:19:52,10.957214,-0.7376661,1.707649,-0.08962141,-0.647591,-1.692238,11.113989506244723,1.814132148346919,jump
23/10/2020, 15:19:52,10.957214,-0.7376661,1.707649,0.17793746,-0.5852828,-1.6824641,11.113989506244723,1.7902243502215542,jump
23/10/2020, 15:19:52,10.933265,-0.977168,1.4178516,0.17793746,-0.5852828,-1.6824641,11.068036778083556,1.7902243502215542,jump
23/10/2020, 15:19:52,10.933265,-0.977168,1.4178516,0.42594868,-0.50953555,-1.6787989,11.068036778083556,1.8053876450300053,jump
23/10/2020, 15:19:52,11.074571,-1.5376027,0.98195803,0.42594868,-0.50953555,-1.6787989,11.2238397501091,1.8053876450300053,jump
23/10/2020, 15:19:52,11.074571,-1.5376027,0.98195803,0.55178684,-0.45211422,-1.655586,11.2238397501091,1.8027315402419326,jump
23/10/2020, 15:19:52,11.263778,-2.071692,0.39278322,0.55178684,-0.45211422,-1.655586,11.459444802325791,1.8027315402419326,jump
23/10/2020, 15:19:53,3.7050953,3.1111305,-1.096919,-0.41826677,-1.3977332,-3.144875,4.960856288708458,3.46682048881999,jump
23/10/2020, 15:19:53,3.4655933,2.8883936,-1.3220508,-0.41826677,-1.3977332,-3.144875,4.701167232817396,3.46682048881999,jump
23/10/2020, 15:19:53,3.4655933,2.8883936,-1.3220508,-0.4927923,-1.5064672,-3.370895,4.701167232817396,3.72494566947081,jump
23/10/2020, 15:19:53,3.532654,3.0033545,-1.3100758,-0.4927923,-1.5064672,-3.370895,4.818306928991489,3.72494566947081,jump
23/10/2020, 15:19:53,3.532654,3.0033545,-1.3100758,-0.53921807,-1.5736623,-3.56515,4.818306928991489,3.9341407934549557,jump
23/10/2020, 15:19:53,3.8200562,2.9698243,-0.98435307,-0.53921807,-1.5736623,-3.56515,4.937776502195329,3.9341407934549557,jump
23/10/2020, 15:19:53,3.8200562,2.9698243,-0.98435307,-0.6393999,-1.598097,-3.7203097,4.937776502195329,4.0992012208426285,jump
23/10/2020, 15:19:53,4.3014555,2.5075855,-0.49576905,-0.6393999,-1.598097,-3.7203097,5.003627836022306,4.0992012208426285,jump
23/10/2020, 15:19:53,4.3014555,2.5075855,-0.49576905,-0.78845096,-1.624975,-3.8803563,5.003627836022306,4.2801125753137175,jump
23/10/2020, 15:19:53,4.5888577,2.0980372,0.5221143,-0.78845096,-1.624975,-3.8803563,5.0726697240790966,4.2801125753137175,jump
23/10/2020, 15:19:53,4.5888577,2.0980372,0.5221143,-0.80555516,-1.6115359,-4.0306296,5.0726697240790966,4.414967990351268,jump
23/10/2020, 15:19:53,4.6271777,1.6214283,2.0118165,-0.80555516,-1.6115359,-4.0306296,5.299736674512066,4.414967990351268,jump
23/10/2020, 15:19:53,4.6271777,1.6214283,2.0118165,-0.63329124,-1.624975,-4.20045,5.299736674512066,4.548118420716596,jump
23/10/2020, 15:19:53,4.981641,0.7424561,3.5566041,-0.63329124,-1.624975,-4.20045,6.165826733187956,4.548118420716596,jump
23/10/2020, 15:19:53,4.981641,0.7424561,3.5566041,-0.44881004,-1.7666956,-4.5217648,6.165826733187956,4.8753461788425865,jump
23/10/2020, 15:19:53,5.9564137,-0.9627979,4.385281,-0.44881004,-1.7666956,-4.5217648,7.458990191247316,4.8753461788425865,jump
23/10/2020, 15:19:53,5.9564137,-0.9627979,4.385281,-0.42071027,-2.0073767,-4.9493704,7.458990191247316,5.357501789676942,jump
23/10/2020, 15:19:53,7.206614,-2.7590625,4.905,-0.42071027,-2.0073767,-4.9493704,9.143672057332052,5.357501789676942,jump
23/10/2020, 15:19:53,7.206614,-2.7590625,4.905,-0.32785875,-2.1564276,-5.291455,9.143672057332052,5.723387568706437,jump
23/10/2020, 15:19:53,9.259146,-5.012776,6.183941,-0.32785875,-2.1564276,-5.291455,12.210684947053618,5.723387568706437,jump
23/10/2020, 15:19:53,9.259146,-5.012776,6.183941,-0.21668133,-2.1539843,-5.5871134,12.210684947053618,5.991864077675287,jump
23/10/2020, 15:19:53,12.248131,-7.453301,6.7324004,-0.21668133,-2.1539843,-5.5871134,15.839621792427598,5.991864077675287,jump
23/10/2020, 15:19:53,12.248131,-7.453301,6.7324004,-0.38161486,-2.0562458,-5.8803287,15.839621792427598,6.241157088535771,jump
23/10/2020, 15:19:53,15.129339,-8.674761,5.822293,-0.38161486,-2.0562458,-5.8803287,18.38606738645517,6.241157088535771,jump
23/10/2020, 15:19:53,15.129339,-8.674761,5.822293,-0.6430651,-1.8485516,-6.16377,18.38606738645517,6.467050248189097,jump
23/10/2020, 15:19:53,17.70159,-8.262817,5.015171,-0.6430651,-1.8485516,-6.16377,20.168598503256014,6.467050248189097,jump
23/10/2020, 15:19:53,17.70159,-8.262817,5.015171,-0.7627946,-1.5993186,-6.6475754,20.168598503256014,6.879675435241125,jump
23/10/2020, 15:19:53,19.641556,-8.370594,4.9505057,-0.7627946,-1.5993186,-6.6475754,21.917232148305775,6.879675435241125,jump
23/10/2020, 15:19:53,19.641556,-8.370594,4.9505057,-0.9814843,-1.6237533,-7.376948,21.917232148305775,7.617036579254628,jump
23/10/2020, 15:19:53,21.689299,-10.322535,4.2032595,-0.9814843,-1.6237533,-7.376948,24.38540106238196,7.617036579254628,jump
23/10/2020, 15:19:54,8.006551,-1.2981006,0.86939216,0.8755453,-0.5474092,-2.764917,8.157558666687935,2.9514406424047146,jump
23/10/2020, 15:19:54,7.7478886,-1.9974464,1.101709,0.8755453,-0.5474092,-2.764917,8.076715430634144,2.9514406424047146,jump
23/10/2020, 15:19:54,7.7478886,-1.9974464,1.101709,1.0294833,-0.665917,-2.8431077,8.076715430634144,3.0962142564480475,jump
23/10/2020, 15:19:54,7.6233473,-2.6464968,1.5184424,1.0294833,-0.665917,-2.8431077,8.21127494700839,3.0962142564480475,jump
23/10/2020, 15:19:54,7.6233473,-2.6464968,1.5184424,1.202969,-0.7489946,-2.8968637,8.21127494700839,3.224894803132018,jump
23/10/2020, 15:19:54,7.4054008,-3.2141163,2.0237916,1.202969,-0.7489946,-2.8968637,8.322633980387636,3.224894803132018,jump
23/10/2020, 15:19:54,7.4054008,-3.2141163,2.0237916,1.4167718,-0.8027507,-2.9066377,8.322633980387636,3.3316952862713785,jump
23/10/2020, 15:19:54,7.082073,-3.6548,2.440525,1.4167718,-0.8027507,-2.9066377,8.334835697689694,3.3316952862713785,jump
23/10/2020, 15:19:54,7.082073,-3.6548,2.440525,1.6623394,-0.82840705,-2.885868,8.334835697689694,3.431889452550276,jump
23/10/2020, 15:19:54,6.593489,-3.9805226,2.5099807,1.6623394,-0.82840705,-2.885868,8.100534727489128,3.431889452550276,jump
23/10/2020, 15:19:54,6.593489,-3.9805226,2.5099807,1.9250114,-0.81130284,-2.8443294,8.100534727489128,3.5290353735226425,jump
23/10/2020, 15:19:54,6.0665846,-4.0859036,2.6656568,1.9250114,-0.81130284,-2.8443294,7.784843180648911,3.5290353735226425,jump
23/10/2020, 15:19:54,6.0665846,-4.0859036,2.6656568,2.188905,-0.7538815,-2.782021,7.784843180648911,3.619293237349573,jump
23/10/2020, 15:19:54,5.352869,-4.2751102,2.435735,2.188905,-0.7538815,-2.782021,7.270665679708506,3.619293237349573,jump
23/10/2020, 15:19:54,5.352869,-4.2751102,2.435735,2.3636124,-0.679356,-2.7001653,7.270665679708506,3.6522706200087027,jump
23/10/2020, 15:19:54,4.624783,-4.375701,2.1315675,2.3636124,-0.679356,-2.7001653,6.7140864517815055,3.6522706200087027,jump
23/10/2020, 15:19:54,4.624783,-4.375701,2.1315675,2.4222555,-0.62071294,-2.6183093,6.7140864517815055,3.620517878951324,jump
23/10/2020, 15:19:54,3.9493873,-4.1625443,1.8465601,2.4222555,-0.62071294,-2.6183093,6.027787243746707,3.620517878951324,jump
23/10/2020, 15:19:54,3.9493873,-4.1625443,1.8465601,2.3856034,-0.61216086,-2.5462272,6.027787243746707,3.5424733837613354,jump
23/10/2020, 15:19:54,3.4727786,-3.7170706,1.8106349,2.3856034,-0.61216086,-2.5462272,5.399555831407516,3.5424733837613354,jump
23/10/2020, 15:19:54,3.4727786,-3.7170706,1.8106349,2.2536566,-0.65858656,-2.4912493,5.399555831407516,3.423306535326297,jump
23/10/2020, 15:19:54,3.2236965,-3.3051271,1.8633252,2.2536566,-0.65858656,-2.4912493,4.978761423573828,3.423306535326297,jump
23/10/2020, 15:19:54,3.2236965,-3.3051271,1.8633252,2.0325236,-0.7551033,-2.4460454,4.978761423573828,3.268710967046803,jump
23/10/2020, 15:19:54,3.3051271,-3.1446607,2.1315675,2.0325236,-0.7551033,-2.4460454,5.035507555374612,3.268710967046803,jump
23/10/2020, 15:19:54,3.3051271,-3.1446607,2.1315675,1.7600778,-0.8711676,-2.388624,5.035507555374612,3.092301951290705,jump
23/10/2020, 15:19:54,3.8703518,-3.417693,2.579436,1.7600778,-0.8711676,-2.388624,5.771805450012907,3.092301951290705,jump
23/10/2020, 15:19:54,3.8703518,-3.417693,2.579436,1.5438317,-0.9762364,-2.298216,5.771805450012907,2.9356857996272945,jump
23/10/2020, 15:19:54,5.0031962,-3.906277,3.151846,1.5438317,-0.9762364,-2.298216,7.086967259124092,2.9356857996272945,jump
23/10/2020, 15:19:54,5.0031962,-3.906277,3.151846,1.4241021,-1.0617574,-2.1955907,7.086967259124092,2.8241838194422715,jump
23/10/2020, 15:19:54,6.559959,-4.756509,3.5829494,1.4241021,-1.0617574,-2.1955907,8.859738362500432,2.8241838194422715,jump
23/10/2020, 15:19:55,7.790999,-1.0106983,2.9458742,2.5358763,0.37377527,-1.7203377,8.39043207426036,3.0870598312509405,jump
23/10/2020, 15:19:55,7.790999,-1.0106983,2.9458742,0.95007086,0.10743815,-1.1424594,8.39043207426036,1.489762079759638,jump
23/10/2020, 15:19:55,6.0689797,-1.7890797,3.6811452,0.95007086,0.10743815,-1.1424594,7.320119606720372,1.489762079759638,jump
23/10/2020, 15:19:55,6.0689797,-1.7890797,3.6811452,-0.3180849,-0.08803865,-0.62811106,7.320119606720372,0.7095437368662303,jump
23/10/2020, 15:19:55,4.984036,-3.410508,4.021238,-0.3180849,-0.08803865,-0.62811106,7.255517393030551,0.7095437368662303,jump
23/10/2020, 15:19:55,4.984036,-3.410508,4.021238,-1.0841097,-0.1466817,-0.15530159,7.255517393030551,1.1049560471085969,jump
23/10/2020, 15:19:55,4.502637,-4.8906302,4.471502,-1.0841097,-0.1466817,-0.15530159,8.011637281168968,1.1049560471085969,jump
23/10/2020, 15:19:55,4.502637,-4.8906302,4.471502,-1.2624822,-0.10514288,0.16845687,8.011637281168968,1.2780038970339658,jump
23/10/2020, 15:19:55,4.112249,-6.0378447,4.3541455,-1.2624822,-0.10514288,0.16845687,8.50439547396696,1.2780038970339658,jump
23/10/2020, 15:19:55,4.112249,-6.0378447,4.3541455,-1.014471,-0.002517555,0.4066942,8.50439547396696,1.092958385711603,jump
23/10/2020, 15:19:55,3.4536183,-6.5312185,3.9398074,-1.014471,-0.002517555,0.4066942,8.372955106597502,1.092958385711603,jump
23/10/2020, 15:19:55,3.4536183,-6.5312185,3.9398074,-0.5233356,0.13187274,0.63515776,8.372955106597502,0.8334842114442874,jump
23/10/2020, 15:19:55,3.0153298,-6.0186844,3.2524366,-0.5233356,0.13187274,0.63515776,7.476303890756777,0.8334842114442874,jump
23/10/2020, 15:19:55,3.0153298,-6.0186844,3.2524366,0.09485982,0.25893265,0.7952044,7.476303890756777,0.8416617745913925,jump
23/10/2020, 15:19:55,2.7255323,-4.9481106,2.3614893,0.09485982,0.25893265,0.7952044,6.122822575672506,0.8416617745913925,jump
23/10/2020, 15:19:55,2.7255323,-4.9481106,2.3614893,0.65319043,0.35300586,0.83918667,6.122822575672506,1.1204932583555025,jump
23/10/2020, 15:19:55,2.4788454,-3.9637575,1.6645386,0.65319043,0.35300586,0.83918667,4.9625333016024475,1.1204932583555025,jump
23/10/2020, 15:19:55,2.4788454,-3.9637575,1.6645386,0.99771833,0.39943162,0.8404084,4.9625333016024475,1.3642850668212654,jump
23/10/2020, 15:19:55,2.2585034,-3.2500417,1.1999048,0.99771833,0.39943162,0.8404084,4.135623351536812,1.3642850668212654,jump
23/10/2020, 15:19:55,2.2585034,-3.2500417,1.1999048,1.0979002,0.39210123,0.8599561,4.135623351536812,1.4486726982660116,jump
23/10/2020, 15:19:55,2.3806496,-2.6584718,0.58677983,1.0979002,0.39210123,0.8599561,3.616528081422255,1.4486726982660116,jump
23/10/2020, 15:19:55,2.3806496,-2.6584718,0.58677983,1.0062704,0.3383451,0.878282,3.616528081422255,1.377837740480653,jump
23/10/2020, 15:19:55,2.7470875,-2.1698878,0.019160157,1.0062704,0.3383451,0.878282,3.5007527347216985,1.377837740480653,jump
23/10/2020, 15:19:55,2.7470875,-2.1698878,0.019160157,0.8022415,0.29191938,0.846517,3.5007527347216985,1.2022476582400845,jump
23/10/2020, 15:19:55,3.4919386,-1.6741188,-0.4239185,0.8022415,0.29191938,0.846517,3.8956405916327594,1.2022476582400845,jump
23/10/2020, 15:19:55,3.4919386,-1.6741188,-0.4239185,0.5200219,0.24915884,0.81475204,3.8956405916327594,0.9981602139304723,jump
23/10/2020, 15:19:55,4.25595,-1.21188,-0.97956306,0.5200219,0.24915884,0.81475204,4.532251871152751,0.9981602139304723,jump
23/10/2020, 15:19:55,4.25595,-1.21188,-0.97956306,0.14006384,0.21983731,0.82208246,4.532251871152751,0.8624186288339541,jump
23/10/2020, 15:19:55,5.199588,-0.60354495,-1.3675562,0.14006384,0.21983731,0.82208246,5.410193159665862,0.8624186288339541,jump
23/10/2020, 15:19:55,5.199588,-0.60354495,-1.3675562,-0.31930667,0.19051579,0.80619997,5.410193159665862,0.8878127074959072,jump
23/10/2020, 15:19:56,0.18681154,6.806646,-0.79035646,0.014225641,-0.74288595,-1.0777078,6.854924498643923,1.309020982092485,jump
23/10/2020, 15:19:56,0.18681154,6.806646,-0.79035646,0.0777556,-0.9640191,-1.5175306,6.854924498643923,1.7995215471395851,jump
23/10/2020, 15:19:56,0.9508228,6.3156667,-0.16525635,0.0777556,-0.9640191,-1.5175306,6.388976378073496,1.7995215471395851,jump
23/10/2020, 15:19:56,0.9508228,6.3156667,-0.16525635,0.17182882,-1.1277308,-1.8901582,6.388976378073496,2.207713735441858,jump
23/10/2020, 15:19:56,1.5136524,5.9252787,0.62031007,0.17182882,-1.1277308,-1.8901582,6.146938713151181,2.207713735441858,jump
23/10/2020, 15:19:56,1.5136524,5.9252787,0.62031007,0.28789318,-1.2486821,-2.184595,6.146938713151181,2.532695275172806,jump
23/10/2020, 15:19:56,1.9591261,5.5636306,1.7459693,0.28789318,-1.2486821,-2.184595,6.151468861617729,2.532695275172806,jump
23/10/2020, 15:19:56,1.9591261,5.5636306,1.7459693,0.41617483,-1.3256512,-2.4130588,6.151468861617729,2.784493684354319,jump
23/10/2020, 15:19:56,2.315984,5.0534916,2.6345215,0.41617483,-1.3256512,-2.4130588,6.151606510820195,2.784493684354319,jump
23/10/2020, 15:19:56,2.315984,5.0534916,2.6345215,0.43205732,-1.3635248,-2.6366353,6.151606510820195,2.9996198288733935,jump
23/10/2020, 15:19:56,2.4668703,4.617598,2.684817,0.43205732,-1.3635248,-2.6366353,5.883528164319215,2.9996198288733935,jump
23/10/2020, 15:19:56,2.4668703,4.617598,2.684817,0.24513261,-1.3952898,-2.8980856,5.883528164319215,3.2258058953280195,jump
23/10/2020, 15:19:56,2.43813,4.2272096,2.4788454,0.24513261,-1.3952898,-2.8980856,5.473431506725795,3.2258058953280195,jump
23/10/2020, 15:19:56,2.43813,4.2272096,2.4788454,-0.08839968,-1.4429373,-3.1888573,5.473431506725795,3.5012416958482797,jump
23/10/2020, 15:19:56,3.0153298,2.924319,2.4261549,-0.08839968,-1.4429373,-3.1888573,4.850781708003807,3.5012416958482797,jump
23/10/2020, 15:19:56,3.0153298,2.924319,2.4261549,-0.63573474,-1.6005404,-3.5492675,4.850781708003807,3.9450206880277423,jump
23/10/2020, 15:19:56,4.528982,0.2802173,1.9423609,-0.63573474,-1.6005404,-3.5492675,4.935885628531482,3.9450206880277423,jump
23/10/2020, 15:19:56,4.528982,0.2802173,1.9423609,-1.5618061,-1.964616,-4.0220776,4.935885628531482,4.7408925254565535,jump
23/10/2020, 15:19:56,6.8497562,-3.1853762,0.07664063,-1.5618061,-1.964616,-4.0220776,7.554578457603059,4.7408925254565535,jump
23/10/2020, 15:19:56,6.8497562,-3.1853762,0.07664063,-2.8311837,-2.6182415,-4.529095,7.554578457603059,5.9484025482342,jump
23/10/2020, 15:19:56,10.30577,-5.654641,-1.7699195,-2.8311837,-2.6182415,-4.529095,11.887660631552306,5.9484025482342,jump
23/10/2020, 15:19:56,10.30577,-5.654641,-1.7699195,-3.675399,-3.1105988,-5.022674,11.887660631552306,6.957847235232356,jump
23/10/2020, 15:19:56,15.797549,-4.8906302,-1.9711012,-3.675399,-3.1105988,-5.022674,16.65431074022942,6.957847235232356,jump
23/10/2020, 15:19:56,15.797549,-4.8906302,-1.9711012,-3.3027716,-2.5559335,-5.6701913,16.65431074022942,7.042170489697058,jump
23/10/2020, 15:19:56,24.884254,-3.5134938,-0.76880133,-3.3027716,-2.5559335,-5.6701913,25.142828277919985,7.042170489697058,jump
23/10/2020, 15:19:56,24.884254,-3.5134938,-0.76880133,-2.4096868,-0.8345157,-6.6915574,25.142828277919985,7.1610018479917645,jump
23/10/2020, 15:19:56,33.31951,-6.1719656,-0.79993653,-2.4096868,-0.8345157,-6.6915574,33.89576520233863,7.1610018479917645,jump
23/10/2020, 15:19:56,33.31951,-6.1719656,-0.79993653,-2.200771,0.43241832,-7.6286244,33.89576520233863,7.951496075638989,jump
23/10/2020, 15:19:56,33.34107,-13.589341,-0.10538086,-2.200771,0.43241832,-7.6286244,36.004279351592814,7.951496075638989,jump
23/10/2020, 15:19:56,33.34107,-13.589341,-0.10538086,-2.7700973,0.3139105,-7.833875,36.004279351592814,8.315141546699914,jump
23/10/2020, 15:19:57,20.02476,-11.177557,3.5661843,0.81079364,0.6767643,1.0383286,23.208757729830584,1.481054568452598,jump
23/10/2020, 15:19:57,19.454744,-11.61824,2.5914114,0.81079364,0.6767643,1.0383286,22.807586436790288,1.481054568452598,jump
23/10/2020, 15:19:57,19.454744,-11.61824,2.5914114,1.0575831,0.9834186,1.268014,22.807586436790288,1.921835970891301,jump
23/10/2020, 15:19:57,18.281185,-11.373948,1.6262183,1.0575831,0.9834186,1.268014,21.591966372548125,1.921835970891301,jump
23/10/2020, 15:19:57,18.281185,-11.373948,1.6262183,1.1553215,1.1300262,1.5355728,21.591966372548125,2.229284796474154,jump
23/10/2020, 15:19:57,17.790205,-10.832674,0.8382569,1.1553215,1.1300262,1.5355728,20.845644513765308,2.229284796474154,jump
23/10/2020, 15:19:57,17.790205,-10.832674,0.8382569,1.0551397,1.1410218,1.8752137,20.845644513765308,2.435503467457911,jump
23/10/2020, 15:19:57,18.180593,-10.657837,0.45984375,1.0551397,1.1410218,1.8752137,21.07925339370494,2.435503467457911,jump
23/10/2020, 15:19:57,18.180593,-10.657837,0.45984375,0.8828757,1.0029663,2.2637239,21.07925339370494,2.628660591728584,jump
23/10/2020, 15:19:57,19.830763,-11.515254,0.46702883,0.8828757,1.0029663,2.2637239,22.936397860619927,2.628660591728584,jump
23/10/2020, 15:19:57,19.830763,-11.515254,0.46702883,0.79491115,0.831924,2.6180255,22.936397860619927,2.859727092284632,jump
23/10/2020, 15:19:57,22.63533,-12.760665,1.0178833,0.79491115,0.831924,2.6180255,26.00440019292457,2.859727092284632,jump
23/10/2020, 15:19:57,22.63533,-12.760665,1.0178833,0.9574012,0.7659506,2.9576666,26.00440019292457,3.2017322448684107,jump
23/10/2020, 15:19:57,26.321266,-14.135406,1.4585669,0.9574012,0.7659506,2.9576666,29.912307838518597,3.2017322448684107,jump
23/10/2020, 15:19:57,26.321266,-14.135406,1.4585669,1.2310687,0.8294806,3.2850902,29.912307838518597,3.6049113637505825,jump
23/10/2020, 15:19:57,31.247822,-15.299385,1.0466236,1.2310687,0.8294806,3.2850902,34.807944096350106,3.6049113637505825,jump
23/10/2020, 15:19:57,31.247822,-15.299385,1.0466236,1.5145102,0.999301,3.6174006,34.807944096350106,4.04696564912535,jump
23/10/2020, 15:19:57,35.90374,-15.364051,0.026345216,1.5145102,0.999301,3.6174006,39.052954996537714,4.04696564912535,jump
23/10/2020, 15:19:57,35.90374,-15.364051,0.026345216,1.76863,1.2118821,4.0743275,39.052954996537714,4.604004209160386,jump
23/10/2020, 15:19:57,37.8461,-14.3677225,-0.91010743,1.76863,1.2118821,4.0743275,40.49181423232106,4.604004209160386,jump
23/10/2020, 15:19:57,37.8461,-14.3677225,-0.91010743,1.9030203,1.3010684,4.705962,40.49181423232106,5.240261941656566,jump
23/10/2020, 15:19:57,37.005447,-13.1366825,-2.320774,1.9030203,1.3010684,4.705962,39.3365168267951,5.240261941656566,jump
23/10/2020, 15:19:57,37.005447,-13.1366825,-2.320774,1.7906212,1.2949598,5.439,39.3365168267951,5.8707722997717555,jump
23/10/2020, 15:19:57,36.011517,-12.0253935,-3.3889527,1.7906212,1.2949598,5.439,38.11724563580953,5.8707722997717555,jump
23/10/2020, 15:19:57,36.011517,-12.0253935,-3.3889527,1.3361375,1.2546427,6.044978,38.11724563580953,6.316735914190194,jump
23/10/2020, 15:19:57,36.418667,-11.314073,-4.2511597,1.3361375,1.2546427,6.044978,38.371863284141654,6.316735914190194,jump
23/10/2020, 15:19:57,36.418667,-11.314073,-4.2511597,0.741155,1.126361,6.484801,38.371863284141654,6.623491641438235,jump
23/10/2020, 15:19:57,37.132385,-11.163186,-4.7804594,0.741155,1.126361,6.484801,39.0676790974959,6.623491641438235,jump
23/10/2020, 15:19:57,37.132385,-11.163186,-4.7804594,0.22191975,0.9528753,6.8525414,39.0676790974959,6.922033228753959,jump
23/10/2020, 15:19:57,37.122803,-11.0051155,-5.000801,0.22191975,0.9528753,6.8525414,39.04129943698699,6.922033228753959,jump
23/10/2020, 15:19:58,13.321099,-7.6377177,3.5637891,-1.946651,0.4641833,-1.0887033,15.763470780558295,2.2781990699728425,jump
23/10/2020, 15:19:58,13.263618,-7.9562554,3.6332448,-1.946651,0.4641833,-1.0887033,15.887921289264353,2.2781990699728425,jump
23/10/2020, 15:19:58,13.263618,-7.9562554,3.6332448,-1.263704,0.69020337,-1.2609673,15.887921289264353,1.9139923618362702,jump
23/10/2020, 15:19:58,12.597803,-7.709568,3.0153298,-1.263704,0.69020337,-1.2609673,15.074292570070508,1.9139923618362702,jump
23/10/2020, 15:19:58,12.597803,-7.709568,3.0153298,-0.72003406,0.86979765,-1.3159451,15.074292570070508,1.7339863414064898,jump
23/10/2020, 15:19:58,11.539205,-7.1395535,2.1052222,-0.72003406,0.86979765,-1.3159451,13.731657882750616,1.7339863414064898,jump
23/10/2020, 15:19:58,11.539205,-7.1395535,2.1052222,-0.44392312,0.9186669,-1.230424,13.731657882750616,1.5984242048402175,jump
23/10/2020, 15:19:58,10.729688,-6.2581863,1.22625,-0.44392312,0.9186669,-1.230424,12.481778054514685,1.5984242048402175,jump
23/10/2020, 15:19:58,10.729688,-6.2581863,1.22625,-0.46469253,0.84047616,-1.004404,12.481778054514685,1.389664207702602,jump
23/10/2020, 15:19:58,10.389595,-5.158872,-0.06466553,-0.46469253,0.84047616,-1.004404,11.600078800723436,1.389664207702602,jump
23/10/2020, 15:19:58,10.389595,-5.158872,-0.06466553,-0.77012503,0.75251156,-0.6549891,11.600078800723436,1.260308281775408,jump
23/10/2020, 15:19:58,10.253079,-3.6212697,-0.8382569,-0.77012503,0.75251156,-0.6549891,10.90604907202778,1.260308281775408,jump
23/10/2020, 15:19:58,10.253079,-3.6212697,-0.8382569,-1.0486795,0.7500681,-0.28236154,10.90604907202778,1.3198707767941993,jump
23/10/2020, 15:19:58,9.788445,-2.1650977,-1.104104,-1.0486795,0.7500681,-0.28236154,10.08565112508423,1.3198707767941993,jump
23/10/2020, 15:19:58,9.788445,-2.1650977,-1.104104,-1.0767792,0.8111546,0.0927096,10.08565112508423,1.3513032253916184,jump
23/10/2020, 15:19:58,8.868757,-1.5136524,-1.1304493,-1.0767792,0.8111546,0.0927096,9.06774031675839,1.3513032253916184,jump
23/10/2020, 15:19:58,8.868757,-1.5136524,-1.1304493,-0.89718497,0.8160415,0.44456783,9.06774031675839,1.2917063130026922,jump
23/10/2020, 15:19:58,7.6017923,-1.4250367,-1.1663746,-0.89718497,0.8160415,0.44456783,7.821662600977335,1.2917063130026922,jump
23/10/2020, 15:19:58,7.6017923,-1.4250367,-1.1663746,-0.72614276,0.6950903,0.896608,7.821662600977335,1.34697428603969,jump
23/10/2020, 15:19:58,6.3803325,-1.5184424,-1.3915064,-0.72614276,0.6950903,0.896608,6.7045208538934284,1.34697428603969,jump
23/10/2020, 15:19:58,6.3803325,-1.5184424,-1.3915064,-0.7139254,0.38110566,1.5355728,6.7045208538934284,1.7357749726788938,jump
