DATE,TIME,ax,ay,az,gx,gy,gz,ma,mg,label
23/10/2020, 16:00:32,-1.8800904,-1.6262183,6.991062,0.96844965,-0.23358493,-1.8868024,7.419856868720608,2.1336541600496868,fall
23/10/2020, 16:00:32,-2.3686745,-0.7831714,7.5395217,0.96844965,-0.23358493,-1.8868024,7.941559280696005,2.1336541600496868,fall
23/10/2020, 16:00:32,-2.3686745,-0.7831714,7.5395217,0.8572722,-0.22381109,-1.6815518,7.941559280696005,1.90069028134391,fall
23/10/2020, 16:00:32,-2.3878345,-0.086220704,7.7383084,0.8572722,-0.22381109,-1.6815518,8.098802701412515,1.90069028134391,fall
23/10/2020, 16:00:32,-2.3878345,-0.086220704,7.7383084,0.76197726,-0.23847185,-1.4946271,8.098802701412515,1.6945171534851509,fall
23/10/2020, 16:00:32,-2.4692652,-0.19160157,8.023315,0.76197726,-0.23847185,-1.4946271,8.3968787288417,1.6945171534851509,fall
23/10/2020, 16:00:32,-2.4692652,-0.19160157,8.023315,0.7008908,-0.23602839,-1.3211414,8.3968787288417,1.5140580516217108,fall
23/10/2020, 16:00:32,-2.2656887,-0.8430469,7.810159,0.7008908,-0.23602839,-1.3211414,8.175736052781813,1.5140580516217108,fall
23/10/2020, 16:00:32,-2.2656887,-0.8430469,7.810159,0.6898952,-0.18471572,-1.1745338,8.175736052781813,1.3746290596423223,fall
23/10/2020, 16:00:32,-1.8705103,-1.3148658,7.5203614,0.6898952,-0.18471572,-1.1745338,7.8602491700646535,1.3746290596423223,fall
23/10/2020, 16:00:32,-1.8705103,-1.3148658,7.5203614,0.68623,-0.10530327,-1.0511391,7.8602491700646535,1.2597197462817313,fall
23/10/2020, 16:00:32,-1.590293,-1.3004956,7.2425394,0.68623,-0.10530327,-1.0511391,7.528259951584448,1.2597197462817313,fall
23/10/2020, 16:00:32,-1.590293,-1.3004956,7.2425394,0.7754163,-0.013673522,-0.9240792,7.528259951584448,1.2063912120933526,fall
23/10/2020, 16:00:32,-2.2656887,-1.0083033,6.581514,0.7754163,-0.013673522,-0.9240792,7.033231517767762,1.2063912120933526,fall
23/10/2020, 16:00:32,-2.2656887,-1.0083033,6.581514,0.74609476,0.103612565,-0.7957975,7.033231517767762,1.0957584875483914,fall
23/10/2020, 16:00:32,-3.7410207,-1.1567944,5.621111,0.74609476,0.103612565,-0.7957975,6.850569100909426,1.0957584875483914,fall
23/10/2020, 16:00:32,-3.7410207,-1.1567944,5.621111,0.48953146,-0.019782173,-0.6210901,6.850569100909426,0.7910659340476841,fall
23/10/2020, 16:00:32,-0.1939966,0.13891114,6.1312504,0.48953146,-0.019782173,-0.6210901,6.135891314563909,0.7910659340476841,fall
23/10/2020, 16:00:32,-0.1939966,0.13891114,6.1312504,0.5200747,0.18791194,-0.5160213,6.135891314563909,0.7563508521919261,fall
23/10/2020, 16:00:32,-6.0210795,-1.2286451,2.4740553,0.5200747,0.18791194,-0.5160213,6.624493728367968,0.7563508521919261,fall
23/10/2020, 16:00:32,-6.0210795,-1.2286451,2.4740553,0.15477744,0.2807634,-0.44393924,6.624493728367968,0.5476003859925751,fall
23/10/2020, 16:00:32,-8.068821,-2.1315675,4.402046,0.15477744,0.2807634,-0.44393924,9.435436517210496,0.5476003859925751,fall
23/10/2020, 16:00:32,-8.068821,-2.1315675,4.402046,-0.12988566,0.23800287,-0.32298797,9.435436517210496,0.421707102061794,fall
23/10/2020, 16:00:32,-7.6113725,-2.6105714,2.3614893,-0.12988566,0.23800287,-0.32298797,8.385982681727633,0.421707102061794,fall
23/10/2020, 16:00:32,-7.6113725,-2.6105714,2.3614893,-0.49151775,0.1292689,-0.18126729,8.385982681727633,0.5395905672123663,fall
23/10/2020, 16:00:32,-3.1997461,-2.2872438,1.3651612,-0.49151775,0.1292689,-0.18126729,4.163354987870298,0.5395905672123663,fall
23/10/2020, 16:00:32,-3.1997461,-2.2872438,1.3651612,-0.20318946,-0.34354064,-0.09330273,4.163354987870298,0.40989209175867014,fall
23/10/2020, 16:00:32,1.5376027,-2.4836354,10.291399,-0.20318946,-0.34354064,-0.09330273,10.697923176787025,0.40989209175867014,fall
23/10/2020, 16:00:32,1.5376027,-2.4836354,10.291399,-0.10911626,-0.33254507,-0.10185484,10.697923176787025,0.3645092480557747,fall
23/10/2020, 16:00:32,-3.9182522,-4.5864625,16.240627,-0.10911626,-0.33254507,-0.10185484,17.324731268123546,0.3645092480557747,fall
23/10/2020, 16:00:33,-0.4239185,-7.3455253,15.361656,-0.58925617,0.052299898,-0.022442386,17.032819178437958,0.5919981172650357,fall
23/10/2020, 16:00:33,-6.447393,-7.676038,8.595725,-0.58925617,0.052299898,-0.022442386,13.20518538896623,0.5919981172650357,fall
23/10/2020, 16:00:33,-6.447393,-7.676038,8.595725,-0.2899323,0.19524232,-4.512458E-4,13.20518538896623,0.3495432878994516,fall
23/10/2020, 16:00:33,-4.854705,-7.6257424,4.749324,-0.2899323,0.19524232,-4.512458E-4,10.211571080057839,0.3495432878994516,fall
23/10/2020, 16:00:33,-4.854705,-7.6257424,4.749324,-0.26549768,-0.14684209,0.027648546,10.211571080057839,0.30465728714805096,fall
23/10/2020, 16:00:33,-0.7951465,-7.2736745,9.996812,-0.26549768,-0.14684209,0.027648546,12.388496521121311,0.30465728714805096,fall
23/10/2020, 16:00:33,-0.7951465,-7.2736745,9.996812,-0.3107017,-0.021003902,-0.023664117,12.388496521121311,0.31230866063010576,fall
23/10/2020, 16:00:33,-2.8883936,-8.188572,6.9551373,-0.3107017,-0.021003902,-0.023664117,11.12517246066966,0.31230866063010576,fall
23/10/2020, 16:00:33,-2.8883936,-8.188572,6.9551373,-0.28748885,0.014426269,-0.054207366,11.12517246066966,0.2929102139884711,fall
23/10/2020, 16:00:33,-2.2704787,-8.198153,6.3970976,-0.28748885,0.014426269,-0.054207366,10.643666487236036,0.2929102139884711,fall
23/10/2020, 16:00:33,-2.2704787,-8.198153,6.3970976,-0.21785022,-0.07964694,-0.055429097,10.643666487236036,0.2384842536221713,fall
23/10/2020, 16:00:33,-1.7531544,-7.9466753,5.8917484,-0.21785022,-0.07964694,-0.055429097,10.046685931977644,0.2384842536221713,fall
23/10/2020, 16:00:33,-1.7531544,-7.9466753,5.8917484,-0.12255529,-0.060099263,-0.040768337,10.046685931977644,0.14245623370380045,fall
23/10/2020, 16:00:33,-2.1052222,-7.965835,5.134922,-0.12255529,-0.060099263,-0.040768337,9.708445477976355,0.14245623370380045,fall
23/10/2020, 16:00:33,-2.1052222,-7.965835,5.134922,-0.09934242,-0.023447363,-0.046876986,9.708445477976355,0.11232162367457925,fall
23/10/2020, 16:00:33,-2.0022364,-7.7598634,5.237908,-0.09934242,-0.023447363,-0.046876986,9.57392861461287,0.11232162367457925,fall
23/10/2020, 16:00:33,-2.0022364,-7.7598634,5.237908,-0.14943334,0.0058741583,-0.040768337,9.57392861461287,0.15500608851520303,fall
23/10/2020, 16:00:33,-2.0285816,-7.4844365,5.3241286,-0.14943334,0.0058741583,-0.040768337,9.406289328592129,0.15500608851520303,fall
23/10/2020, 16:00:33,-2.0285816,-7.4844365,5.3241286,-0.24228483,0.016869728,-0.026107576,9.406289328592129,0.24427061671606637,fall
23/10/2020, 16:00:33,-2.1219873,-7.2497244,5.374424,-0.24228483,0.016869728,-0.026107576,9.27069399297326,0.24427061671606637,fall
23/10/2020, 16:00:33,-2.1219873,-7.2497244,5.374424,-0.28138018,-0.0051214118,-0.006559896,9.27069399297326,0.28150322350471024,fall
23/10/2020, 16:00:33,-2.3590944,-7.424561,5.7767873,-0.28138018,-0.0051214118,-0.006559896,9.69848977857911,0.28150322350471024,fall
23/10/2020, 16:00:33,-2.3590944,-7.424561,5.7767873,-0.22762406,-0.036886394,0.011766055,9.69848977857911,0.23089339145211996,fall
23/10/2020, 16:00:33,-2.5578809,-7.937095,6.3156667,-0.22762406,-0.036886394,0.011766055,10.460778164528937,0.23089339145211996,fall
23/10/2020, 16:00:33,-2.5578809,-7.937095,6.3156667,-0.13721605,-0.056434073,-4.512458E-4,10.460778164528937,0.14836863405681563,fall
23/10/2020, 16:00:33,-2.6129665,-8.452024,6.591094,-0.13721605,-0.056434073,-4.512458E-4,11.032081940277394,0.14836863405681563,fall
23/10/2020, 16:00:33,-2.6129665,-8.452024,6.591094,-0.030925535,-0.06254272,-0.03221623,11.032081940277394,0.07684963308160836,fall
23/10/2020, 16:00:33,-2.6297317,-8.696317,6.715635,-0.030925535,-0.06254272,-0.03221623,11.297838914140959,0.07684963308160836,fall
23/10/2020, 16:00:33,-2.6297317,-8.696317,6.715635,0.10957342,-0.046660233,-0.045655258,11.297838914140959,0.12754573116255952,fall
23/10/2020, 16:00:33,-2.4644752,-8.56459,6.461763,0.10957342,-0.046660233,-0.045655258,11.0081891007326,0.12754573116255952,fall
23/10/2020, 16:00:34,-2.1483326,-7.8772197,4.84752,-0.022373427,0.020534918,-0.004116436,9.495492178709267,0.030646339313982033,fall
23/10/2020, 16:00:34,-2.2321582,-7.8724294,4.926555,-0.022373427,0.020534918,-0.004116436,9.551367445041997,0.030646339313982033,fall
23/10/2020, 16:00:34,-2.2321582,-7.8724294,4.926555,-0.081016466,0.027865298,0.0019922145,9.551367445041997,0.0856977918204094,fall
23/10/2020, 16:00:34,-2.2393434,-8.011341,5.0415163,-0.081016466,0.027865298,0.0019922145,9.726928172250123,0.0856977918204094,fall
23/10/2020, 16:00:34,-2.2393434,-8.011341,5.0415163,-0.10300761,0.037639137,0.0081008645,9.726928172250123,0.10996770343849828,fall
23/10/2020, 16:00:34,-2.2537134,-8.0999565,5.1924024,-0.10300761,0.037639137,0.0081008645,9.881779280692822,0.10996770343849828,fall
23/10/2020, 16:00:34,-2.2537134,-8.0999565,5.1924024,-0.08468166,0.0400826,0.019096434,9.881779280692822,0.09561522967499653,fall
23/10/2020, 16:00:34,-2.2752686,-8.126302,5.295388,-0.08468166,0.0400826,0.019096434,9.962668507881016,0.09561522967499653,fall
23/10/2020, 16:00:34,-2.2752686,-8.126302,5.295388,-0.049251486,0.030308757,0.031313736,9.962668507881016,0.06576381715388115,fall
23/10/2020, 16:00:34,-2.3854396,-8.0999565,5.2594633,-0.049251486,0.030308757,0.031313736,9.947943107214593,0.06576381715388115,fall
23/10/2020, 16:00:34,-2.3854396,-8.0999565,5.2594633,-0.0064909356,0.018091459,0.033757195,9.947943107214593,0.03884560892859229,fall
23/10/2020, 16:00:34,-2.3758595,-8.171807,5.269043,-0.0064909356,0.018091459,0.033757195,10.00929350833458,0.03884560892859229,fall
23/10/2020, 16:00:34,-2.3758595,-8.171807,5.269043,0.044821728,0.004652428,0.028870275,10.00929350833458,0.053517522191470684,fall
23/10/2020, 16:00:34,-2.2920337,-8.250843,5.2115626,0.044821728,0.004652428,0.028870275,10.024480756750446,0.053517522191470684,fall
23/10/2020, 16:00:34,-2.2920337,-8.250843,5.2115626,0.07780843,-0.0038996818,0.020318165,10.024480756750446,0.08051203325364832,fall
23/10/2020, 16:00:34,-2.2273684,-8.301138,5.142107,0.07780843,-0.0038996818,0.020318165,10.015554159685141,0.08051203325364832,fall
23/10/2020, 16:00:34,-2.2273684,-8.301138,5.142107,0.08391708,-0.002677952,0.016652975,10.015554159685141,0.08559538278415114,fall
23/10/2020, 16:00:34,-2.1770728,-8.241262,4.9792457,0.08391708,-0.002677952,0.016652975,9.871724252851003,0.08559538278415114,fall
23/10/2020, 16:00:34,-2.1770728,-8.241262,4.9792457,0.07047805,9.872383E-4,0.012987785,9.871724252851003,0.07167156339430775,fall
23/10/2020, 16:00:34,-2.2225783,-8.0999565,4.902605,0.07047805,9.872383E-4,0.012987785,9.725465854579573,0.07167156339430775,fall
23/10/2020, 16:00:34,-2.2225783,-8.0999565,4.902605,0.042378265,0.009539349,0.012987785,9.725465854579573,0.04533871545300334,fall
23/10/2020, 16:00:34,-2.2273684,-7.9730206,4.790039,0.042378265,0.009539349,0.012987785,9.564240730773097,0.04533871545300334,fall
23/10/2020, 16:00:34,-2.2273684,-7.9730206,4.790039,-0.0028257454,0.013204537,0.011766055,9.564240730773097,0.017910463018963572,fall
23/10/2020, 16:00:34,-2.3566992,-7.9610453,4.840335,-0.0028257454,0.013204537,0.011766055,9.610469022711113,0.017910463018963572,fall
23/10/2020, 16:00:34,-2.3566992,-7.9610453,4.840335,-0.054138403,0.016869728,0.011766055,9.610469022711113,0.0579136812012709,fall
23/10/2020, 16:00:34,-2.3950195,-7.9778104,4.9289503,-0.054138403,0.016869728,0.011766055,9.678642891215954,0.0579136812012709,fall
23/10/2020, 16:00:34,-2.3950195,-7.9778104,4.9289503,-0.07246436,0.016869728,0.010544324,9.678642891215954,0.07514555349890537,fall
23/10/2020, 16:00:34,-2.4141798,-8.004155,5.031936,-0.07246436,0.016869728,0.010544324,9.757824836046556,0.07514555349890537,fall
23/10/2020, 16:00:34,-2.4141798,-8.004155,5.031936,-0.048029754,0.019313188,0.012987785,9.757824836046556,0.05337170692963006,fall
23/10/2020, 16:00:34,-2.4141798,-8.004155,5.0439115,-0.048029754,0.019313188,0.012987785,9.76400566939973,0.05337170692963006,fall
23/10/2020, 16:00:35,-2.5315359,-8.176597,5.015171,-0.018708237,0.027865298,-0.009003356,9.920551755804064,0.03474958089452022,fall
23/10/2020, 16:00:35,-2.5027955,-8.2197075,4.976851,-0.018708237,0.027865298,-0.009003356,9.929583176063629,0.03474958089452022,fall
23/10/2020, 16:00:35,-2.5027955,-8.2197075,4.976851,-0.011377855,0.026643569,-0.017555466,9.929583176063629,0.033875208090513496,fall
23/10/2020, 16:00:35,-2.4165747,-8.143066,5.0031962,-0.011377855,0.026643569,-0.017555466,9.858059467664724,0.033875208090513496,fall
23/10/2020, 16:00:35,-2.4165747,-8.143066,5.0031962,-0.0028257454,0.024200108,-0.027329307,9.858059467664724,0.03661312719844543,fall
23/10/2020, 16:00:35,-2.42376,-8.150251,4.9864306,-0.0028257454,0.024200108,-0.027329307,9.857266381073305,0.03661312719844543,fall
23/10/2020, 16:00:35,-2.42376,-8.150251,4.9864306,-0.001604015,0.024200108,-0.035881415,9.857266381073305,0.043309283412577136,fall
23/10/2020, 16:00:35,-2.3950195,-8.150251,4.9648757,-0.001604015,0.024200108,-0.035881415,9.839344843489716,0.043309283412577136,fall
23/10/2020, 16:00:35,-2.3950195,-8.150251,4.9648757,-0.005269205,0.02908703,-0.040768337,9.839344843489716,0.0503574926296571,fall
23/10/2020, 16:00:35,-2.3519094,-7.999366,4.9457154,-0.005269205,0.02908703,-0.040768337,9.694402107275204,0.0503574926296571,fall
23/10/2020, 16:00:35,-2.3519094,-7.999366,4.9457154,8.394448E-4,0.03519568,-0.038324878,9.694402107275204,0.05204072151014075,fall
23/10/2020, 16:00:35,-2.3758595,-7.999366,4.902605,8.394448E-4,0.03519568,-0.038324878,9.6783313649075,0.05204072151014075,fall
23/10/2020, 16:00:35,-2.3758595,-7.999366,4.902605,0.014278475,0.03886087,-0.035881415,9.6783313649075,0.05478611055910482,fall
23/10/2020, 16:00:35,-2.43813,-7.9778104,4.9337406,0.014278475,0.03886087,-0.035881415,9.69183844208643,0.05478611055910482,fall
23/10/2020, 16:00:35,-2.43813,-7.9778104,4.9337406,0.024052314,0.03886087,-0.039546605,9.69183844208643,0.060436867282468235,fall
23/10/2020, 16:00:35,-2.4788454,-8.061636,5.0343313,0.024052314,0.03886087,-0.039546605,9.82237958415424,0.060436867282468235,fall
23/10/2020, 16:00:35,-2.4788454,-8.061636,5.0343313,0.016721934,0.04374779,-0.046876986,9.82237958415424,0.06626419847936439,fall
23/10/2020, 16:00:35,-2.567461,-8.104747,5.0702567,0.016721934,0.04374779,-0.046876986,9.898801955583242,0.06626419847936439,fall
23/10/2020, 16:00:35,-2.567461,-8.104747,5.0702567,0.008169825,0.044969518,-0.045655258,9.898801955583242,0.06460190517475252,fall
23/10/2020, 16:00:35,-2.6297317,-8.073611,5.0343313,0.008169825,0.044969518,-0.045655258,9.8713311768801,0.06460190517475252,fall
23/10/2020, 16:00:35,-2.6297317,-8.073611,5.0343313,0.003282905,0.044969518,-0.041990068,9.8713311768801,0.06161331662929644,fall
23/10/2020, 16:00:35,-2.555486,-8.109536,5.012776,0.003282905,0.044969518,-0.041990068,9.870309398532289,0.06161331662929644,fall
23/10/2020, 16:00:35,-2.555486,-8.109536,5.012776,0.0069480953,0.048634708,-0.044433527,9.870309398532289,0.06624159673330404,fall
23/10/2020, 16:00:35,-2.5339308,-8.047266,4.9313455,0.0069480953,0.048634708,-0.044433527,9.772280360417376,0.06624159673330404,fall
23/10/2020, 16:00:35,-2.5339308,-8.047266,4.9313455,0.013056746,0.04741298,-0.044433527,9.772280360417376,0.06627825895158511,fall
23/10/2020, 16:00:35,-2.6153615,-8.054451,5.0343313,0.013056746,0.04741298,-0.044433527,9.851841863958683,0.06627825895158511,fall
23/10/2020, 16:00:35,-2.6153615,-8.054451,5.0343313,0.016721934,0.0400826,-0.046876986,9.851841863958683,0.0639037532277585,fall
23/10/2020, 16:00:35,-2.6488917,-8.121511,5.0487013,0.016721934,0.0400826,-0.046876986,9.922951185728548,0.0639037532277585,fall
23/10/2020, 16:00:35,-2.6488917,-8.121511,5.0487013,0.024052314,0.03641741,-0.050542176,9.922951185728548,0.06677763920171689,fall
23/10/2020, 16:00:35,-2.5818312,-8.231683,5.1468973,0.024052314,0.03641741,-0.050542176,10.045745654811297,0.06677763920171689,fall
23/10/2020, 16:00:36,-2.4860303,-8.073611,4.976851,-0.046808027,-0.031999473,0.028870275,9.804722911071439,0.06362743434429194,fall
23/10/2020, 16:00:36,-2.4884255,-8.020921,4.893025,-0.046808027,-0.031999473,0.028870275,9.719522830397018,0.06362743434429194,fall
23/10/2020, 16:00:36,-2.4884255,-8.020921,4.893025,-0.039477646,-0.033221204,0.032535464,9.719522830397018,0.060997453515595934,fall
23/10/2020, 16:00:36,-2.3734643,-8.013736,4.8906302,-0.039477646,-0.033221204,0.032535464,9.683571562550567,0.060997453515595934,fall
23/10/2020, 16:00:36,-2.3734643,-8.013736,4.8906302,-0.037034184,-0.03444293,0.031313736,9.683571562550567,0.05948442108197778,fall
23/10/2020, 16:00:36,-2.3926246,-8.0017605,4.8834453,-0.037034184,-0.03444293,0.031313736,9.67475379613387,0.05948442108197778,fall
23/10/2020, 16:00:36,-2.3926246,-8.0017605,4.8834453,-0.026038613,-0.036886394,0.034978926,9.67475379613387,0.057115153127295044,fall
23/10/2020, 16:00:36,-2.3974147,-7.927515,4.9337406,-0.026038613,-0.036886394,0.034978926,9.640274279413283,0.057115153127295044,fall
23/10/2020, 16:00:36,-2.3974147,-7.927515,4.9337406,-0.011377855,-0.039329853,0.042309307,9.640274279413283,0.05887588929798671,fall
23/10/2020, 16:00:36,-2.42855,-7.937095,4.9720607,-0.011377855,-0.039329853,0.042309307,9.675573481625715,0.05887588929798671,fall
23/10/2020, 16:00:36,-2.42855,-7.937095,4.9720607,-0.007712665,-0.039329853,0.050861415,9.675573481625715,0.06475496906509423,fall
23/10/2020, 16:00:36,-2.4980054,-7.965835,4.9481106,-0.007712665,-0.039329853,0.050861415,9.704553467193188,0.06475496906509423,fall
23/10/2020, 16:00:36,-2.4980054,-7.965835,4.9481106,-0.019929964,-0.046660233,0.061856985,9.704553467193188,0.08000417141698554,fall
23/10/2020, 16:00:36,-2.5219557,-7.824529,5.130132,-0.019929964,-0.046660233,0.061856985,9.69029276217822,0.08000417141698554,fall
23/10/2020, 16:00:36,-2.5219557,-7.824529,5.130132,-0.030925535,-0.058877535,0.07773948,9.69029276217822,0.10230532317586492,fall
23/10/2020, 16:00:36,-2.565066,-7.678433,5.278623,-0.030925535,-0.058877535,0.07773948,9.664458515836612,0.10230532317586492,fall
23/10/2020, 16:00:36,-2.565066,-7.678433,5.278623,-0.029703803,-0.08697732,0.103395805,9.664458515836612,0.13834038532113943,fall
23/10/2020, 16:00:36,-2.6417067,-7.6185575,5.53489,-0.029703803,-0.08697732,0.103395805,9.780390648158791,0.13834038532113943,fall
23/10/2020, 16:00:36,-2.6417067,-7.6185575,5.53489,-0.022373427,-0.12607269,0.1437129,9.780390648158791,0.19247932099371518,fall
23/10/2020, 16:00:36,-2.804568,-7.5155716,5.822293,-0.022373427,-0.12607269,0.1437129,9.912038733375125,0.19247932099371518,fall
23/10/2020, 16:00:36,-2.804568,-7.5155716,5.822293,-0.011377855,-0.16394632,0.20235594,9.912038733375125,0.2606832846695074,fall
23/10/2020, 16:00:36,-3.0776002,-7.3096,5.841453,-0.011377855,-0.16394632,0.20235594,9.850098863814988,0.2606832846695074,fall
23/10/2020, 16:00:36,-3.0776002,-7.3096,5.841453,-0.033368994,-0.18593745,0.274438,9.850098863814988,0.3331702826151571,fall
23/10/2020, 16:00:36,-3.1039455,-6.844966,5.601951,-0.033368994,-0.18593745,0.274438,9.3738942095717,0.3331702826151571,fall
23/10/2020, 16:00:36,-3.1039455,-6.844966,5.601951,-0.12988566,-0.18227226,0.35507217,9.3738942095717,0.41972575054729516,fall
23/10/2020, 16:00:36,-3.1063404,-6.346802,4.9624805,-0.12988566,-0.18227226,0.35507217,8.634666322336232,0.41972575054729516,fall
23/10/2020, 16:00:36,-3.1063404,-6.346802,4.9624805,-0.3180321,-0.18105054,0.4528106,8.634666322336232,0.5822036857295634,fall
23/10/2020, 16:00:36,-3.1326857,-6.071375,4.368516,-0.3180321,-0.18105054,0.4528106,8.109207378760555,0.5822036857295634,fall
23/10/2020, 16:00:36,-3.1326857,-6.071375,4.368516,-0.6088038,-0.17982881,0.5346665,8.109207378760555,0.829969108420371,fall
23/10/2020, 16:00:36,-3.027305,-5.767207,3.7027004,-0.6088038,-0.17982881,0.5346665,7.492345642256912,0.829969108420371,fall
23/10/2020, 16:00:37,-11.541599,-0.19639161,-7.9155397,-0.6955467,0.075512774,1.2298309,13.996530029230385,1.4149103573311492,fall
23/10/2020, 16:00:37,-12.700789,3.9829175,-6.567144,-0.6955467,0.075512774,1.2298309,14.842542373513437,1.4149103573311492,fall
23/10/2020, 16:00:37,-12.700789,3.9829175,-6.567144,0.7803032,0.2758765,1.3446735,14.842542373513437,1.5789641390096416,fall
23/10/2020, 16:00:37,-15.85024,2.0237916,1.1328443,0.7803032,0.2758765,1.3446735,16.019025212798333,1.5789641390096416,fall
23/10/2020, 16:00:37,-15.85024,2.0237916,1.1328443,2.3685522,0.5532092,0.9476113,16.019025212798333,2.6103729787634826,fall
23/10/2020, 16:00:37,-15.114969,-1.1088941,-7.4054008,2.3685522,0.5532092,0.9476113,16.868073452380184,2.6103729787634826,fall
23/10/2020, 16:00:37,-15.114969,-1.1088941,-7.4054008,3.3630404,1.192174,0.20479938,16.868073452380184,3.5739701430050914,fall
23/10/2020, 16:00:37,-17.732725,-6.70366,-6.444998,3.3630404,1.192174,0.20479938,20.02315147623074,3.5739701430050914,fall
23/10/2020, 16:00:37,-17.732725,-6.70366,-6.444998,3.397249,0.23189421,-1.1977466,20.02315147623074,3.609663776605364,fall
23/10/2020, 16:00:37,-13.939014,-20.647465,23.533463,3.397249,0.23189421,-1.1977466,34.27007123563059,3.609663776605364,fall
23/10/2020, 16:00:37,-13.939014,-20.647465,23.533463,3.4583354,1.0822183,-0.9595093,34.27007123563059,3.7485915067014934,fall
23/10/2020, 16:00:37,-11.759546,-5.1468973,10.839859,3.4583354,1.0822183,-0.9595093,16.801191148872068,3.7485915067014934,fall
23/10/2020, 16:00:37,-11.759546,-5.1468973,10.839859,2.9794173,1.1457483,-0.5367907,16.801191148872068,3.236944693241069,fall
23/10/2020, 16:00:37,-11.146421,5.863008,6.7563505,2.9794173,1.1457483,-0.5367907,14.292160303211443,3.236944693241069,fall
23/10/2020, 16:00:37,-11.146421,5.863008,6.7563505,1.0894009,0.104834296,-0.41217428,14.292160303211443,1.1694751660505396,fall
23/10/2020, 16:00:37,-21.174368,6.351592,12.034974,1.0894009,0.104834296,-0.41217428,25.170164470117214,1.1694751660505396,fall
23/10/2020, 16:00:37,-21.174368,6.351592,12.034974,-0.23984137,-1.038705,-0.51235616,25.170164470117214,1.1827682695537063,fall
23/10/2020, 16:00:37,-28.301947,-6.2797413,12.765454,-0.23984137,-1.038705,-0.51235616,31.67636591431424,1.1827682695537063,fall
23/10/2020, 16:00:37,-28.301947,-6.2797413,12.765454,-0.8189414,-0.57322586,-0.1360633,31.67636591431424,1.008843962927893,fall
23/10/2020, 16:00:37,-32.718365,-5.2115626,10.722503,-0.8189414,-0.57322586,-0.1360633,34.82274887307004,1.008843962927893,fall
23/10/2020, 16:00:37,-32.718365,-5.2115626,10.722503,-0.902019,0.7437991,0.15715192,34.82274887307004,1.1796491567830172,fall
23/10/2020, 16:00:37,-16.219072,2.3638844,1.1496094,-0.902019,0.7437991,0.15715192,16.430698682654647,1.1796491567830172,fall
23/10/2020, 16:00:37,-16.219072,2.3638844,1.1496094,-2.386421,0.47624022,-0.50869095,16.430698682654647,2.486076477903548,fall
23/10/2020, 16:00:37,-1.951941,2.186653,-0.42152345,-2.386421,0.47624022,-0.50869095,2.961284626601354,2.486076477903548,fall
23/10/2020, 16:00:37,-1.951941,2.186653,-0.42152345,-2.9105432,-0.23114146,-0.74570656,2.961284626601354,3.013430998953652,fall
23/10/2020, 16:00:37,1.2885206,-6.69408,8.986114,-2.9105432,-0.23114146,-0.74570656,11.279238775697374,3.013430998953652,fall
23/10/2020, 16:00:37,1.2885206,-6.69408,8.986114,-1.060844,0.32352394,-0.106741756,11.279238775697374,1.1142043870348457,fall
23/10/2020, 16:00:37,-6.495293,-12.391831,6.8689165,-1.060844,0.32352394,-0.106741756,15.586158359872867,1.1142043870348457,fall
23/10/2020, 16:00:37,-6.495293,-12.391831,6.8689165,0.3453673,0.9991406,0.16081712,15.586158359872867,1.0693094521474702,fall
23/10/2020, 16:00:37,-10.818304,-8.732242,2.5291407,0.3453673,0.9991406,0.16081712,14.130969513981094,1.0693094521474702,fall
23/10/2020, 16:00:38,-8.794512,-2.8572583,4.734954,0.6532433,0.69859505,0.35751563,10.388799308303605,1.0210677161232318,fall
23/10/2020, 16:00:38,-8.653206,-3.300337,4.373306,0.6532433,0.69859505,0.35751563,10.241874841627236,1.0210677161232318,fall
23/10/2020, 16:00:38,-8.653206,-3.300337,4.373306,0.6630171,0.8183246,0.37095466,10.241874841627236,1.1166262675928909,fall
23/10/2020, 16:00:38,-8.866363,-2.7638526,2.9482691,0.6630171,0.8183246,0.37095466,9.743898464318256,1.1166262675928909,fall
23/10/2020, 16:00:38,-8.866363,-2.7638526,2.9482691,0.5151878,0.8317636,0.4137152,9.743898464318256,1.062266197910736,fall
23/10/2020, 16:00:38,-8.775352,-1.2933106,2.823728,0.5151878,0.8317636,0.4137152,9.308753251045985,1.062266197910736,fall
23/10/2020, 16:00:38,-8.775352,-1.2933106,2.823728,0.28061563,0.7364687,0.4454802,9.308753251045985,0.9053087003924978,fall
23/10/2020, 16:00:38,-8.629255,-1.2765454,3.0752053,0.28061563,0.7364687,0.4454802,9.249351486044853,0.9053087003924978,fall
23/10/2020, 16:00:38,-8.629255,-1.2765454,3.0752053,0.050930377,0.63628685,0.43937156,9.249351486044853,0.7749207889141242,fall
23/10/2020, 16:00:38,-8.902288,-1.7794995,3.2332766,0.050930377,0.63628685,0.43937156,9.636982702175432,0.7749207889141242,fall
23/10/2020, 16:00:38,-8.902288,-1.7794995,3.2332766,0.016721934,0.63262165,0.43204117,9.636982702175432,0.7662567069892888,fall
23/10/2020, 16:00:38,-8.684341,-1.2573853,3.9254372,0.016721934,0.63262165,0.43204117,9.612900762328083,0.7662567069892888,fall
23/10/2020, 16:00:38,-8.684341,-1.2573853,3.9254372,0.087582275,0.6570563,0.39172408,9.612900762328083,0.7699619174269331,fall
23/10/2020, 16:00:38,-8.741821,-1.2525953,3.8272414,0.087582275,0.6570563,0.39172408,9.624770716323399,0.7699619174269331,fall
23/10/2020, 16:00:38,-8.741821,-1.2525953,3.8272414,0.16210781,0.68393433,0.32941586,9.624770716323399,0.7762473308096011,fall
23/10/2020, 16:00:38,-8.5502205,-1.468147,3.9541774,0.16210781,0.68393433,0.32941586,9.534004662147083,0.7762473308096011,fall
23/10/2020, 16:00:38,-8.5502205,-1.468147,3.9541774,0.242742,0.71447754,0.26099896,9.534004662147083,0.7984499312640266,fall
23/10/2020, 16:00:38,-8.368198,-1.7411792,4.023633,0.242742,0.71447754,0.26099896,9.447119773902804,0.7984499312640266,fall
23/10/2020, 16:00:38,-8.368198,-1.7411792,4.023633,0.32337618,0.7437991,0.2170167,9.447119773902804,0.8395864973795176,fall
23/10/2020, 16:00:38,-8.907078,-1.9088306,3.6021094,0.32337618,0.7437991,0.2170167,9.795655237346939,0.8395864973795176,fall
23/10/2020, 16:00:38,-8.907078,-1.9088306,3.6021094,0.35758463,0.77067715,0.22679053,9.795655237346939,0.8793429242599988,fall
23/10/2020, 16:00:38,-9.235196,-1.1687696,2.9698243,0.35758463,0.77067715,0.22679053,9.771116931362085,0.8793429242599988,fall
23/10/2020, 16:00:38,-9.235196,-1.1687696,2.9698243,0.3001633,0.7279166,0.19991247,9.771116931362085,0.8123580350855699,fall
23/10/2020, 16:00:38,-9.371712,-0.4023633,2.4453151,0.3001633,0.7279166,0.19991247,9.693835311291526,0.8123580350855699,fall
23/10/2020, 16:00:38,-9.371712,-0.4023633,2.4453151,0.09735611,0.6179609,0.12660867,9.693835311291526,0.6382660924332447,fall
23/10/2020, 16:00:38,-9.342972,-0.42152345,2.189048,0.09735611,0.6179609,0.12660867,9.605245206766043,0.6382660924332447,fall
23/10/2020, 16:00:38,-9.342972,-0.42152345,2.189048,-0.11155972,0.5055617,0.08629159,9.605245206766043,0.5248661269217093,fall
23/10/2020, 16:00:38,-9.019644,-0.93405765,2.4956105,-0.11155972,0.5055617,0.08629159,9.405025748350813,0.5248661269217093,fall
23/10/2020, 16:00:38,-9.019644,-0.93405765,2.4956105,-0.25694558,0.43714485,0.082626395,9.405025748350813,0.5137545800173724,fall
23/10/2020, 16:00:38,-9.045989,-1.7148341,2.9794044,-0.25694558,0.43714485,0.082626395,9.677159939421893,0.5137545800173724,fall
23/10/2020, 16:00:39,-9.18011,-1.2645704,2.8764186,0.26228967,0.18546848,-0.077420235,9.702955286659114,0.33043656337902355,fall
23/10/2020, 16:00:39,-9.438772,-1.1112891,2.4716604,0.26228967,0.18546848,-0.077420235,9.820106376481593,0.33043656337902355,fall
23/10/2020, 16:00:39,-9.438772,-1.1112891,2.4716604,0.16821647,0.13293408,-0.06886813,9.820106376481593,0.22519118183219605,fall
23/10/2020, 16:00:39,-9.534574,-0.855022,2.069297,0.16821647,0.13293408,-0.06886813,9.793934138247426,0.22519118183219605,fall
23/10/2020, 16:00:39,-9.534574,-0.855022,2.069297,0.050930377,0.05107817,-0.063981205,9.793934138247426,0.09641824225052319,fall
23/10/2020, 16:00:39,-9.369317,-0.8095166,2.1028273,0.050930377,0.05107817,-0.063981205,9.636456916846216,0.09641824225052319,fall
23/10/2020, 16:00:39,-9.369317,-0.8095166,2.1028273,-0.038255915,-0.017338712,-0.078641966,9.636456916846216,0.08915550894816761,fall
23/10/2020, 16:00:39,-9.189691,-0.91010743,2.191443,-0.038255915,-0.017338712,-0.078641966,9.491107994037753,0.08915550894816761,fall
23/10/2020, 16:00:39,-9.189691,-0.91010743,2.191443,-0.07979474,-0.06376445,-0.105520025,9.491107994037753,0.14685905484336295,fall
23/10/2020, 16:00:39,-9.0148535,-0.92208254,2.7231374,-0.07979474,-0.06376445,-0.105520025,9.462203581641226,0.14685905484336295,fall
23/10/2020, 16:00:39,-9.0148535,-0.92208254,2.7231374,-0.040699374,-0.053990614,-0.1360633,9.462203581641226,0.15193631890373216,fall
23/10/2020, 16:00:39,-8.964559,-0.95561284,3.3745828,-0.040699374,-0.053990614,-0.1360633,9.626230605426288,0.15193631890373216,fall
23/10/2020, 16:00:39,-8.964559,-0.95561284,3.3745828,0.05215211,-0.006343142,-0.16171962,9.626230605426288,0.1700391526366178,fall
23/10/2020, 16:00:39,-9.005274,-1.2789404,3.4919386,0.05215211,-0.006343142,-0.16171962,9.742909233131737,0.1700391526366178,fall
23/10/2020, 16:00:39,-9.005274,-1.2789404,3.4919386,0.14011668,0.05352163,-0.15072405,9.742909233131737,0.2126381625447084,fall
23/10/2020, 16:00:39,-9.242381,-1.3962965,3.396138,0.14011668,0.05352163,-0.15072405,9.945099558839292,0.2126381625447084,fall
23/10/2020, 16:00:39,-9.242381,-1.3962965,3.396138,0.17676857,0.097503915,-0.14828059,9.945099558839292,0.2504820849206447,fall
23/10/2020, 16:00:39,-9.230406,-1.2549903,3.178191,0.17676857,0.097503915,-0.14828059,9.842575364996716,0.2504820849206447,fall
23/10/2020, 16:00:39,-9.230406,-1.2549903,3.178191,0.13034283,0.11338641,-0.12506771,9.842575364996716,0.21327836754464752,fall
23/10/2020, 16:00:39,-9.297466,-1.22146,2.5698562,0.13034283,0.11338641,-0.12506771,9.723117010744255,0.21327836754464752,fall
23/10/2020, 16:00:39,-9.297466,-1.22146,2.5698562,0.035047885,0.07795623,-0.08719408,9.723117010744255,0.12209969343013402,fall
23/10/2020, 16:00:39,-9.22801,-1.2573853,2.4525,0.035047885,0.07795623,-0.08719408,9.630781187391403,0.12209969343013402,fall
23/10/2020, 16:00:39,-9.22801,-1.2573853,2.4525,-0.050473217,0.041304328,-0.059094287,9.630781187391403,0.08800981712481105,fall
23/10/2020, 16:00:39,-9.144185,-1.3196558,2.6033864,-0.050473217,0.041304328,-0.059094287,9.598709947244346,0.08800981712481105,fall
23/10/2020, 16:00:39,-9.144185,-1.3196558,2.6033864,-0.06635571,0.03153049,-0.043211795,9.598709947244346,0.08523210405486183,fall
23/10/2020, 16:00:39,-9.285491,-1.2430152,2.574646,-0.06635571,0.03153049,-0.043211795,9.715669387016838,0.08523210405486183,fall
23/10/2020, 16:00:39,-9.285491,-1.2430152,2.574646,-0.051694945,0.015647998,-0.039546605,9.715669387016838,0.06694147528748957,fall
23/10/2020, 16:00:39,-9.239985,-1.1951149,2.682422,-0.051694945,0.015647998,-0.039546605,9.69541222900421,0.06694147528748957,fall
23/10/2020, 16:00:39,-9.239985,-1.1951149,2.682422,-0.030925535,0.014426269,-0.050542176,9.69541222900421,0.06098374744708889,fall
23/10/2020, 16:00:39,-9.127419,-1.3220508,2.8380983,-0.030925535,0.014426269,-0.050542176,9.649477003803984,0.06098374744708889,fall
23/10/2020, 16:00:40,-9.1130495,-1.3795313,2.919529,0.014278475,-0.021003902,-0.051763907,9.66821737364125,0.05765883130138621,fall
23/10/2020, 16:00:40,-9.086704,-1.4106666,2.912344,0.014278475,-0.021003902,-0.051763907,9.645720391327492,0.05765883130138621,fall
23/10/2020, 16:00:40,-9.086704,-1.4106666,2.912344,0.035047885,-0.014895253,-0.039546605,9.645720391327492,0.05490133683603937,fall
23/10/2020, 16:00:40,-9.041199,-1.4801221,2.8764186,0.035047885,-0.014895253,-0.039546605,9.602490291135666,0.05490133683603937,fall
23/10/2020, 16:00:40,-9.041199,-1.4801221,2.8764186,0.044821728,-0.010008331,-0.040768337,9.602490291135666,0.06141018857907145,fall
23/10/2020, 16:00:40,-9.093889,-1.4465919,2.8788135,0.044821728,-0.010008331,-0.040768337,9.647746712819783,0.06141018857907145,fall
23/10/2020, 16:00:40,-9.093889,-1.4465919,2.8788135,0.049708646,-0.002677952,-0.035881415,9.647746712819783,0.06136445906247666,fall
23/10/2020, 16:00:40,-9.239985,-1.4513819,2.811753,0.049708646,-0.002677952,-0.035881415,9.766769989219846,0.06136445906247666,fall
23/10/2020, 16:00:40,-9.239985,-1.4513819,2.811753,0.031382695,-0.007564872,-0.027329307,9.766769989219846,0.042296475600216814,fall
23/10/2020, 16:00:40,-9.256751,-1.4226416,2.8093581,0.031382695,-0.007564872,-0.027329307,9.777721741974693,0.042296475600216814,fall
23/10/2020, 16:00:40,-9.256751,-1.4226416,2.8093581,0.008169825,-0.013673522,-0.019998927,9.777721741974693,0.02556693771054278,fall
23/10/2020, 16:00:40,-9.065149,-1.346001,2.8524685,0.008169825,-0.013673522,-0.019998927,9.598188746984004,0.02556693771054278,fall
23/10/2020, 16:00:40,-9.065149,-1.346001,2.8524685,-3.8228463E-4,-0.014895253,-0.016333736,9.598188746984004,0.022108949486064438,fall
23/10/2020, 16:00:40,-9.10347,-1.3531861,2.799778,-3.8228463E-4,-0.014895253,-0.016333736,9.619928936949918,0.022108949486064438,fall
23/10/2020, 16:00:40,-9.10347,-1.3531861,2.799778,-0.001604015,-0.014895253,-0.023664117,9.619928936949918,0.02800771053376475,fall
23/10/2020, 16:00:40,-9.086704,-1.21188,2.929109,-0.001604015,-0.014895253,-0.023664117,9.623748093136646,0.02800771053376475,fall
23/10/2020, 16:00:40,-9.086704,-1.21188,2.929109,-0.0064909356,-0.010008331,-0.035881415,9.623748093136646,0.037812364179641816,fall
23/10/2020, 16:00:40,-9.096285,-1.22146,2.9913795,-0.0064909356,-0.010008331,-0.035881415,9.653119401185226,0.037812364179641816,fall
23/10/2020, 16:00:40,-9.096285,-1.22146,2.9913795,-3.8228463E-4,-0.002677952,-0.048098717,9.653119401185226,0.04817472505474321,fall
23/10/2020, 16:00:40,-9.17053,-1.341211,2.9889846,-3.8228463E-4,-0.002677952,-0.048098717,9.738146744974953,0.04817472505474321,fall
23/10/2020, 16:00:40,-9.17053,-1.341211,2.9889846,0.014278475,0.0070958887,-0.051763907,9.738146744974953,0.05416390464438148,fall
23/10/2020, 16:00:40,-9.127419,-1.5232325,2.9506643,0.014278475,0.0070958887,-0.051763907,9.712694942421114,0.05416390464438148,fall
23/10/2020, 16:00:40,-9.127419,-1.5232325,2.9506643,0.025274046,0.018091459,-0.044433527,9.712694942421114,0.054225608031493025,fall
23/10/2020, 16:00:40,-9.187295,-1.4944923,2.8285182,0.025274046,0.018091459,-0.044433527,9.728330320873901,0.054225608031493025,fall
23/10/2020, 16:00:40,-9.187295,-1.4944923,2.8285182,0.021608856,0.009539349,-0.030994497,9.728330320873901,0.03896922731902917,fall
23/10/2020, 16:00:40,-9.187295,-1.4489869,2.7375073,0.021608856,0.009539349,-0.030994497,9.69535446172147,0.03896922731902917,fall
23/10/2020, 16:00:40,-9.187295,-1.4489869,2.7375073,-0.005269205,-0.002677952,-0.016333736,9.69535446172147,0.017370287774811942,fall
23/10/2020, 16:00:40,-9.280701,-1.4825171,2.668052,-0.005269205,-0.002677952,-0.016333736,9.769737122878047,0.017370287774811942,fall
23/10/2020, 16:00:40,-9.280701,-1.4825171,2.668052,-0.012599585,-0.021003902,-0.010225086,9.769737122878047,0.026541774716075245,fall
23/10/2020, 16:00:40,-9.074729,-1.3292359,2.8572583,-0.012599585,-0.021003902,-0.010225086,9.606325989494808,0.026541774716075245,fall
23/10/2020, 16:00:41,-9.163345,-1.2861255,2.7422974,-0.030925535,-0.014895253,-0.009003356,9.65096947255852,0.03548686621641095,fall
23/10/2020, 16:00:41,-9.163345,-1.2861255,2.7422974,-0.046808027,-0.025890823,-0.005338166,9.65096947255852,0.05375706577588426,fall
23/10/2020, 16:00:41,-9.15616,-1.3220508,2.931504,-0.046808027,-0.025890823,-0.005338166,9.704473532895795,0.05375706577588426,fall
23/10/2020, 16:00:41,-9.15616,-1.3220508,2.931504,-0.037034184,-0.023447363,-0.0028947059,9.704473532895795,0.043928224471506544,fall
23/10/2020, 16:00:41,-9.0891,-1.4441968,2.9746144,-0.037034184,-0.023447363,-0.0028947059,9.67190632077936,0.043928224471506544,fall
23/10/2020, 16:00:41,-9.0891,-1.4441968,2.9746144,-0.013821316,-0.011230063,-0.0016729758,9.67190632077936,0.0178869206650487,fall
23/10/2020, 16:00:41,-9.093889,-1.3962965,3.0033545,-0.013821316,-0.011230063,-0.0016729758,9.678254176938367,0.0178869206650487,fall
23/10/2020, 16:00:41,-9.093889,-1.3962965,3.0033545,0.008169825,9.872383E-4,-0.0016729758,9.678254176938367,0.008397590792911825,fall
23/10/2020, 16:00:41,-9.15137,-1.2334352,2.926714,0.008169825,9.872383E-4,-0.0016729758,9.68682561786878,0.008397590792911825,fall
23/10/2020, 16:00:41,-9.15137,-1.2334352,2.926714,0.0020611752,9.872383E-4,-0.0028947059,9.68682561786878,0.0036881437759370412,fall
23/10/2020, 16:00:41,-9.134604,-1.2382251,2.938689,0.0020611752,9.872383E-4,-0.0028947059,9.675230898345479,0.0036881437759370412,fall
23/10/2020, 16:00:41,-9.134604,-1.2382251,2.938689,-0.0064909356,0.0022089682,-0.0077816257,9.675230898345479,0.010371378107512989,fall
23/10/2020, 16:00:41,-9.168135,-1.214275,2.943479,-0.0064909356,0.0022089682,-0.0077816257,9.705319492250295,0.010371378107512989,fall
23/10/2020, 16:00:41,-9.168135,-1.214275,2.943479,-0.012599585,0.0022089682,-0.015112006,9.705319492250295,0.01979903538366663,fall
23/10/2020, 16:00:41,-9.168135,-1.2334352,2.8261232,-0.012599585,0.0022089682,-0.015112006,9.672798380763508,0.01979903538366663,fall
23/10/2020, 16:00:41,-9.168135,-1.2334352,2.8261232,-0.015043045,-0.0038996818,-0.023664117,9.672798380763508,0.028310619208677345,fall
23/10/2020, 16:00:41,-9.11784,-1.2358302,2.8668385,-0.015043045,-0.0038996818,-0.023664117,9.63748109419949,0.028310619208677345,fall
23/10/2020, 16:00:41,-9.11784,-1.2358302,2.8668385,-0.0028257454,-0.0038996818,-0.030994497,9.63748109419949,0.03136640264052563,fall
23/10/2020, 16:00:41,-9.12263,-1.3172607,2.802173,-0.0028257454,-0.0038996818,-0.030994497,9.633780624145995,0.03136640264052563,fall
23/10/2020, 16:00:41,-9.12263,-1.3172607,2.802173,0.0069480953,-0.008786602,-0.037103146,9.633780624145995,0.038757242784113716,fall
23/10/2020, 16:00:41,-9.108259,-1.2693604,3.0033545,0.0069480953,-0.008786602,-0.037103146,9.674285508845614,0.038757242784113716,fall
23/10/2020, 16:00:41,-9.108259,-1.2693604,3.0033545,0.019165397,9.872383E-4,-0.039546605,9.674285508845614,0.04395703643870764,fall
23/10/2020, 16:00:41,-9.079519,-1.334026,2.9626393,0.019165397,9.872383E-4,-0.039546605,9.643367012153902,0.04395703643870764,fall
23/10/2020, 16:00:41,-9.079519,-1.334026,2.9626393,0.030160967,0.009539349,-0.035881415,9.643367012153902,0.047834705691692805,fall
23/10/2020, 16:00:41,-9.177715,-1.3555812,2.8788135,0.030160967,0.009539349,-0.035881415,9.713682393735695,0.047834705691692805,fall
23/10/2020, 16:00:41,-9.177715,-1.3555812,2.8788135,0.019165397,0.0058741583,-0.03221623,9.713682393735695,0.03794342562621523,fall
23/10/2020, 16:00:41,-9.144185,-1.3268409,2.8548634,0.019165397,0.0058741583,-0.03221623,9.670929236745499,0.03794342562621523,fall
23/10/2020, 16:00:41,-9.144185,-1.3268409,2.8548634,0.004504635,-0.002677952,-0.023664117,9.670929236745499,0.02423744189881978,fall
23/10/2020, 16:00:41,-9.144185,-1.3603711,2.8548634,0.004504635,-0.002677952,-0.023664117,9.675586553406003,0.02423744189881978,fall
23/10/2020, 16:00:41,-9.144185,-1.3603711,2.8548634,8.394448E-4,-0.0014562218,-0.021220656,9.675586553406003,0.021287120409530437,fall
23/10/2020, 16:00:42,-9.172925,-1.3148658,2.818938,0.009391556,0.0022089682,0.0032139444,9.685960802068456,0.010169085243284404,fall
23/10/2020, 16:00:42,-9.18011,-1.2909156,2.8907888,0.009391556,0.0022089682,0.0032139444,9.710692156591866,0.010169085243284404,fall
23/10/2020, 16:00:42,-9.18011,-1.2909156,2.8907888,0.021608856,0.016869728,0.0032139444,9.710692156591866,0.027601807629557423,fall
23/10/2020, 16:00:42,-9.127419,-1.2454102,2.818938,0.021608856,0.016869728,0.0032139444,9.633651661350953,0.027601807629557423,fall
23/10/2020, 16:00:42,-9.127419,-1.2454102,2.818938,0.031382695,0.03153049,-4.512458E-4,9.633651661350953,0.04448874969650916,fall
23/10/2020, 16:00:42,-9.125025,-1.2454102,2.8955786,0.031382695,0.03153049,-4.512458E-4,9.654092378678625,0.04448874969650916,fall
23/10/2020, 16:00:42,-9.125025,-1.2454102,2.8955786,0.037491348,0.04741298,0.0019922145,9.654092378678625,0.06047777089052078,fall
23/10/2020, 16:00:42,-9.182506,-1.1735597,2.7686427,0.037491348,0.04741298,0.0019922145,9.66235135581828,0.06047777089052078,fall
23/10/2020, 16:00:42,-9.182506,-1.1735597,2.7686427,0.032604426,0.05596509,-0.0016729758,9.66235135581828,0.06479150069054543,fall
23/10/2020, 16:00:42,-9.163345,-1.2621753,2.8907888,0.032604426,0.05596509,-0.0016729758,9.691060011935846,0.06479150069054543,fall
23/10/2020, 16:00:42,-9.163345,-1.2621753,2.8907888,0.031382695,0.069404125,7.704842E-4,9.691060011935846,0.0761734847439677,fall
23/10/2020, 16:00:42,-9.211246,-1.2933106,2.8836036,0.031382695,0.069404125,7.704842E-4,9.738319481407451,0.0761734847439677,fall
23/10/2020, 16:00:42,-9.211246,-1.2933106,2.8836036,0.027717505,0.08162142,0.0019922145,9.738319481407451,0.08622230415881547,fall
23/10/2020, 16:00:42,-9.196876,-1.2430152,2.7542725,0.027717505,0.08162142,0.0019922145,9.680579724003328,0.08622230415881547,fall
23/10/2020, 16:00:42,-9.196876,-1.2430152,2.7542725,0.010613285,0.07795623,0.0081008645,9.680579724003328,0.07909133665377203,fall
23/10/2020, 16:00:42,-9.208851,-1.2430152,2.6225464,0.010613285,0.07795623,0.0081008645,9.655349330106263,0.07909133665377203,fall
23/10/2020, 16:00:42,-9.208851,-1.2430152,2.6225464,-0.0064909356,0.069404125,0.012987785,9.655349330106263,0.07090661042202889,fall
23/10/2020, 16:00:42,-9.239985,-1.2597803,2.6345215,-0.0064909356,0.069404125,0.012987785,9.69046341703908,0.07090661042202889,fall
23/10/2020, 16:00:42,-9.239985,-1.2597803,2.6345215,-0.012599585,0.058408547,0.0142095145,9.69046341703908,0.06141838666316001,fall
23/10/2020, 16:00:42,-9.244776,-1.2597803,2.6273365,-0.012599585,0.058408547,0.0142095145,9.693081168794123,0.06141838666316001,fall
23/10/2020, 16:00:42,-9.244776,-1.2597803,2.6273365,-0.004047475,0.04985644,0.010544324,9.693081168794123,0.05111975508781254,fall
23/10/2020, 16:00:42,-9.196876,-1.2765454,2.6057813,-0.004047475,0.04985644,0.010544324,9.643764033477348,0.05111975508781254,fall
23/10/2020, 16:00:42,-9.196876,-1.2765454,2.6057813,0.008169825,0.041304328,0.0032139444,9.643764033477348,0.04222704058117228,fall
23/10/2020, 16:00:42,-9.220825,-1.2358302,2.6369166,0.008169825,0.041304328,0.0032139444,9.669758160796338,0.04222704058117228,fall
23/10/2020, 16:00:42,-9.220825,-1.2358302,2.6369166,0.011835015,0.033973947,-0.0016729758,9.669758160796338,0.03601521238723259,fall
23/10/2020, 16:00:42,-9.2184305,-1.1711646,2.694397,0.011835015,0.033973947,-0.0016729758,9.67527068751508,0.03601521238723259,fall
23/10/2020, 16:00:42,-9.2184305,-1.1711646,2.694397,8.394448E-4,0.026643569,-0.005338166,9.67527068751508,0.027186033790544916,fall
23/10/2020, 16:00:42,-9.208851,-1.1496094,2.6273365,8.394448E-4,0.026643569,-0.005338166,9.645072998550699,0.027186033790544916,fall
23/10/2020, 16:00:42,-9.208851,-1.1496094,2.6273365,-0.021151695,0.013204537,-0.011446816,9.645072998550699,0.027436902505010206,fall
23/10/2020, 16:00:42,-9.21364,-1.1304493,2.6369166,-0.021151695,0.013204537,-0.011446816,9.649995385295053,0.027436902505010206,fall
23/10/2020, 16:00:43,-9.108259,-1.5280225,2.794988,-0.046808027,-0.046660233,-0.009003356,9.649207012730496,0.06670254236596444,fall
23/10/2020, 16:00:43,-9.108259,-1.5280225,2.794988,-0.033368994,-0.044216774,-0.013890276,9.649207012730496,0.05711000463295941,fall
23/10/2020, 16:00:43,-9.16574,-1.5615528,2.8596535,-0.033368994,-0.044216774,-0.013890276,9.72763357681682,0.05711000463295941,fall
23/10/2020, 16:00:43,-9.16574,-1.5615528,2.8596535,-0.0064909356,-0.036886394,-0.018777195,9.72763357681682,0.04189655563916955,fall
23/10/2020, 16:00:43,-9.096285,-1.4202466,2.8093581,-0.0064909356,-0.036886394,-0.018777195,9.6255904662332,0.04189655563916955,fall
23/10/2020, 16:00:43,-9.096285,-1.4202466,2.8093581,-0.004047475,-0.029556014,-0.027329307,9.6255904662332,0.04045776833644726,fall
23/10/2020, 16:00:43,-9.105865,-1.4944923,2.8428884,-0.004047475,-0.029556014,-0.027329307,9.655686933474186,0.04045776833644726,fall
23/10/2020, 16:00:43,-9.105865,-1.4944923,2.8428884,-0.0028257454,-0.028334282,-0.03221623,9.655686933474186,0.042996532118884864,fall
23/10/2020, 16:00:43,-9.096285,-1.3052857,2.9099488,-0.0028257454,-0.028334282,-0.03221623,9.639189347490035,0.042996532118884864,fall
23/10/2020, 16:00:43,-9.096285,-1.3052857,2.9099488,-0.017486505,-0.022225633,-0.037103146,9.639189347490035,0.046651903550498475,fall
23/10/2020, 16:00:43,-9.19927,-1.5136524,2.8644435,-0.017486505,-0.022225633,-0.037103146,9.753089439831395,0.046651903550498475,fall
23/10/2020, 16:00:43,-9.19927,-1.5136524,2.8644435,-0.027260344,-0.014895253,-0.030994497,9.753089439831395,0.04388227203005487,fall
23/10/2020, 16:00:43,-9.041199,-1.583108,2.8812087,-0.027260344,-0.014895253,-0.030994497,9.620336199530822,0.04388227203005487,fall
23/10/2020, 16:00:43,-9.041199,-1.583108,2.8812087,-0.018708237,-0.008786602,-0.028551036,9.620336199530822,0.03524718672519633,fall
23/10/2020, 16:00:43,-9.144185,-1.7818946,2.9482691,-0.018708237,-0.008786602,-0.028551036,9.771568943656035,0.03524718672519633,fall
23/10/2020, 16:00:43,-9.144185,-1.7818946,2.9482691,0.003282905,0.010761078,-0.006559896,9.771568943656035,0.013023459920888793,fall
23/10/2020, 16:00:43,-9.187295,-1.6573536,2.804568,0.003282905,0.010761078,-0.006559896,9.7477593183811,0.013023459920888793,fall
23/10/2020, 16:00:43,-9.187295,-1.6573536,2.804568,-3.8228463E-4,0.008317618,0.0019922145,9.7477593183811,0.008561414850082846,fall
23/10/2020, 16:00:43,-9.060359,-1.6693287,2.692002,-3.8228463E-4,0.008317618,0.0019922145,9.598105989421411,0.008561414850082846,fall
23/10/2020, 16:00:43,-9.060359,-1.6693287,2.692002,0.0020611752,0.004652428,0.019096434,9.598105989421411,0.019762776251245513,fall
23/10/2020, 16:00:43,-9.139395,-1.7914747,2.8979738,0.0020611752,0.004652428,0.019096434,9.753777226683303,0.019762776251245513,fall
23/10/2020, 16:00:43,-9.139395,-1.7914747,2.8979738,0.025274046,0.020534918,0.031313736,9.753777226683303,0.04517754194904529,fall
23/10/2020, 16:00:43,-9.086704,-1.5376027,2.804568,0.025274046,0.020534918,0.031313736,9.633172795695051,0.04517754194904529,fall
23/10/2020, 16:00:43,-9.086704,-1.5376027,2.804568,0.028939236,0.022978378,0.034978926,9.633172795695051,0.05088232041839694,fall
23/10/2020, 16:00:43,-9.13221,-1.5112574,2.804568,0.028939236,0.022978378,0.034978926,9.671957213806134,0.05088232041839694,fall
23/10/2020, 16:00:43,-9.13221,-1.5112574,2.804568,0.021608856,0.020534918,0.028870275,9.671957213806134,0.041498412950298914,fall
23/10/2020, 16:00:43,-9.2256155,-1.3507911,2.794988,0.021608856,0.020534918,0.028870275,9.733887991060325,0.041498412950298914,fall
23/10/2020, 16:00:43,-9.2256155,-1.3507911,2.794988,0.009391556,0.009539349,0.021539895,9.733887991060325,0.025360748531309985,fall
23/10/2020, 16:00:43,-9.11784,-1.3891114,2.802173,0.009391556,0.009539349,0.021539895,9.639336403387702,0.025360748531309985,fall
23/10/2020, 16:00:43,-9.11784,-1.3891114,2.802173,0.010613285,0.013204537,0.0056574047,9.639336403387702,0.01786079091903159,fall
23/10/2020, 16:00:44,-9.311836,-1.1903248,1.9591261,0.0680346,-0.016116982,-0.24113207,9.589856225933584,0.25106400888916824,fall
23/10/2020, 16:00:44,-9.484278,-1.2597803,1.6549586,0.0680346,-0.016116982,-0.24113207,9.709657992395194,0.25106400888916824,fall
23/10/2020, 16:00:44,-9.484278,-1.2597803,1.6549586,0.12056898,-0.052768882,-0.31321415,9.709657992395194,0.3397418731054842,fall
23/10/2020, 16:00:44,-9.285491,-0.7496411,1.9974464,0.12056898,-0.052768882,-0.31321415,9.52743915860835,0.3397418731054842,fall
23/10/2020, 16:00:44,-9.285491,-0.7496411,1.9974464,0.20731182,-0.07964694,-0.4048439,9.52743915860835,0.4617579535349234,fall
23/10/2020, 16:00:44,-9.431587,-0.8167017,1.8010547,0.20731182,-0.07964694,-0.4048439,9.63668185881452,0.4617579535349234,fall
23/10/2020, 16:00:44,-9.431587,-0.8167017,1.8010547,0.23418988,-0.11507711,-0.50136054,9.63668185881452,0.5651991053943278,fall
23/10/2020, 16:00:44,-9.5561285,-0.977168,1.9782863,0.23418988,-0.11507711,-0.50136054,9.807551470297339,0.5651991053943278,fall
23/10/2020, 16:00:44,-9.5561285,-0.977168,1.9782863,0.2549593,-0.14073344,-0.57832956,9.807551470297339,0.6475146490085116,fall
23/10/2020, 16:00:44,-9.302257,-1.0633887,1.8824854,0.2549593,-0.14073344,-0.57832956,9.550210696032721,0.6475146490085116,fall
23/10/2020, 16:00:44,-9.302257,-1.0633887,1.8824854,0.30505022,-0.17616361,-0.6504116,9.550210696032721,0.7396786566024088,fall
23/10/2020, 16:00:44,-9.4435625,-1.5423926,1.8848804,0.30505022,-0.17616361,-0.6504116,9.75257002100425,0.7396786566024088,fall
23/10/2020, 16:00:44,-9.4435625,-1.5423926,1.8848804,0.35636288,-0.19815475,-0.6809549,9.75257002100425,0.7936997829815823,fall
23/10/2020, 16:00:44,-9.259146,-1.2070899,2.0261867,0.35636288,-0.19815475,-0.6809549,9.554803941704504,0.7936997829815823,fall
23/10/2020, 16:00:44,-9.259146,-1.2070899,2.0261867,0.37957576,-0.2519109,-0.69683737,9.554803941704504,0.8325377890284742,fall
23/10/2020, 16:00:44,-9.6758795,-1.6621436,1.22625,0.37957576,-0.2519109,-0.69683737,9.893889739635604,0.8325377890284742,fall
23/10/2020, 16:00:44,-9.6758795,-1.6621436,1.22625,0.3245979,-0.3386537,-0.67973316,9.893889739635604,0.8258857645680391,fall
23/10/2020, 16:00:44,-9.683064,-2.3782544,1.5423926,0.3245979,-0.3386537,-0.67973316,10.089440340027592,0.8258857645680391,fall
23/10/2020, 16:00:44,-9.683064,-2.3782544,1.5423926,0.2586245,-0.41195753,-0.60642934,10.089440340027592,0.7774009131617002,fall
23/10/2020, 16:00:44,-9.606423,-2.7207422,1.7627344,0.2586245,-0.41195753,-0.60642934,10.13869029938866,0.7774009131617002,fall
23/10/2020, 16:00:44,-9.606423,-2.7207422,1.7627344,0.25251582,-0.45349634,-0.52579516,10.13869029938866,0.7388394415539801,fall
23/10/2020, 16:00:44,-9.544153,-2.6201515,1.7268091,0.25251582,-0.45349634,-0.52579516,10.046786768376926,0.7388394415539801,fall
23/10/2020, 16:00:44,-9.544153,-2.6201515,1.7268091,0.26106796,-0.47915268,-0.4500479,10.046786768376926,0.7073096137572825,fall
23/10/2020, 16:00:44,-9.297466,-2.3614893,2.823728,0.26106796,-0.47915268,-0.4500479,9.999647552911624,0.7073096137572825,fall
23/10/2020, 16:00:44,-9.297466,-2.3614893,2.823728,0.30505022,-0.4302835,-0.36941373,9.999647552911624,0.6439456690884905,fall
23/10/2020, 16:00:44,-9.242381,-2.1076174,2.4069948,0.30505022,-0.4302835,-0.36941373,9.780454150826122,0.6439456690884905,fall
23/10/2020, 16:00:44,-9.242381,-2.1076174,2.4069948,0.3160458,-0.45349634,-0.3193228,9.780454150826122,0.6383658173549048,fall
23/10/2020, 16:00:44,-9.654325,-2.1315675,2.1028273,0.3160458,-0.45349634,-0.3193228,10.10798915574549,0.6383658173549048,fall
23/10/2020, 16:00:44,-9.654325,-2.1315675,2.1028273,0.25251582,-0.4925917,-0.30588377,10.10798915574549,0.6324363289606689,fall
23/10/2020, 16:00:44,-9.613608,-2.1100123,2.1243825,0.25251582,-0.4925917,-0.30588377,10.069092241601439,0.6324363289606689,fall
23/10/2020, 16:00:45,-5.968389,-4.737349,4.3445654,-0.026038613,0.2770982,-0.39140487,8.771510244514179,0.48026992063607155,fall
23/10/2020, 16:00:45,-6.205496,-4.3637257,4.5457473,-0.026038613,0.2770982,-0.39140487,8.843873503170759,0.48026992063607155,fall
23/10/2020, 16:00:45,-6.205496,-4.3637257,4.5457473,-0.12988566,0.31252837,-0.41583946,8.843873503170759,0.536159236499178,fall
23/10/2020, 16:00:45,-6.253396,-4.0667434,4.4379716,-0.12988566,0.31252837,-0.41583946,8.67980158073504,0.536159236499178,fall
23/10/2020, 16:00:45,-6.253396,-4.0667434,4.4379716,-0.23617618,0.32352394,-0.45737827,8.67980158073504,0.607981748189508,fall
23/10/2020, 16:00:45,-6.2605815,-3.544629,4.3421707,-0.23617618,0.32352394,-0.45737827,8.403197164859455,0.607981748189508,fall
23/10/2020, 16:00:45,-6.2605815,-3.544629,4.3421707,-0.2850454,0.3210805,-0.48914325,8.403197164859455,0.6508492024215647,fall
23/10/2020, 16:00:45,-6.0426345,-3.1422658,4.2032595,-0.2850454,0.3210805,-0.48914325,8.003415273380508,0.6508492024215647,fall
23/10/2020, 16:00:45,-6.0426345,-3.1422658,4.2032595,-0.24717176,0.32474568,-0.5025823,8.003415273380508,0.6474122477576528,fall
23/10/2020, 16:00:45,-5.6929617,-2.9578493,3.7146754,-0.24717176,0.32474568,-0.5025823,7.413332491486072,0.6474122477576528,fall
23/10/2020, 16:00:45,-5.6929617,-2.9578493,3.7146754,-0.17020275,0.37361488,-0.517243,7.413332491486072,0.6603767117594032,fall
23/10/2020, 16:00:45,-5.3289185,-2.8261232,3.422483,-0.17020275,0.37361488,-0.517243,6.935252997391693,0.6603767117594032,fall
23/10/2020, 16:00:45,-5.3289185,-2.8261232,3.422483,-0.055360135,0.4395883,-0.55389494,6.935252997391693,0.7092969946461488,fall
23/10/2020, 16:00:45,-5.4031644,-2.4620802,3.046465,-0.055360135,0.4395883,-0.55389494,6.673602700844698,0.7092969946461488,fall
23/10/2020, 16:00:45,-5.4031644,-2.4620802,3.046465,0.13767321,0.5202225,-0.57099915,6.673602700844698,0.7846179783900493,fall
23/10/2020, 16:00:45,-5.7791824,-1.8872755,2.3566992,0.13767321,0.5202225,-0.57099915,6.520336610256164,0.7846179783900493,fall
23/10/2020, 16:00:45,-5.7791824,-1.8872755,2.3566992,0.3612498,0.6436172,-0.5563384,6.520336610256164,0.9242602371138863,fall
23/10/2020, 16:00:45,-6.344407,-1.2046949,1.5088624,0.3612498,0.6436172,-0.5563384,6.631700883661568,0.9242602371138863,fall
23/10/2020, 16:00:45,-6.344407,-1.2046949,1.5088624,0.49808356,0.80732906,-0.503804,6.631700883661568,1.0740977339117574,fall
23/10/2020, 16:00:45,-6.6677346,-0.7448511,1.7459693,0.49808356,0.80732906,-0.503804,6.932668819623821,1.0740977339117574,fall
23/10/2020, 16:00:45,-6.6677346,-0.7448511,1.7459693,0.6007089,0.87330246,-0.43172196,6.932668819623821,1.1445052284027675,fall
23/10/2020, 16:00:45,-7.0054326,-1.3555812,2.3854396,0.6007089,0.87330246,-0.43172196,7.523563552983402,1.1445052284027675,fall
23/10/2020, 16:00:45,-7.0054326,-1.3555812,2.3854396,0.6630171,0.8794111,-0.38773966,7.523563552983402,1.1676033551423306,fall
23/10/2020, 16:00:45,-6.8976564,-2.2225783,2.6105714,0.6630171,0.8794111,-0.38773966,7.702765838970663,1.1676033551423306,fall
23/10/2020, 16:00:45,-6.8976564,-2.2225783,2.6105714,0.6666823,0.92950207,-0.37063545,7.702765838970663,1.202418407969163,fall
23/10/2020, 16:00:45,-7.4964113,-2.5339308,2.7830129,0.6666823,0.92950207,-0.37063545,8.388214860135513,1.202418407969163,fall
23/10/2020, 16:00:45,-7.4964113,-2.5339308,2.7830129,0.5982654,0.98692334,-0.37063545,8.388214860135513,1.2121509023060584,fall
23/10/2020, 16:00:45,-8.636441,-1.8154249,2.069297,0.5982654,0.98692334,-0.37063545,9.064539434264264,1.2121509023060584,fall
23/10/2020, 16:00:45,-8.636441,-1.8154249,2.069297,0.487088,1.0357926,-0.3352053,9.064539434264264,1.192679163382647,fall
23/10/2020, 16:00:45,-9.831555,-0.48379397,0.9388477,0.487088,1.0357926,-0.3352053,9.88812280347462,1.192679163382647,fall
23/10/2020, 16:00:46,-9.6686945,-0.34009278,1.465752,-0.16653757,0.2270073,0.33185932,9.785077684904442,0.43519844230402405,fall
23/10/2020, 16:00:46,-9.6686945,-0.34009278,1.465752,-0.14088124,0.22822903,0.28787702,9.785077684904442,0.39345799643883844,fall
23/10/2020, 16:00:46,-8.835227,-1.0562036,0.9867481,-0.14088124,0.22822903,0.28787702,8.952679723349368,0.39345799643883844,fall
23/10/2020, 16:00:46,-8.835227,-1.0562036,0.9867481,-0.045586295,0.22212037,0.30131605,8.952679723349368,0.37710334746899865,fall
23/10/2020, 16:00:46,-9.910591,-1.585503,0.8382569,-0.045586295,0.22212037,0.30131605,10.071559501184737,0.37710334746899865,fall
23/10/2020, 16:00:46,-9.910591,-1.585503,0.8382569,0.015500206,0.16836426,0.31475508,10.071559501184737,0.3572919548589888,fall
23/10/2020, 16:00:46,-9.685459,-0.85741705,0.6610254,0.015500206,0.16836426,0.31475508,9.745780485536699,0.3572919548589888,fall
23/10/2020, 16:00:46,-9.685459,-0.85741705,0.6610254,0.041156538,0.110942945,0.30375952,9.745780485536699,0.32599392747764244,fall
23/10/2020, 16:00:46,-9.302257,-0.44307864,0.9987232,0.041156538,0.110942945,0.30375952,9.366202233796052,0.32599392747764244,fall
23/10/2020, 16:00:46,-9.302257,-0.44307864,0.9987232,0.013056746,0.084064886,0.27565974,9.366202233796052,0.288488606195164,fall
23/10/2020, 16:00:46,-9.673484,-0.75203615,0.6514453,0.013056746,0.084064886,0.27565974,9.724516911540185,0.288488606195164,fall
23/10/2020, 16:00:46,-9.673484,-0.75203615,0.6514453,-0.030925535,0.03519568,0.27199453,9.724516911540185,0.2760002707526237,fall
23/10/2020, 16:00:46,-9.951306,-0.41912845,0.7664063,-0.030925535,0.03519568,0.27199453,9.989571822788847,0.2760002707526237,fall
23/10/2020, 16:00:46,-9.951306,-0.41912845,0.7664063,-0.09812069,-0.010008331,0.23900783,9.989571822788847,0.25855865771918074,fall
23/10/2020, 16:00:46,-9.7142,0.098195806,0.6490503,-0.09812069,-0.010008331,0.23900783,9.736354077766089,0.25855865771918074,fall
23/10/2020, 16:00:46,-9.7142,0.098195806,0.6490503,-0.21051985,-0.053990614,0.1766996,9.736354077766089,0.2801005892819739,fall
23/10/2020, 16:00:46,-9.469908,0.1341211,0.51013917,-0.21051985,-0.053990614,0.1766996,9.484586624387072,0.2801005892819739,fall
23/10/2020, 16:00:46,-9.469908,0.1341211,0.51013917,-0.30459306,-0.106525004,0.11561311,9.484586624387072,0.3427694528070356,fall
23/10/2020, 16:00:46,-9.5489435,-0.2682422,0.47900394,-0.30459306,-0.106525004,0.11561311,9.564712279751188,0.3427694528070356,fall
23/10/2020, 16:00:46,-9.5489435,-0.2682422,0.47900394,-0.3876707,-0.15783766,0.07163083,9.564712279751188,0.42465547274976323,fall
23/10/2020, 16:00:46,-9.625584,-0.4143384,0.51971924,-0.3876707,-0.15783766,0.07163083,9.648504805786358,0.42465547274976323,fall
23/10/2020, 16:00:46,-9.625584,-0.4143384,0.51971924,-0.5049568,-0.19693302,0.048417956,9.648504805786358,0.5441583067828906,fall
23/10/2020, 16:00:46,-9.611214,-0.23950197,0.5460645,-0.5049568,-0.19693302,0.048417956,9.629692420197536,0.5441583067828906,fall
23/10/2020, 16:00:46,-9.611214,-0.23950197,0.5460645,-0.65522957,-0.21403724,0.039865844,9.629692420197536,0.6904542076352403,fall
23/10/2020, 16:00:46,-9.481883,-0.3305127,0.7161109,-0.65522957,-0.21403724,0.039865844,9.514628715900477,0.6904542076352403,fall
23/10/2020, 16:00:46,-9.481883,-0.3305127,0.7161109,-0.7444159,-0.20059821,0.034978926,9.514628715900477,0.7717630260964883,fall
23/10/2020, 16:00:46,-9.079519,-0.3544629,1.6501685,-0.7444159,-0.20059821,0.034978926,9.235062011361666,0.7717630260964883,fall
23/10/2020, 16:00:46,-9.079519,-0.3544629,1.6501685,-0.6246863,-0.1187423,0.023983356,9.235062011361666,0.6363237462136154,fall
23/10/2020, 16:00:46,-9.043594,-0.45505372,3.7697608,-0.6246863,-0.1187423,0.023983356,9.808403013952404,0.6363237462136154,fall
23/10/2020, 16:00:46,-9.043594,-0.45505372,3.7697608,-0.41088358,0.1011691,0.023983356,9.808403013952404,0.4238345211120051,fall
23/10/2020, 16:00:47,-9.72378,-0.22513184,0.4239185,-0.08468166,-0.055212345,-0.098189645,9.735619264362247,0.14092761566602738,fall
23/10/2020, 16:00:47,-9.72378,0.047900394,0.4742139,-0.08468166,-0.055212345,-0.098189645,9.735453995676128,0.14092761566602738,fall
23/10/2020, 16:00:47,-9.72378,0.047900394,0.4742139,-0.10178588,-0.06254272,-0.09452446,9.735453995676128,0.15233788510821428,fall
23/10/2020, 16:00:47,-9.642349,-0.13651612,0.53169435,-0.10178588,-0.06254272,-0.09452446,9.657962231437672,0.15233788510821428,fall
23/10/2020, 16:00:47,-9.642349,-0.13651612,0.53169435,-0.11155972,-0.06376445,-0.08108543,9.657962231437672,0.15194184103732586,fall
23/10/2020, 16:00:47,-9.651929,-0.40954837,0.6514453,-0.11155972,-0.06376445,-0.08108543,9.682553506637259,0.15194184103732586,fall
23/10/2020, 16:00:47,-9.651929,-0.40954837,0.6514453,-0.08712512,-0.053990614,-0.071311586,9.682553506637259,0.12486438877737666,fall
23/10/2020, 16:00:47,-9.644744,-0.25147706,0.5843848,-0.08712512,-0.053990614,-0.071311586,9.665703884179658,0.12486438877737666,fall
23/10/2020, 16:00:47,-9.644744,-0.25147706,0.5843848,-0.06391225,-0.050325423,-0.070089854,9.665703884179658,0.10737789175240986,fall
23/10/2020, 16:00:47,-9.582474,0.20118165,0.5508545,-0.06391225,-0.050325423,-0.070089854,9.600401970963313,0.10737789175240986,fall
23/10/2020, 16:00:47,-9.582474,0.20118165,0.5508545,-0.0700209,-0.051547155,-0.083528884,9.600401970963313,0.1205699378337597,fall
23/10/2020, 16:00:47,-9.6686945,0.4023633,0.50534916,-0.0700209,-0.051547155,-0.083528884,9.69024908132739,0.1205699378337597,fall
23/10/2020, 16:00:47,-9.6686945,0.4023633,0.50534916,-0.07857301,-0.051547155,-0.09452446,9.69024908132739,0.13328803536713435,fall
23/10/2020, 16:00:47,-9.649534,0.22513184,0.6945557,-0.07857301,-0.051547155,-0.09452446,9.677117480620002,0.13328803536713435,fall
23/10/2020, 16:00:47,-9.649534,0.22513184,0.6945557,-0.0700209,-0.03810812,-0.10063311,9.677117480620002,0.12838293306919044,fall
23/10/2020, 16:00:47,-9.678274,-0.09340577,0.7232959,-0.0700209,-0.03810812,-0.10063311,9.70571338173812,0.12838293306919044,fall
23/10/2020, 16:00:47,-9.678274,-0.09340577,0.7232959,-0.06513398,-0.023447363,-0.090859264,9.70571338173812,0.11422618014700435,fall
23/10/2020, 16:00:47,-9.616004,-0.19160157,0.76880133,-0.06513398,-0.023447363,-0.090859264,9.648590539021605,0.11422618014700435,fall
23/10/2020, 16:00:47,-9.616004,-0.19160157,0.76880133,-0.073686086,-0.011230063,-0.077420235,9.648590539021605,0.10746928055579244,fall
23/10/2020, 16:00:47,-9.623189,-0.21315674,0.5724097,-0.073686086,-0.011230063,-0.077420235,9.642554363359732,0.10746928055579244,fall
23/10/2020, 16:00:47,-9.623189,-0.21315674,0.5724097,-0.08712512,0.0022089682,-0.061537746,9.642554363359732,0.10668908446412477,fall
23/10/2020, 16:00:47,-9.704619,-0.44307864,0.5508545,-0.08712512,0.0022089682,-0.061537746,9.730333869440575,0.10668908446412477,fall
23/10/2020, 16:00:47,-9.704619,-0.44307864,0.5508545,-0.08712512,0.0058741583,-0.038324878,9.730333869440575,0.09536293283940026,fall
23/10/2020, 16:00:47,-9.632769,-0.26345217,0.5245093,-0.08712512,0.0058741583,-0.038324878,9.650634619657575,0.09536293283940026,fall
23/10/2020, 16:00:47,-9.632769,-0.26345217,0.5245093,-0.08345993,0.0034306985,-0.034659687,9.650634619657575,0.09043574134359754,fall
23/10/2020, 16:00:47,-9.64714,-0.06466553,0.51732427,-0.08345993,0.0034306985,-0.034659687,9.661216668367974,0.09043574134359754,fall
23/10/2020, 16:00:47,-9.64714,-0.06466553,0.51732427,-0.07979474,-0.0051214118,-0.039546605,9.661216668367974,0.08920405662681313,fall
23/10/2020, 16:00:47,-9.608819,0.12933107,0.48618898,-0.07979474,-0.0051214118,-0.039546605,9.621980511999734,0.08920405662681313,fall
23/10/2020, 16:00:47,-9.608819,0.12933107,0.48618898,-0.073686086,-0.014895253,-0.051763907,9.621980511999734,0.09127436579496274,fall
23/10/2020, 16:00:47,-9.501043,0.31135255,0.7711963,-0.073686086,-0.014895253,-0.051763907,9.537374288338794,0.09127436579496274,fall
23/10/2020, 16:00:48,-9.64714,0.12454102,0.5508545,-0.038255915,-0.0014562218,-0.11162868,9.663656276670618,0.11801100852787667,fall
23/10/2020, 16:00:48,-9.627979,0.25147706,0.6346802,-0.038255915,-0.0014562218,-0.11162868,9.652152333674463,0.11801100852787667,fall
23/10/2020, 16:00:48,-9.627979,0.25147706,0.6346802,-0.040699374,-0.0038996818,-0.11407214,9.652152333674463,0.12117796375993432,fall
23/10/2020, 16:00:48,-9.687855,-0.0071850587,0.6442603,-0.040699374,-0.0038996818,-0.11407214,9.709256043916827,0.12117796375993432,fall
23/10/2020, 16:00:48,-9.687855,-0.0071850587,0.6442603,-0.028482076,-0.006343142,-0.106741756,9.709256043916827,0.11065833276205334,fall
23/10/2020, 16:00:48,-9.663904,0.05269043,0.51492923,-0.028482076,-0.006343142,-0.106741756,9.677756588865735,0.11065833276205334,fall
23/10/2020, 16:00:48,-9.663904,0.05269043,0.51492923,-0.015043045,-0.012451792,-0.09696792,9.677756588865735,0.09891470052240134,fall
23/10/2020, 16:00:48,-9.627979,0.30416748,0.852627,-0.015043045,-0.012451792,-0.09696792,9.670443402959002,0.09891470052240134,fall
23/10/2020, 16:00:48,-9.627979,0.30416748,0.852627,-0.018708237,-0.0014562218,-0.09696792,9.670443402959002,0.09876687872338391,fall
23/10/2020, 16:00:48,-9.692644,-0.2203418,0.728086,-0.018708237,-0.0014562218,-0.09696792,9.72244875265163,0.09876687872338391,fall
23/10/2020, 16:00:48,-9.692644,-0.2203418,0.728086,-0.011377855,0.0070958887,-0.07497678,9.72244875265163,0.07616642759823,fall
23/10/2020, 16:00:48,-9.699829,-0.22752686,0.67539555,-0.011377855,0.0070958887,-0.07497678,9.72597615756675,0.07616642759823,fall
23/10/2020, 16:00:48,-9.699829,-0.22752686,0.67539555,-0.008934394,0.008317618,-0.059094287,9.72597615756675,0.06034186754089014,fall
23/10/2020, 16:00:48,-9.632769,0.05748047,0.6466553,-0.008934394,0.008317618,-0.059094287,9.654620583260161,0.06034186754089014,fall
23/10/2020, 16:00:48,-9.632769,0.05748047,0.6466553,-0.005269205,0.008317618,-0.05298564,9.654620583260161,0.05389271900871194,fall
23/10/2020, 16:00:48,-9.651929,0.059875492,0.60594,-0.005269205,0.008317618,-0.05298564,9.671115750629859,0.05389271900871194,fall
23/10/2020, 16:00:48,-9.651929,0.059875492,0.60594,0.0020611752,0.0058741583,-0.054207366,9.671115750629859,0.054563657353125274,fall
23/10/2020, 16:00:48,-9.620794,0.27542725,0.5748047,0.0020611752,0.0058741583,-0.054207366,9.641884853704576,0.054563657353125274,fall
23/10/2020, 16:00:48,-9.620794,0.27542725,0.5748047,0.0057263654,0.0022089682,-0.06642467,9.641884853704576,0.06670762548410664,fall
23/10/2020, 16:00:48,-9.596844,0.244292,0.7185059,0.0057263654,0.0022089682,-0.06642467,9.626803141018463,0.06670762548410664,fall
23/10/2020, 16:00:48,-9.596844,0.244292,0.7185059,0.0069480953,0.0058741583,-0.07497678,9.626803141018463,0.07552681134275821,fall
23/10/2020, 16:00:48,-9.666299,0.20597169,0.68737066,0.0069480953,0.0058741583,-0.07497678,9.69289618894849,0.07552681134275821,fall
23/10/2020, 16:00:48,-9.666299,0.20597169,0.68737066,0.0020611752,0.009539349,-0.078641966,9.69289618894849,0.07924522974032981,fall
23/10/2020, 16:00:48,-9.608819,0.19160157,0.6825806,0.0020611752,0.009539349,-0.078641966,9.6349379941739,0.07924522974032981,fall
23/10/2020, 16:00:48,-9.608819,0.19160157,0.6825806,0.003282905,0.014426269,-0.0798637,9.6349379941739,0.08122256359855866,fall
23/10/2020, 16:00:48,-9.644744,-0.038320314,0.7376661,0.003282905,0.014426269,-0.0798637,9.67298841869768,0.08122256359855866,fall
23/10/2020, 16:00:48,-9.644744,-0.038320314,0.7376661,8.394448E-4,0.018091459,-0.07375505,9.67298841869768,0.07594611699974874,fall
23/10/2020, 16:00:48,-9.671089,-0.028740235,0.58677983,8.394448E-4,0.018091459,-0.07375505,9.68891646950881,0.07594611699974874,fall
23/10/2020, 16:00:48,-9.671089,-0.028740235,0.58677983,-0.004047475,0.016869728,-0.06520294,9.68891646950881,0.0674714212928043,fall
23/10/2020, 16:00:48,-9.611214,0.102985844,0.6610254,-0.004047475,0.016869728,-0.06520294,9.634468804823461,0.0674714212928043,fall
23/10/2020, 16:00:49,-9.486672,1.1448194,0.39278322,-0.0028257454,-0.025890823,0.017874705,9.563568545460972,0.031588362465440945,fall
23/10/2020, 16:00:49,-9.625584,0.86939216,0.3305127,-0.0028257454,-0.025890823,0.017874705,9.670415810409466,0.031588362465440945,fall
23/10/2020, 16:00:49,-9.625584,0.86939216,0.3305127,-0.0064909356,-0.03810812,0.0056574047,9.670415810409466,0.03906875227413914,fall
23/10/2020, 16:00:49,-9.601634,0.90052736,0.4239185,-0.0064909356,-0.03810812,0.0056574047,9.653084085727706,0.03906875227413914,fall
23/10/2020, 16:00:49,-9.601634,0.90052736,0.4239185,-0.019929964,-0.04177331,-0.0016729758,9.653084085727706,0.04631427312622191,fall
23/10/2020, 16:00:49,-9.5633135,0.79993653,0.51971924,-0.019929964,-0.04177331,-0.0016729758,9.610773712106088,0.04631427312622191,fall
23/10/2020, 16:00:49,-9.5633135,0.79993653,0.51971924,-0.023595154,-0.03810812,-0.0028947059,9.610773712106088,0.04491480334960128,fall
23/10/2020, 16:00:49,-9.623189,0.7209009,0.5125342,-0.023595154,-0.03810812,-0.0028947059,9.663754726042315,0.04491480334960128,fall
23/10/2020, 16:00:49,-9.623189,0.7209009,0.5125342,-0.026038613,-0.031999473,0.0019922145,9.663754726042315,0.04130308144013721,fall
23/10/2020, 16:00:49,-9.5633135,0.6514453,0.57959473,-0.026038613,-0.031999473,0.0019922145,9.602982654698256,0.04130308144013721,fall
23/10/2020, 16:00:49,-9.5633135,0.6514453,0.57959473,-0.019929964,-0.022225633,0.0044356743,9.602982654698256,0.03018041499372272,fall
23/10/2020, 16:00:49,-9.613608,0.732876,0.49337405,-0.019929964,-0.022225633,0.0044356743,9.654117820567171,0.03018041499372272,fall
23/10/2020, 16:00:49,-9.613608,0.732876,0.49337405,-0.015043045,-0.019782173,0.0032139444,9.654117820567171,0.0250590702671669,fall
23/10/2020, 16:00:49,-9.565708,0.8933423,0.58677983,-0.015043045,-0.019782173,0.0032139444,9.62523473355345,0.0250590702671669,fall
23/10/2020, 16:00:49,-9.565708,0.8933423,0.58677983,-0.011377855,-0.008786602,-0.004116436,9.62523473355345,0.014953427973111822,fall
23/10/2020, 16:00:49,-9.613608,0.8909473,0.5939649,-0.011377855,-0.008786602,-0.004116436,9.673057791481519,0.014953427973111822,fall
23/10/2020, 16:00:49,-9.613608,0.8909473,0.5939649,-0.007712665,-0.002677952,-0.015112006,9.673057791481519,0.0171764186237877,fall
23/10/2020, 16:00:49,-9.616004,0.85741705,0.50774413,-0.007712665,-0.002677952,-0.015112006,9.667497134037964,0.0171764186237877,fall
23/10/2020, 16:00:49,-9.616004,0.85741705,0.50774413,-0.023595154,-0.0051214118,-0.026107576,9.667497134037964,0.035560732210875565,fall
23/10/2020, 16:00:49,-9.546548,0.9867481,0.47900394,-0.023595154,-0.0051214118,-0.026107576,9.609354462855224,0.035560732210875565,fall
23/10/2020, 16:00:49,-9.546548,0.9867481,0.47900394,-0.05902533,-0.011230063,-0.029772766,9.609354462855224,0.06705610573672569,fall
23/10/2020, 16:00:49,-9.608819,0.87418216,0.4382886,-0.05902533,-0.011230063,-0.029772766,9.658451950459353,0.06705610573672569,fall
23/10/2020, 16:00:49,-9.608819,0.87418216,0.4382886,-0.07857301,-0.016116982,-0.035881415,9.658451950459353,0.08786894274018395,fall
23/10/2020, 16:00:49,-9.592053,0.72569096,0.45984375,-0.07857301,-0.016116982,-0.035881415,9.630450266465035,0.08786894274018395,fall
23/10/2020, 16:00:49,-9.592053,0.72569096,0.45984375,-0.08712512,-0.018560443,-0.035881415,9.630450266465035,0.09603516527306424,fall
23/10/2020, 16:00:49,-9.663904,0.6227051,0.42870852,-0.08712512,-0.018560443,-0.035881415,9.693430602055896,0.09603516527306424,fall
23/10/2020, 16:00:49,-9.663904,0.6227051,0.42870852,-0.07735128,-0.023447363,-0.033437956,9.693430602055896,0.08747054462345252,fall
23/10/2020, 16:00:49,-9.594449,0.7185059,0.4023633,-0.07735128,-0.023447363,-0.033437956,9.629724784490778,0.08747054462345252,fall
23/10/2020, 16:00:49,-9.594449,0.7185059,0.4023633,-0.06391225,-0.030777743,-0.035881415,9.629724784490778,0.0794954157521698,fall
23/10/2020, 16:00:49,-9.601634,0.90771246,0.41194338,-0.06391225,-0.030777743,-0.035881415,9.653238586888161,0.0794954157521698,fall
23/10/2020, 16:00:50,-9.625584,0.4047583,0.6562354,-0.037034184,-0.016116982,-0.026107576,9.656414177053945,0.04809255031578723,fall
23/10/2020, 16:00:50,-9.630374,0.49576905,0.57001466,-0.037034184,-0.016116982,-0.026107576,9.65995891145303,0.04809255031578723,fall
23/10/2020, 16:00:50,-9.630374,0.49576905,0.57001466,-0.045586295,-0.018560443,-0.029772766,9.65995891145303,0.05752406426123171,fall
23/10/2020, 16:00:50,-9.635164,0.60594,0.5388794,-0.045586295,-0.018560443,-0.029772766,9.669226680572026,0.05752406426123171,fall
23/10/2020, 16:00:50,-9.635164,0.60594,0.5388794,-0.06513398,-0.024669092,-0.034659687,9.669226680572026,0.07779648818579363,fall
23/10/2020, 16:00:50,-9.584868,0.6227051,0.5508545,-0.06513398,-0.024669092,-0.034659687,9.62085781882483,0.07779648818579363,fall
23/10/2020, 16:00:50,-9.584868,0.6227051,0.5508545,-0.08345993,-0.029556014,-0.043211795,9.62085781882483,0.09852094645570782,fall
23/10/2020, 16:00:50,-9.663904,0.55324954,0.5604346,-0.08345993,-0.029556014,-0.043211795,9.695938127084627,0.09852094645570782,fall
23/10/2020, 16:00:50,-9.663904,0.55324954,0.5604346,-0.11155972,-0.033221204,-0.045655258,9.695938127084627,0.12503448258975708,fall
23/10/2020, 16:00:50,-9.649534,0.58677983,0.43349856,-0.11155972,-0.033221204,-0.045655258,9.677073025628502,0.12503448258975708,fall
23/10/2020, 16:00:50,-9.649534,0.58677983,0.43349856,-0.13355085,-0.036886394,-0.043211795,9.677073025628502,0.14513337155280376,fall
23/10/2020, 16:00:50,-9.520203,0.5891748,0.6993457,-0.13355085,-0.036886394,-0.043211795,9.564019532425865,0.14513337155280376,fall
23/10/2020, 16:00:50,-9.520203,0.5891748,0.6993457,-0.11400318,-0.027112553,-0.05298564,9.564019532425865,0.12860518567119958,fall
23/10/2020, 16:00:50,-9.6615095,0.21076173,0.76161623,-0.11400318,-0.027112553,-0.05298564,9.69377356209809,0.12860518567119958,fall
23/10/2020, 16:00:50,-9.6615095,0.21076173,0.76161623,-0.0822382,-0.016116982,-0.038324878,9.69377356209809,0.09215028194965408,fall
23/10/2020, 16:00:50,-9.639954,0.32093263,0.74724615,-0.0822382,-0.016116982,-0.038324878,9.674196618847697,0.09215028194965408,fall
23/10/2020, 16:00:50,-9.639954,0.32093263,0.74724615,-0.07857301,-0.013673522,-0.030994497,9.674196618847697,0.08556484142092245,fall
23/10/2020, 16:00:50,-9.711804,0.38080812,0.5245093,-0.07857301,-0.013673522,-0.030994497,9.733409954697827,0.08556484142092245,fall
23/10/2020, 16:00:50,-9.711804,0.38080812,0.5245093,-0.09201204,-0.024669092,-0.0077816257,9.733409954697827,0.09557893789779413,fall
23/10/2020, 16:00:50,-9.611214,0.48379397,0.55324954,-0.09201204,-0.024669092,-0.0077816257,9.639272282777666,0.09557893789779413,fall
23/10/2020, 16:00:50,-9.611214,0.48379397,0.55324954,-0.06391225,-0.027112553,-0.015112006,9.639272282777666,0.07105096034624306,fall
23/10/2020, 16:00:50,-9.64714,0.1460962,0.66342044,-0.06391225,-0.027112553,-0.015112006,9.671027466663606,0.07105096034624306,fall
23/10/2020, 16:00:50,-9.64714,0.1460962,0.66342044,-0.037034184,-0.022225633,7.704842E-4,9.671027466663606,0.043198416466634394,fall
23/10/2020, 16:00:50,-9.735755,0.24908204,0.55324954,-0.037034184,-0.022225633,7.704842E-4,9.754642571006118,0.043198416466634394,fall
23/10/2020, 16:00:50,-9.735755,0.24908204,0.55324954,-0.034590725,-0.019782173,0.021539895,9.754642571006118,0.04529701608542201,fall
23/10/2020, 16:00:50,-9.5561285,0.4047583,0.73527104,-0.034590725,-0.019782173,0.021539895,9.592916382775377,0.04529701608542201,fall
23/10/2020, 16:00:50,-9.5561285,0.4047583,0.73527104,-0.026038613,-0.010008331,0.025205085,9.592916382775377,0.03759617514581884,fall
23/10/2020, 16:00:50,-9.637559,0.15567628,0.76880133,-0.026038613,-0.010008331,0.025205085,9.669427741890878,0.03759617514581884,fall
23/10/2020, 16:00:50,-9.637559,0.15567628,0.76880133,0.0057263654,-0.0014562218,0.036200654,9.669427741890878,0.03667968341023571,fall
23/10/2020, 16:00:50,-9.627979,0.27542725,0.73048097,0.0057263654,-0.0014562218,0.036200654,9.659578024201778,0.03667968341023571,fall
23/10/2020, 16:00:51,-9.560919,0.07424561,0.6658155,-0.07490782,0.021756649,-0.12384598,9.584361799666933,0.14636379153376755,fall
23/10/2020, 16:00:51,-9.73815,0.18441652,0.50534916,-0.07490782,0.021756649,-0.12384598,9.752996754489955,0.14636379153376755,fall
23/10/2020, 16:00:51,-9.73815,0.18441652,0.50534916,-0.06757744,0.015647998,-0.11407214,9.752996754489955,0.13350663699203108,fall
23/10/2020, 16:00:51,-9.587264,0.2945874,0.7544312,-0.06757744,0.015647998,-0.11407214,9.621412595391376,0.13350663699203108,fall
23/10/2020, 16:00:51,-9.587264,0.2945874,0.7544312,-0.057803597,0.02908703,-0.1165156,9.621412595391376,0.13327864043055263,fall
23/10/2020, 16:00:51,-9.649534,-0.09101075,0.7783814,-0.057803597,0.02908703,-0.1165156,9.681305249813345,0.13327864043055263,fall
23/10/2020, 16:00:51,-9.649534,-0.09101075,0.7783814,-0.030925535,0.044969518,-0.09452446,9.681305249813345,0.10914906957776063,fall
23/10/2020, 16:00:51,-9.7812605,-0.119750984,0.6346802,-0.030925535,0.044969518,-0.09452446,9.802561708579022,0.10914906957776063,fall
23/10/2020, 16:00:51,-9.7812605,-0.119750984,0.6346802,-0.017486505,0.052299898,-0.07497678,9.802561708579022,0.09307295350890604,fall
23/10/2020, 16:00:51,-9.687855,-0.0047900393,0.51732427,-0.017486505,0.052299898,-0.07497678,9.701658483325373,0.09307295350890604,fall
23/10/2020, 16:00:51,-9.687855,-0.0047900393,0.51732427,-0.024816886,0.04741298,-0.057872556,9.701658483325373,0.07882322799284808,fall
23/10/2020, 16:00:51,-9.707015,0.09340577,0.3161426,-0.024816886,0.04741298,-0.057872556,9.712610962712157,0.07882322799284808,fall
23/10/2020, 16:00:51,-9.707015,0.09340577,0.3161426,-0.037034184,0.021756649,-0.05665083,9.712610962712157,0.07109288937354515,fall
23/10/2020, 16:00:51,-9.711804,0.1101709,0.25147706,-0.037034184,0.021756649,-0.05665083,9.715684373690587,0.07109288937354515,fall
23/10/2020, 16:00:51,-9.711804,0.1101709,0.25147706,-0.044364564,9.872383E-4,-0.057872556,9.715684373690587,0.07292751157361455,fall
23/10/2020, 16:00:51,-9.649534,0.1939966,0.21555176,-0.044364564,9.872383E-4,-0.057872556,9.653890822331585,0.07292751157361455,fall
23/10/2020, 16:00:51,-9.649534,0.1939966,0.21555176,-0.045586295,-0.028334282,-0.063981205,9.653890822331585,0.08351369054438725,fall
23/10/2020, 16:00:51,-9.596844,0.28261232,0.45744875,-0.045586295,-0.028334282,-0.063981205,9.611895674697015,0.08351369054438725,fall
23/10/2020, 16:00:51,-9.596844,0.28261232,0.45744875,-0.043142837,-0.035664663,-0.07253332,9.611895674697015,0.09162071039697892,fall
23/10/2020, 16:00:51,-9.687855,-0.021555176,0.43349856,-0.043142837,-0.035664663,-0.07253332,9.697572665973075,0.09162071039697892,fall
23/10/2020, 16:00:51,-9.687855,-0.021555176,0.43349856,-0.033368994,-0.04177331,-0.063981205,9.697572665973075,0.0833792176195045,fall
23/10/2020, 16:00:51,-9.635164,0.17723145,0.56522465,-0.033368994,-0.04177331,-0.063981205,9.653355904628247,0.0833792176195045,fall
23/10/2020, 16:00:51,-9.635164,0.17723145,0.56522465,-0.033368994,-0.03810812,-0.06642467,9.653355904628247,0.08353415564762576,fall
23/10/2020, 16:00:51,-9.654325,-0.059875492,0.58677983,-0.033368994,-0.03810812,-0.06642467,9.672325356777385,0.08353415564762576,fall
23/10/2020, 16:00:51,-9.654325,-0.059875492,0.58677983,-0.023595154,-0.030777743,-0.051763907,9.672325356777385,0.06468000348559352,fall
23/10/2020, 16:00:51,-9.659114,-0.19160157,0.46942386,-0.023595154,-0.030777743,-0.051763907,9.672411847491516,0.06468000348559352,fall
23/10/2020, 16:00:51,-9.659114,-0.19160157,0.46942386,-0.012599585,-0.030777743,-0.030994497,9.672411847491516,0.04546072878739542,fall
23/10/2020, 16:00:51,-9.6686945,0.09101075,0.5364844,-0.012599585,-0.030777743,-0.030994497,9.683994617392834,0.04546072878739542,fall
23/10/2020, 16:00:51,-9.6686945,0.09101075,0.5364844,-0.0064909356,-0.024669092,-0.021220656,9.683994617392834,0.033181509878897224,fall
23/10/2020, 16:00:51,-9.613608,-0.021555176,0.7209009,-0.0064909356,-0.024669092,-0.021220656,9.640623860959074,0.033181509878897224,fall
23/10/2020, 16:00:52,-9.994417,0.6322852,0.62510014,0.12545592,-0.018560443,-0.5514515,10.03388806517825,0.5658466562651673,fall
23/10/2020, 16:00:52,-9.994417,0.6322852,0.62510014,0.1291211,-0.035664663,-0.6149815,10.03388806517825,0.6294016498505429,fall
23/10/2020, 16:00:52,-9.915381,0.53169435,0.6682105,0.1291211,-0.035664663,-0.6149815,9.952084861939447,0.6294016498505429,fall
23/10/2020, 16:00:52,-9.915381,0.53169435,0.6682105,0.14989051,-0.055212345,-0.6736245,9.952084861939447,0.6923045259285875,fall
23/10/2020, 16:00:52,-9.82437,0.25866213,0.8143067,0.14989051,-0.055212345,-0.6736245,9.861452981647949,0.6923045259285875,fall
23/10/2020, 16:00:52,-9.82437,0.25866213,0.8143067,0.19631626,-0.061320994,-0.72860235,9.861452981647949,0.7570744489107885,fall
23/10/2020, 16:00:52,-9.948912,0.13891114,0.9699829,0.19631626,-0.061320994,-0.72860235,9.997049891339948,0.7570744489107885,fall
23/10/2020, 16:00:52,-9.948912,0.13891114,0.9699829,0.25618103,-0.058877535,-0.78113675,9.997049891339948,0.8241783235840969,fall
23/10/2020, 16:00:52,-10.099798,0.081430666,1.219065,0.25618103,-0.058877535,-0.78113675,10.173429807077119,0.8241783235840969,fall
23/10/2020, 16:00:52,-10.099798,0.081430666,1.219065,0.32581964,-0.06254272,-0.856884,10.173429807077119,0.9188689921733865,fall
23/10/2020, 16:00:52,-10.571617,0.2562671,1.6166383,0.32581964,-0.06254272,-0.856884,10.697582946511355,0.9188689921733865,fall
23/10/2020, 16:00:52,-10.571617,0.2562671,1.6166383,0.4308884,-0.08331213,-0.9143053,10.697582946511355,1.0141794575550698,fall
23/10/2020, 16:00:52,-11.048225,0.43589357,1.5687379,0.4308884,-0.08331213,-0.9143053,11.167552383564296,1.0141794575550698,fall
23/10/2020, 16:00:52,-11.048225,0.43589357,1.5687379,0.52251816,-0.12729442,-0.93629646,11.167552383564296,1.0797593073062877,fall
23/10/2020, 16:00:52,-11.529625,0.6514453,2.1052222,0.52251816,-0.12729442,-0.93629646,11.73833859059932,1.0797593073062877,fall
23/10/2020, 16:00:52,-11.529625,0.6514453,2.1052222,0.5481745,-0.17616361,-0.93507475,11.73833859059932,1.0981319062533519,fall
23/10/2020, 16:00:52,-11.1248665,0.8765772,1.5639478,0.5481745,-0.17616361,-0.93507475,11.268406037166622,1.0981319062533519,fall
23/10/2020, 16:00:52,-11.1248665,0.8765772,1.5639478,0.52129644,-0.20548514,-0.9534007,11.268406037166622,1.1058693237433643,fall
23/10/2020, 16:00:52,-10.557246,0.68018556,1.1424243,0.52129644,-0.20548514,-0.9534007,10.640640642160555,1.1058693237433643,fall
23/10/2020, 16:00:52,-10.557246,0.68018556,1.1424243,0.44188398,-0.228698,-0.9411834,10.640640642160555,1.0646080962018531,fall
23/10/2020, 16:00:52,-10.111773,0.244292,1.0633887,0.44188398,-0.228698,-0.9411834,10.170467932564065,1.0646080962018531,fall
23/10/2020, 16:00:52,-10.111773,0.244292,1.0633887,0.39667997,-0.25924128,-0.91186184,10.170467932564065,1.0276444176474593,fall
23/10/2020, 16:00:52,-10.066268,-0.244292,1.6381935,0.39667997,-0.25924128,-0.91186184,10.201622776628705,1.0276444176474593,fall
23/10/2020, 16:00:52,-10.066268,-0.244292,1.6381935,0.34781078,-0.27878895,-0.888649,10.201622776628705,0.9941793791304278,fall
23/10/2020, 16:00:52,-10.633887,-0.5005591,2.5938063,0.34781078,-0.27878895,-0.888649,10.957095841074327,0.9941793791304278,fall
23/10/2020, 16:00:52,-10.633887,-0.5005591,2.5938063,0.319711,-0.29833663,-0.8532188,10.957095841074327,0.9587503196523429,fall
23/10/2020, 16:00:52,-11.218272,0.46702883,2.8357031,0.319711,-0.29833663,-0.8532188,11.580542282249121,0.9587503196523429,fall
23/10/2020, 16:00:52,-11.218272,0.46702883,2.8357031,0.16332954,-0.45105287,-0.83000594,11.580542282249121,0.9586631845058767,fall
23/10/2020, 16:00:52,-12.183465,1.7507594,5.5492606,0.16332954,-0.45105287,-0.83000594,13.50171364080443,0.9586631845058767,fall
23/10/2020, 16:00:52,-12.183465,1.7507594,5.5492606,0.022830587,-0.9776185,-0.5856599,13.50171364080443,1.1398494377737307,fall
23/10/2020, 16:00:53,-9.666299,-1.1639795,1.8920655,-0.32414073,0.3772801,-0.22036266,9.918270719748977,0.5440286555897945,fall
23/10/2020, 16:00:53,-9.204061,-1.5256275,2.44771,-0.32414073,0.3772801,-0.22036266,9.64539031700448,0.5440286555897945,fall
23/10/2020, 16:00:53,-9.204061,-1.5256275,2.44771,-0.32169726,0.40049294,-0.23991033,9.64539031700448,0.5669573977488768,fall
23/10/2020, 16:00:53,-9.065149,-1.7028589,2.4668703,-0.32169726,0.40049294,-0.23991033,9.547885085025724,0.5669573977488768,fall
23/10/2020, 16:00:53,-9.065149,-1.7028589,2.4668703,-0.19830254,0.42126235,-0.23257996,9.547885085025724,0.5204606664531355,fall
23/10/2020, 16:00:53,-9.364527,-2.2776637,2.4884255,-0.19830254,0.42126235,-0.23257996,9.953611135022804,0.5204606664531355,fall
23/10/2020, 16:00:53,-9.364527,-2.2776637,2.4884255,-0.06757744,0.44936216,-0.21058881,9.953611135022804,0.5008400021568139,fall
23/10/2020, 16:00:53,-9.340576,-2.3710694,1.9423609,-0.06757744,0.44936216,-0.21058881,9.83062049165853,0.5008400021568139,fall
23/10/2020, 16:00:53,-9.340576,-2.3710694,1.9423609,-0.0028257454,0.4469187,-0.19837151,9.83062049165853,0.4889739907750765,fall
23/10/2020, 16:00:53,-9.498648,-1.9998415,2.0213966,-0.0028257454,0.4469187,-0.19837151,9.915125724414807,0.4889739907750765,fall
23/10/2020, 16:00:53,-9.498648,-1.9998415,2.0213966,0.036269616,0.4114885,-0.19959325,9.915125724414807,0.4587763476810398,fall
23/10/2020, 16:00:53,-9.328602,-1.6238233,2.0812721,0.036269616,0.4114885,-0.19959325,9.694911446567826,0.4587763476810398,fall
23/10/2020, 16:00:53,-9.328602,-1.6238233,2.0812721,0.024052314,0.41271025,-0.20081498,9.694911446567826,0.45960300141946336,fall
23/10/2020, 16:00:53,-9.381292,-1.5016773,1.2861255,0.024052314,0.41271025,-0.20081498,9.587377095501125,0.45960300141946336,fall
23/10/2020, 16:00:53,-9.381292,-1.5016773,1.2861255,-0.06879917,0.36506277,-0.18126729,9.587377095501125,0.41335455095406914,fall
23/10/2020, 16:00:53,-9.496253,-1.5184424,1.4585669,-0.06879917,0.36506277,-0.18126729,9.726865168749834,0.41335455095406914,fall
23/10/2020, 16:00:53,-9.496253,-1.5184424,1.4585669,-0.13599432,0.3174153,-0.18004556,9.726865168749834,0.38943976198957314,fall
23/10/2020, 16:00:53,-9.12263,-1.7435743,1.8202149,-0.13599432,0.3174153,-0.18004556,9.464439426830138,0.38943976198957314,fall
23/10/2020, 16:00:53,-9.12263,-1.7435743,1.8202149,-0.073686086,0.32230222,-0.20936708,9.464439426830138,0.39133481382454527,fall
23/10/2020, 16:00:53,-9.263936,-2.1411476,2.1148024,-0.073686086,0.32230222,-0.20936708,9.740503741175372,0.39133481382454527,fall
23/10/2020, 16:00:53,-9.263936,-2.1411476,2.1148024,0.0680346,0.34307164,-0.2215844,9.740503741175372,0.41403683426441534,fall
23/10/2020, 16:00:53,-9.364527,-2.1100123,2.304009,0.0680346,0.34307164,-0.2215844,9.871928402973813,0.41403683426441534,fall
23/10/2020, 16:00:53,-9.364527,-2.1100123,2.304009,0.22808124,0.38338873,-0.22891477,9.871928402973813,0.5014079577298409,fall
23/10/2020, 16:00:53,-9.424402,-1.8034497,2.1124072,0.22808124,0.38338873,-0.22891477,9.825174437863428,0.5014079577298409,fall
23/10/2020, 16:00:53,-9.424402,-1.8034497,2.1124072,0.27206352,0.42492753,-0.2704536,9.825174437863428,0.5724745581553813,fall
23/10/2020, 16:00:53,-9.539363,-1.7771046,1.0130934,0.27206352,0.42492753,-0.2704536,9.756223841044726,0.5724745581553813,fall
23/10/2020, 16:00:53,-9.539363,-1.7771046,1.0130934,0.27328524,0.3772801,-0.26556668,9.756223841044726,0.5362375832826041,fall
23/10/2020, 16:00:53,-9.455538,-1.3867164,2.2393434,0.27328524,0.3772801,-0.26556668,9.815540544242877,0.5362375832826041,fall
23/10/2020, 16:00:53,-9.455538,-1.3867164,2.2393434,0.37591058,0.39804947,-0.33031836,9.815540544242877,0.6394234651584793,fall
23/10/2020, 16:00:53,-9.067544,-1.710044,2.3423293,0.37591058,0.39804947,-0.33031836,9.520037334151446,0.6394234651584793,fall
23/10/2020, 16:00:54,-9.19448,-2.6441016,1.6645386,-0.3510188,-0.76748097,-0.4537131,9.710840520210946,0.9581736764278518,fall
23/10/2020, 16:00:54,-8.911868,-3.396138,2.8093581,-0.3510188,-0.76748097,-0.4537131,9.942214994178233,0.9581736764278518,fall
23/10/2020, 16:00:54,-8.911868,-3.396138,2.8093581,-0.061468784,-0.66485566,-0.46104348,9.942214994178233,0.8114015938059161,fall
23/10/2020, 16:00:54,-8.509504,-4.064348,2.680027,-0.061468784,-0.66485566,-0.46104348,9.803730665728088,0.8114015938059161,fall
23/10/2020, 16:00:54,-8.509504,-4.064348,2.680027,0.2549593,-0.5512347,-0.43538713,9.803730665728088,0.747279006103652,fall
23/10/2020, 16:00:54,-8.655601,-3.887117,3.391348,0.2549593,-0.5512347,-0.43538713,10.076226435791538,0.747279006103652,fall
23/10/2020, 16:00:54,-8.655601,-3.887117,3.391348,0.3979017,-0.46693537,-0.38529623,10.076226435791538,0.7244360507956504,fall
23/10/2020, 16:00:54,-9.081915,-3.0608351,3.1350808,0.3979017,-0.46693537,-0.38529623,10.083581786521888,0.7244360507956504,fall
23/10/2020, 16:00:54,-9.081915,-3.0608351,3.1350808,0.5811612,-0.4925917,-0.3107707,10.083581786521888,0.8227839055674683,fall
23/10/2020, 16:00:54,-9.271121,-3.1135256,3.4847536,0.5811612,-0.4925917,-0.3107707,10.382255757679328,0.8227839055674683,fall
23/10/2020, 16:00:54,-9.271121,-3.1135256,3.4847536,0.6703475,-0.50969595,-0.2704536,10.382255757679328,0.8844777532371555,fall
23/10/2020, 16:00:54,-8.571775,-3.9685476,3.4608033,0.6703475,-0.50969595,-0.2704536,10.059913683708178,0.8844777532371555,fall
23/10/2020, 16:00:54,-8.571775,-3.9685476,3.4608033,0.77419454,-0.46571365,-0.2301365,10.059913683708178,0.9323246191413103,fall
23/10/2020, 16:00:54,-8.420889,-2.6417067,3.7242556,0.77419454,-0.46571365,-0.2301365,9.579147335981235,0.9323246191413103,fall
23/10/2020, 16:00:54,-8.420889,-2.6417067,3.7242556,0.9904408,-0.38019255,-0.21547574,9.579147335981235,1.0825659876489404,fall
23/10/2020, 16:00:54,-8.624466,-2.3710694,2.8644435,0.9904408,-0.38019255,-0.21547574,9.391933764487526,1.0825659876489404,fall
23/10/2020, 16:00:54,-8.624466,-2.3710694,2.8644435,1.0148753,-0.3337668,-0.2386886,9.391933764487526,1.0946891696043342,fall
23/10/2020, 16:00:54,-9.093889,-1.9830762,3.8847218,1.0148753,-0.3337668,-0.2386886,10.085756086674289,1.0946891696043342,fall
23/10/2020, 16:00:54,-9.093889,-1.9830762,3.8847218,0.96478444,-0.26290646,-0.20936708,10.085756086674289,1.0216473974653526,fall
23/10/2020, 16:00:54,-9.15137,-1.5543678,3.0704153,0.96478444,-0.26290646,-0.20936708,9.777069234780841,1.0216473974653526,fall
23/10/2020, 16:00:54,-9.15137,-1.5543678,3.0704153,0.96967137,-0.23602839,-0.14828059,9.777069234780841,1.0089395902082565,fall
23/10/2020, 16:00:54,-9.374106,-2.0309765,3.180586,0.96967137,-0.23602839,-0.14828059,10.105189980955238,1.0089395902082565,fall
23/10/2020, 16:00:54,-9.374106,-2.0309765,3.180586,0.9879973,-0.23358493,-0.14217193,10.105189980955238,1.025140687043519,fall
23/10/2020, 16:00:54,-9.093889,-2.7638526,2.6129665,0.9879973,-0.23358493,-0.14217193,9.857245900593732,1.025140687043519,fall
23/10/2020, 16:00:54,-9.093889,-2.7638526,2.6129665,1.0173187,-0.23602839,-0.14217193,9.857245900593732,1.0539732673671194,fall
23/10/2020, 16:00:54,-8.931028,-2.6273365,3.3841627,1.0173187,-0.23602839,-0.14217193,9.90548947353086,1.0539732673671194,fall
23/10/2020, 16:00:54,-8.931028,-2.6273365,3.3841627,0.9708931,-0.23847185,-0.11895906,9.90548947353086,1.0068035878425365,fall
23/10/2020, 16:00:54,-9.034014,-1.1903248,2.7327175,0.9708931,-0.23847185,-0.11895906,9.51304485974045,1.0068035878425365,fall
23/10/2020, 16:00:54,-9.034014,-1.1903248,2.7327175,0.8035161,-0.28734106,-0.11162868,9.51304485974045,0.8606183550382754,fall
23/10/2020, 16:00:54,-9.328602,-0.2682422,1.9830762,0.8035161,-0.28734106,-0.11162868,9.540825823439219,0.8606183550382754,fall
23/10/2020, 16:00:55,-11.148816,-1.8729054,7.0150127,0.5078574,0.51167035,0.7130391,13.304671319566225,1.013977527979339,fall
23/10/2020, 16:00:55,-10.715318,4.493057,6.75156,0.5078574,0.51167035,0.7130391,13.438346566184379,1.013977527979339,fall
23/10/2020, 16:00:55,-10.715318,4.493057,6.75156,0.36735845,0.46768808,0.9830414,13.438346566184379,1.1489363676029,fall
23/10/2020, 16:00:55,-9.431587,6.1959157,2.4884255,0.36735845,0.46768808,0.9830414,11.55579812296345,1.1489363676029,fall
23/10/2020, 16:00:55,-9.431587,6.1959157,2.4884255,-0.18486351,0.3332978,0.749691,11.55579812296345,0.8410104294662132,fall
23/10/2020, 16:00:55,-9.295072,2.3590944,0.64186525,-0.18486351,0.3332978,0.749691,9.611226424731939,0.8410104294662132,fall
23/10/2020, 16:00:55,-9.295072,2.3590944,0.64186525,-0.7456376,0.2526636,0.5212275,9.611226424731939,0.9441887575641783,fall
23/10/2020, 16:00:55,-9.15616,0.07185059,3.422483,-0.7456376,0.2526636,0.5212275,9.77516366148084,0.9441887575641783,fall
23/10/2020, 16:00:55,-9.15616,0.07185059,3.422483,-0.59780824,0.24899845,0.3843937,9.77516366148084,0.7530826194457164,fall
23/10/2020, 16:00:55,-8.600515,-0.4766089,5.719307,-0.59780824,0.24899845,0.3843937,10.339559591195766,0.7530826194457164,fall
23/10/2020, 16:00:55,-8.600515,-0.4766089,5.719307,-0.08590339,0.27221128,0.32330722,10.339559591195766,0.4312840496561358,fall
23/10/2020, 16:00:55,-8.475974,-0.040715333,5.113367,-0.08590339,0.27221128,0.32330722,9.899005874076519,0.4312840496561358,fall
23/10/2020, 16:00:55,-8.475974,-0.040715333,5.113367,0.25618103,0.24899845,0.27565974,9.899005874076519,0.4512396706362957,fall
23/10/2020, 16:00:55,-8.634046,-0.026345216,3.3434474,0.25618103,0.24899845,0.27565974,9.258837850309698,0.4512396706362957,fall
23/10/2020, 16:00:55,-8.634046,-0.026345216,3.3434474,0.26351142,0.18791194,0.16570403,9.258837850309698,0.36360279258482286,fall
23/10/2020, 16:00:55,-8.722662,-0.4047583,2.1603076,0.26351142,0.18791194,0.16570403,8.99530934921163,0.36360279258482286,fall
23/10/2020, 16:00:55,-8.722662,-0.4047583,2.1603076,0.19875972,0.13537754,0.039865844,8.99530934921163,0.24376585150106903,fall
23/10/2020, 16:00:55,-8.657996,-0.90771246,1.8082398,0.19875972,0.13537754,0.039865844,8.891263743691233,0.24376585150106903,fall
23/10/2020, 16:00:55,-8.657996,-0.90771246,1.8082398,0.06314768,0.06085201,-0.06520294,8.891263743691233,0.1092795469824178,fall
23/10/2020, 16:00:55,-8.57896,-1.4058765,1.8010547,0.06314768,0.06085201,-0.06520294,8.877998014076606,0.1092795469824178,fall
23/10/2020, 16:00:55,-8.57896,-1.4058765,1.8010547,-0.13477258,-0.022225633,-0.098189645,8.877998014076606,0.16822257404871177,fall
23/10/2020, 16:00:55,-8.495134,-1.2717555,2.5866213,-0.13477258,-0.022225633,-0.098189645,8.970801485816223,0.16822257404871177,fall
23/10/2020, 16:00:55,-8.495134,-1.2717555,2.5866213,-0.30092788,-0.064986184,-0.09696792,8.970801485816223,0.32277479640070217,fall
23/10/2020, 16:00:55,-8.428074,-1.2789404,3.0416749,-0.30092788,-0.064986184,-0.09696792,9.050961492178166,0.32277479640070217,fall
23/10/2020, 16:00:55,-8.428074,-1.2789404,3.0416749,-0.490296,-0.07964694,-0.106741756,9.050961492178166,0.5080626052723201,fall
23/10/2020, 16:00:55,-8.705896,-1.1112891,3.7458107,-0.490296,-0.07964694,-0.106741756,9.542467891007616,0.5080626052723201,fall
23/10/2020, 16:00:55,-8.705896,-1.1112891,3.7458107,-0.6283515,-0.07109483,-0.12262425,9.542467891007616,0.6441403582815703,fall
23/10/2020, 16:00:55,-8.919053,-1.1639795,4.045188,-0.6283515,-0.07109483,-0.12262425,9.862449072200018,0.6441403582815703,fall
23/10/2020, 16:00:55,-8.919053,-1.1639795,4.045188,-0.65522957,-0.047881965,-0.105520025,9.862449072200018,0.6653968331753289,fall
23/10/2020, 16:00:55,-9.299861,-1.2909156,4.512217,-0.65522957,-0.047881965,-0.105520025,10.417004345622221,0.6653968331753289,fall
23/10/2020, 16:00:56,-8.940608,-1.2909156,3.3602126,-0.013821316,-0.013673522,-0.029772766,9.638047698363444,0.03555856519006843,fall
23/10/2020, 16:00:56,-8.969349,-1.2478052,3.3290772,-0.013821316,-0.013673522,-0.029772766,9.648263731396037,0.03555856519006843,fall
23/10/2020, 16:00:56,-8.969349,-1.2478052,3.3290772,-0.013821316,-0.013673522,-0.039546605,9.648263731396037,0.04406731157897943,fall
23/10/2020, 16:00:56,-9.0076685,-1.104104,3.278782,-0.013821316,-0.013673522,-0.039546605,9.649225261262998,0.04406731157897943,fall
23/10/2020, 16:00:56,-9.0076685,-1.104104,3.278782,-0.032147266,-0.017338712,-0.046876986,9.649225261262998,0.059426672565614534,fall
23/10/2020, 16:00:56,-9.024434,-1.0274634,3.3721876,-0.032147266,-0.017338712,-0.046876986,9.688536579803742,0.059426672565614534,fall
23/10/2020, 16:00:56,-9.024434,-1.0274634,3.3721876,-0.060247052,-0.014895253,-0.059094287,9.688536579803742,0.08569545319626252,fall
23/10/2020, 16:00:56,-8.981323,-1.1184741,3.3506324,-0.060247052,-0.014895253,-0.059094287,9.651004570819072,0.08569545319626252,fall
23/10/2020, 16:00:56,-8.981323,-1.1184741,3.3506324,-0.073686086,-0.008786602,-0.06520294,9.651004570819072,0.09878393858847988,fall
23/10/2020, 16:00:56,-8.940608,-1.1520045,3.551814,-0.073686086,-0.008786602,-0.06520294,9.689012819997197,0.09878393858847988,fall
23/10/2020, 16:00:56,-8.940608,-1.1520045,3.551814,-0.07857301,0.0022089682,-0.06520294,9.689012819997197,0.10212747185932258,fall
23/10/2020, 16:00:56,-8.911868,-1.3148658,3.4608033,-0.07857301,0.0022089682,-0.06520294,9.650255145344802,0.10212747185932258,fall
23/10/2020, 16:00:56,-8.911868,-1.3148658,3.4608033,-0.09079031,0.009539349,-0.063981205,9.650255145344802,0.11147858095597253,fall
23/10/2020, 16:00:56,-8.935819,-1.3939015,3.396138,-0.09079031,0.009539349,-0.063981205,9.660516012986548,0.11147858095597253,fall
23/10/2020, 16:00:56,-8.935819,-1.3939015,3.396138,-0.09689896,0.013204537,-0.055429097,9.660516012986548,0.11241064321543129,fall
23/10/2020, 16:00:56,-8.969349,-1.3388159,3.3530276,-0.09689896,0.013204537,-0.055429097,9.668735278125654,0.11241064321543129,fall
23/10/2020, 16:00:56,-8.969349,-1.3388159,3.3530276,-0.10300761,0.009539349,-0.040768337,9.668735278125654,0.1111918323170951,fall
23/10/2020, 16:00:56,-9.002879,-1.3555812,3.2668068,-0.10300761,0.009539349,-0.040768337,9.672717306324103,0.1111918323170951,fall
23/10/2020, 16:00:56,-9.002879,-1.3555812,3.2668068,-0.11400318,9.872383E-4,-0.034659687,9.672717306324103,0.11915953153030562,fall
23/10/2020, 16:00:56,-9.022039,-1.3603711,3.283572,-0.11400318,9.872383E-4,-0.034659687,9.69688865303769,0.11915953153030562,fall
23/10/2020, 16:00:56,-9.022039,-1.3603711,3.283572,-0.11522491,-0.007564872,-0.027329307,9.69688865303769,0.11866296319370483,fall
23/10/2020, 16:00:56,-9.022039,-1.477727,3.319497,-0.11522491,-0.007564872,-0.027329307,9.726249713104128,0.11866296319370483,fall
23/10/2020, 16:00:56,-9.022039,-1.477727,3.319497,-0.10545107,-0.012451792,-0.024885846,9.726249713104128,0.10906090312145343,fall
23/10/2020, 16:00:56,-8.916658,-1.4801221,3.3123121,-0.10545107,-0.012451792,-0.024885846,9.626472358524783,0.10906090312145343,fall
23/10/2020, 16:00:56,-8.916658,-1.4801221,3.3123121,-0.08712512,-0.013673522,-0.022442386,9.626472358524783,0.09100226832654708,fall
23/10/2020, 16:00:56,-8.938213,-1.4154567,3.3985329,-0.08712512,-0.013673522,-0.022442386,9.666705801245483,0.09100226832654708,fall
23/10/2020, 16:00:56,-8.938213,-1.4154567,3.3985329,-0.06391225,-0.010008331,-0.023664117,9.666705801245483,0.06888347288689022,fall
23/10/2020, 16:00:56,-8.923843,-1.4346168,3.3554225,-0.06391225,-0.010008331,-0.023664117,9.641160005158616,0.06888347288689022,fall
23/10/2020, 16:00:56,-8.923843,-1.4346168,3.3554225,-0.041921105,-0.0038996818,-0.03221623,9.641160005158616,0.053013884637417893,fall
23/10/2020, 16:00:56,-8.902288,-1.3483961,3.527864,-0.041921105,-0.0038996818,-0.03221623,9.670301733276627,0.053013884637417893,fall
23/10/2020, 16:00:57,-8.959768,-1.3891114,3.3578174,-0.032147266,-0.012451792,-0.0028947059,9.668609835666262,0.03459585464764532,fall
23/10/2020, 16:00:57,-8.904683,-1.3843213,3.3554225,-0.032147266,-0.012451792,-0.0028947059,9.616058809453412,0.03459585464764532,fall
23/10/2020, 16:00:57,-8.904683,-1.3843213,3.3554225,-0.035812456,-0.013673522,-0.015112006,9.616058809453412,0.041205217353543516,fall
23/10/2020, 16:00:57,-8.926238,-1.3388159,3.4368532,-0.035812456,-0.013673522,-0.015112006,9.658266599465188,0.041205217353543516,fall
23/10/2020, 16:00:57,-8.926238,-1.3388159,3.4368532,-0.027260344,-0.010008331,-0.023664117,9.658266599465188,0.037460425849649946,fall
23/10/2020, 16:00:57,-8.969349,-1.4322218,3.542234,-0.027260344,-0.010008331,-0.023664117,9.749251270575797,0.037460425849649946,fall
23/10/2020, 16:00:57,-8.969349,-1.4322218,3.542234,-0.004047475,-2.3449166E-4,-0.033437956,9.749251270575797,0.03368284353457114,fall
23/10/2020, 16:00:57,-8.950189,-1.5136524,3.551814,-0.004047475,-2.3449166E-4,-0.033437956,9.747430615738091,0.03368284353457114,fall
23/10/2020, 16:00:57,-8.950189,-1.5136524,3.551814,0.020387124,0.008317618,-0.035881415,9.747430615738091,0.042098616880933026,fall
23/10/2020, 16:00:57,-8.943004,-1.5399976,3.4703834,0.020387124,0.008317618,-0.035881415,9.715578618163718,0.042098616880933026,fall
23/10/2020, 16:00:57,-8.943004,-1.5399976,3.4703834,0.017943665,0.008317618,-0.033437956,9.715578618163718,0.03884912870888774,fall
23/10/2020, 16:00:57,-8.969349,-1.4106666,3.3602126,0.017943665,0.008317618,-0.033437956,9.681437316654174,0.03884912870888774,fall
23/10/2020, 16:00:57,-8.969349,-1.4106666,3.3602126,-0.017486505,0.0070958887,-0.021220656,9.681437316654174,0.028397988433248655,fall
23/10/2020, 16:00:57,-8.995694,-1.4034815,3.3338673,-0.017486505,0.0070958887,-0.021220656,9.695717866847854,0.028397988433248655,fall
23/10/2020, 16:00:57,-8.995694,-1.4034815,3.3338673,-0.061468784,9.872383E-4,-0.005338166,9.695717866847854,0.061708038636074505,fall
23/10/2020, 16:00:57,-8.969349,-1.5567628,3.3290772,-0.061468784,9.872383E-4,-0.005338166,9.69306378705121,0.061708038636074505,fall
23/10/2020, 16:00:57,-8.969349,-1.5567628,3.3290772,-0.07612955,-0.0038996818,0.0019922145,9.69306378705121,0.07625539032755657,fall
23/10/2020, 16:00:57,-8.957374,-1.6334034,3.3889527,-0.07612955,-0.0038996818,0.0019922145,9.715325496658854,0.07625539032755657,fall
23/10/2020, 16:00:57,-8.957374,-1.6334034,3.3889527,-0.06879917,-0.007564872,0.010544324,9.715325496658854,0.07001239578506355,fall
23/10/2020, 16:00:57,-8.964559,-1.583108,3.422483,-0.06879917,-0.007564872,0.010544324,9.72537564084441,0.07001239578506355,fall
23/10/2020, 16:00:57,-8.964559,-1.583108,3.422483,-0.056581866,-0.010008331,0.010544324,9.72537564084441,0.058419663056125885,fall
23/10/2020, 16:00:57,-8.873548,-1.5064673,3.420088,-0.056581866,-0.010008331,0.010544324,9.628410685860553,0.058419663056125885,fall
23/10/2020, 16:00:57,-8.873548,-1.5064673,3.420088,-0.045586295,-0.010008331,0.0056574047,9.628410685860553,0.047013649670428134,fall
23/10/2020, 16:00:57,-8.875943,-1.5136524,3.4296682,-0.045586295,-0.010008331,0.0056574047,9.635151011017665,0.047013649670428134,fall
23/10/2020, 16:00:57,-8.875943,-1.5136524,3.4296682,-0.027260344,-0.010008331,-0.0028947059,9.635151011017665,0.02918342680556333,fall
23/10/2020, 16:00:57,-8.907078,-1.4010864,3.4679885,-0.027260344,-0.010008331,-0.0028947059,9.660539434120142,0.02918342680556333,fall
23/10/2020, 16:00:57,-8.907078,-1.4010864,3.4679885,-0.012599585,-0.007564872,-0.010225086,9.660539434120142,0.017903329202793885,fall
23/10/2020, 16:00:57,-8.962164,-1.4058765,3.4943337,-0.012599585,-0.007564872,-0.010225086,9.721483390836942,0.017903329202793885,fall
23/10/2020, 16:00:57,-8.962164,-1.4058765,3.4943337,-0.004047475,-0.002677952,-0.017555466,9.721483390836942,0.018213946930027577,fall
23/10/2020, 16:00:57,-8.928633,-1.5567628,3.432063,-0.004047475,-0.002677952,-0.017555466,9.69139051631886,0.018213946930027577,fall
23/10/2020, 16:00:58,-8.844808,-1.6693287,3.4631984,0.039934807,0.0058741583,0.0056574047,9.644222286612775,0.04075905710457257,fall
23/10/2020, 16:00:58,-8.801697,-1.6262183,3.5637891,0.039934807,0.0058741583,0.0056574047,9.634056525626608,0.04075905710457257,fall
23/10/2020, 16:00:58,-8.801697,-1.6262183,3.5637891,0.06925633,0.013204537,-0.0016729758,9.634056525626608,0.07052373805151894,fall
23/10/2020, 16:00:58,-8.851993,-1.585503,3.532654,0.06925633,0.013204537,-0.0016729758,9.661844411844708,0.07052373805151894,fall
23/10/2020, 16:00:58,-8.851993,-1.585503,3.532654,0.08269536,0.019313188,-0.004116436,9.661844411844708,0.08502038837122446,fall
23/10/2020, 16:00:58,-8.885523,-1.5447876,3.532654,0.08269536,0.019313188,-0.004116436,9.685996575882534,0.08502038837122446,fall
23/10/2020, 16:00:58,-8.885523,-1.5447876,3.532654,0.0765867,0.021756649,-0.004116436,9.685996575882534,0.0797233942339651,fall
23/10/2020, 16:00:58,-8.899893,-1.5663428,3.427273,0.0765867,0.021756649,-0.004116436,9.66476705855566,0.0797233942339651,fall
23/10/2020, 16:00:58,-8.899893,-1.5663428,3.427273,0.061925948,0.019313188,-0.0016729758,9.66476705855566,0.06488929868353495,fall
23/10/2020, 16:00:58,-8.899893,-1.5376027,3.4296682,0.061925948,0.019313188,-0.0016729758,9.661000869787337,0.06488929868353495,fall
23/10/2020, 16:00:58,-8.899893,-1.5376027,3.4296682,0.042378265,0.018091459,7.704842E-4,9.661000869787337,0.04608483381372243,fall
23/10/2020, 16:00:58,-8.914263,-1.585503,3.391348,0.042378265,0.018091459,7.704842E-4,9.668461146718764,0.04608483381372243,fall
23/10/2020, 16:00:58,-8.914263,-1.585503,3.391348,0.037491348,0.018091459,0.0032139444,9.668461146718764,0.04175202353049456,fall
23/10/2020, 16:00:58,-8.8951025,-1.6884888,3.4512234,0.037491348,0.018091459,0.0032139444,9.689416176496904,0.04175202353049456,fall
23/10/2020, 16:00:58,-8.8951025,-1.6884888,3.4512234,0.044821728,0.016869728,0.0056574047,9.689416176496904,0.04822428057474271,fall
23/10/2020, 16:00:58,-8.8879175,-1.695674,3.4895437,0.044821728,0.016869728,0.0056574047,9.69779887430913,0.04822428057474271,fall
23/10/2020, 16:00:58,-8.8879175,-1.695674,3.4895437,0.061925948,0.019313188,0.010544324,9.69779887430913,0.06571913732168591,fall
23/10/2020, 16:00:58,-8.926238,-1.6717237,3.515889,0.061925948,0.019313188,0.010544324,9.738267868302447,0.06571913732168591,fall
23/10/2020, 16:00:58,-8.926238,-1.6717237,3.515889,0.081473626,0.021756649,0.012987785,9.738267868302447,0.08532283458917368,fall
23/10/2020, 16:00:58,-8.897498,-1.707649,3.5182838,0.081473626,0.021756649,0.012987785,9.719046212267319,0.08532283458917368,fall
23/10/2020, 16:00:58,-8.897498,-1.707649,3.5182838,0.094912656,0.021756649,0.012987785,9.719046212267319,0.09823668632225283,fall
23/10/2020, 16:00:58,-8.873548,-1.5711329,3.5039136,0.094912656,0.021756649,0.012987785,9.668801144972406,0.09823668632225283,fall
23/10/2020, 16:00:58,-8.873548,-1.5711329,3.5039136,0.09613439,0.021756649,0.009322595,9.668801144972406,0.0990054690750115,fall
23/10/2020, 16:00:58,-8.909473,-1.4370118,3.412903,0.09613439,0.021756649,0.009322595,9.648400229984471,0.0990054690750115,fall
23/10/2020, 16:00:58,-8.909473,-1.4370118,3.412903,0.07169978,0.018091459,0.0056574047,9.648400229984471,0.07416310418114969,fall
23/10/2020, 16:00:58,-8.933423,-1.4058765,3.3721876,0.07169978,0.018091459,0.0056574047,9.651641587912497,0.07416310418114969,fall
23/10/2020, 16:00:58,-8.933423,-1.4058765,3.3721876,0.037491348,0.013204537,-4.512458E-4,9.651641587912497,0.03975128396486445,fall
23/10/2020, 16:00:58,-8.902288,-1.4274317,3.4512234,0.037491348,0.013204537,-4.512458E-4,9.653975525782057,0.03975128396486445,fall
23/10/2020, 16:00:58,-8.902288,-1.4274317,3.4512234,0.008169825,0.009539349,-0.006559896,9.653975525782057,0.014169596189738868,fall
23/10/2020, 16:00:58,-8.885523,-1.4801221,3.403323,0.008169825,0.009539349,-0.006559896,9.629428050670318,0.014169596189738868,fall
23/10/2020, 16:00:59,-8.3179035,-2.5698562,4.4379716,-0.40110973,-0.749155,-0.48547807,9.771758875208146,0.9786782734221157,fall
23/10/2020, 16:00:59,-8.3179035,-2.5698562,4.4379716,-0.15065508,-0.7369377,-0.5233517,9.771758875208146,0.9163357246371546,fall
23/10/2020, 16:00:59,-8.128696,-2.955454,4.28469,-0.15065508,-0.7369377,-0.5233517,9.652408114579757,0.9163357246371546,fall
23/10/2020, 16:00:59,-8.128696,-2.955454,4.28469,-0.041921105,-0.6795164,-0.62353355,9.652408114579757,0.9231976858646403,fall
23/10/2020, 16:00:59,-8.296348,-2.6512868,4.4331813,-0.041921105,-0.6795164,-0.62353355,9.773013968268485,0.9231976858646403,fall
23/10/2020, 16:00:59,-8.296348,-2.6512868,4.4331813,0.18776414,-0.6172082,-0.6650724,9.773013968268485,0.9265649383997426,fall
23/10/2020, 16:00:59,-8.085587,-2.6417067,5.4486694,0.18776414,-0.6172082,-0.6650724,10.101649505655615,0.9265649383997426,fall
23/10/2020, 16:00:59,-8.085587,-2.6417067,5.4486694,0.242742,-0.504809,-0.7200502,10.101649505655615,0.9122653897533975,fall
23/10/2020, 16:00:59,-7.9873905,-3.0919704,5.3169436,0.242742,-0.504809,-0.7200502,10.081100051289104,0.9122653897533975,fall
23/10/2020, 16:00:59,-7.9873905,-3.0919704,5.3169436,0.26351142,-0.39974022,-0.67851144,10.081100051289104,0.8304265687660717,fall
23/10/2020, 16:00:59,-8.236472,-2.943479,5.1540823,0.26351142,-0.39974022,-0.67851144,10.152246375362116,0.8304265687660717,fall
23/10/2020, 16:00:59,-8.236472,-2.943479,5.1540823,0.24152027,-0.3545362,-0.6039859,10.152246375362116,0.7408285472454575,fall
23/10/2020, 16:00:59,-8.145462,-2.802173,4.4188113,0.24152027,-0.3545362,-0.6039859,9.681250860928744,0.7408285472454575,fall
23/10/2020, 16:00:59,-8.145462,-2.802173,4.4188113,0.06925633,-0.3985185,-0.58932513,9.681250860928744,0.7147849640355232,fall
23/10/2020, 16:00:59,-8.205338,-2.684817,4.0044727,0.06925633,-0.3985185,-0.58932513,9.516911709445111,0.7147849640355232,fall
23/10/2020, 16:00:59,-8.205338,-2.684817,4.0044727,-0.10056415,-0.49014825,-0.6162032,9.516911709445111,0.7937662262991948,fall
23/10/2020, 16:00:59,-8.255632,-2.6321266,3.4991236,-0.10056415,-0.49014825,-0.6162032,9.344914252833693,0.7937662262991948,fall
23/10/2020, 16:00:59,-8.255632,-2.6321266,3.4991236,-0.16653757,-0.5610086,-0.67240274,9.344914252833693,0.8913982410647928,fall
23/10/2020, 16:00:59,-8.095166,-2.6896071,2.8883936,-0.16653757,-0.5610086,-0.67240274,9.006026888535047,0.8913982410647928,fall
23/10/2020, 16:00:59,-8.095166,-2.6896071,2.8883936,-0.19341563,-0.62698203,-0.7151633,9.006026888535047,0.9705537629745989,fall
23/10/2020, 16:00:59,-8.425679,-1.590293,4.5744877,-0.19341563,-0.62698203,-0.7151633,9.718386680504056,0.9705537629745989,fall
23/10/2020, 16:00:59,-8.425679,-1.590293,4.5744877,-0.023595154,-0.6563035,-0.79824096,9.718386680504056,1.0336729066048918,fall
23/10/2020, 16:00:59,-7.151529,-2.7279274,4.7876444,-0.023595154,-0.6563035,-0.79824096,9.02814995468624,1.0336729066048918,fall
23/10/2020, 16:00:59,-7.151529,-2.7279274,4.7876444,-0.17020275,-0.5988822,-0.96683973,9.02814995468624,1.1499599677813575,fall
23/10/2020, 16:00:59,-7.817344,-4.663103,5.039121,-0.17020275,-0.5988822,-0.96683973,10.404236766517839,1.1499599677813575,fall
23/10/2020, 16:00:59,-7.817344,-4.663103,5.039121,0.0069480953,-0.4962569,-0.85444057,10.404236766517839,0.988123404379067,fall
23/10/2020, 16:00:59,-7.879615,-4.9576907,5.470225,0.0069480953,-0.4962569,-0.85444057,10.797702861840945,0.988123404379067,fall
23/10/2020, 16:00:59,-7.879615,-4.9576907,5.470225,0.26595485,-0.36919698,-0.657742,10.797702861840945,0.7997893245815293,fall
23/10/2020, 16:00:59,-7.656878,-4.960086,5.151687,0.26595485,-0.36919698,-0.657742,10.477123311854834,0.7997893245815293,fall
23/10/2020, 16:00:59,-7.656878,-4.960086,5.151687,0.3001633,-0.29467145,-0.4976954,10.477123311854834,0.651636374648514,fall
23/10/2020, 16:01:00,-7.302415,0.6849756,5.4319043,-0.26671943,-1.1254479,1.3385649,9.126885525130778,1.769047223721504,fall
23/10/2020, 16:01:00,-7.302415,0.6849756,5.4319043,-0.47563526,-1.1498824,1.5511459,9.126885525130778,1.988595523208453,fall
23/10/2020, 16:01:00,-7.1275783,0.16286133,5.518125,-0.47563526,-1.1498824,1.5511459,9.015464480099135,1.988595523208453,fall
23/10/2020, 16:01:00,-7.1275783,0.16286133,5.518125,-0.62224287,-1.1804258,1.7234098,9.015464480099135,2.179617491882163,fall
23/10/2020, 16:01:00,-7.046148,-0.3544629,5.872588,-0.62224287,-1.1804258,1.7234098,9.179386404295327,2.179617491882163,fall
23/10/2020, 16:01:00,-7.046148,-0.3544629,5.872588,-0.6967684,-1.2097472,1.8858999,9.179386404295327,2.346399991893293,fall
23/10/2020, 16:01:00,-7.185059,-0.73048097,5.927674,-0.6967684,-1.2097472,1.8858999,9.343232479757342,2.346399991893293,fall
23/10/2020, 16:01:00,-7.185059,-0.73048097,5.927674,-0.77618086,-1.2182994,2.0373945,9.343232479757342,2.497536101544081,fall
23/10/2020, 16:01:00,-7.446116,-0.8095166,5.721702,-0.77618086,-1.2182994,2.0373945,9.425382490675164,2.497536101544081,fall
23/10/2020, 16:01:00,-7.446116,-0.8095166,5.721702,-0.89468867,-1.1938647,2.197441,9.425382490675164,2.6560361689962253,fall
23/10/2020, 16:01:00,-7.7359133,-0.57959473,5.2091675,-0.89468867,-1.1938647,2.197441,9.344287566013548,2.6560361689962253,fall
23/10/2020, 16:01:00,-7.7359133,-0.57959473,5.2091675,-1.0950525,-1.1462172,2.369705,9.344287566013548,2.851044628339213,fall
23/10/2020, 16:01:00,-7.89638,-0.09340577,4.3421707,-1.0950525,-1.1462172,2.369705,9.011991313604241,2.851044628339213,fall
23/10/2020, 16:01:00,-7.89638,-0.09340577,4.3421707,-1.3284029,-1.0997915,2.5346386,9.011991313604241,3.0657117701398056,fall
23/10/2020, 16:01:00,-7.7143583,0.12933107,3.5494192,-1.3284029,-1.0997915,2.5346386,8.492727911073105,3.0657117701398056,fall
23/10/2020, 16:01:00,-7.7143583,0.12933107,3.5494192,-1.5678619,-1.0900177,2.672694,8.492727911073105,3.2847560889268776,fall
23/10/2020, 16:01:00,-7.647298,-0.07185059,3.032095,-1.5678619,-1.0900177,2.672694,8.226781076057263,3.2847560889268776,fall
23/10/2020, 16:01:00,-7.647298,-0.07185059,3.032095,-1.7657822,-1.1034567,2.8278537,8.226781076057263,3.5117460200883466,fall
23/10/2020, 16:01:00,-7.7239385,-0.76401126,3.2739918,-1.7657822,-1.1034567,2.8278537,8.423892276292372,3.5117460200883466,fall
23/10/2020, 16:01:00,-7.7239385,-0.76401126,3.2739918,-1.8684076,-1.1046784,2.9659092,8.423892276292372,3.6753066501130554,fall
23/10/2020, 16:01:00,-8.140672,-1.3819263,3.7003052,-1.8684076,-1.1046784,2.9659092,9.048343232691499,3.6753066501130554,fall
23/10/2020, 16:01:00,-8.140672,-1.3819263,3.7003052,-1.7987689,-1.0460354,3.1247342,9.048343232691499,3.7541607776470314,fall
23/10/2020, 16:01:00,-8.964559,-2.196233,4.248765,-1.7987689,-1.0460354,3.1247342,10.16064734222155,3.7541607776470314,fall
23/10/2020, 16:01:00,-8.964559,-2.196233,4.248765,-1.5788575,-0.9812837,3.2762287,10.16064734222155,3.766879764015932,fall
23/10/2020, 16:01:00,-9.79084,-2.684817,4.8211746,-1.5788575,-0.9812837,3.2762287,11.238884209908546,3.766879764015932,fall
23/10/2020, 16:01:00,-9.79084,-2.684817,4.8211746,-1.2587643,-0.9055365,3.4265015,11.238884209908546,3.761036612253897,fall
23/10/2020, 16:01:00,-10.229129,-2.8309133,4.6607084,-1.2587643,-0.9055365,3.4265015,11.59186568087544,3.761036612253897,fall
23/10/2020, 16:01:00,-10.229129,-2.8309133,4.6607084,-0.9704359,-0.84567165,3.5181313,11.59186568087544,3.7462186202704304,fall
23/10/2020, 16:01:00,-10.154883,-2.6608667,3.9733377,-0.9704359,-0.84567165,3.5181313,11.224494662756662,3.7462186202704304,fall
23/10/2020, 16:01:00,-10.154883,-2.6608667,3.9733377,-0.8262718,-0.7870286,3.5877697,11.224494662756662,3.764867970038612,fall
23/10/2020, 16:01:01,-9.2256155,0.62510014,1.1256592,0.26351142,-0.21281551,-0.56122535,9.315033024938206,0.6555170534592073,fall
23/10/2020, 16:01:01,-10.186019,-3.803291,1.3651612,0.26351142,-0.21281551,-0.56122535,10.958269481503077,0.6555170534592073,fall
23/10/2020, 16:01:01,-10.186019,-3.803291,1.3651612,0.11079515,-0.27023685,-0.46104348,10.958269481503077,0.5457697385137628,fall
23/10/2020, 16:01:01,-9.024434,-4.720584,2.0046315,0.11079515,-0.27023685,-0.46104348,10.379926332693072,0.5457697385137628,fall
23/10/2020, 16:01:01,-9.024434,-4.720584,2.0046315,0.18409896,-0.30200183,-0.38651794,10.379926332693072,0.5239214195206972,fall
23/10/2020, 16:01:01,-9.268726,-4.7133985,2.6033864,0.18409896,-0.30200183,-0.38651794,10.719283273595826,0.5239214195206972,fall
23/10/2020, 16:01:01,-9.268726,-4.7133985,2.6033864,0.3245979,-0.32032776,-0.30954894,10.719283273595826,0.5511753037469725,fall
23/10/2020, 16:01:01,-9.72378,-4.4427614,1.6741188,0.3245979,-0.32032776,-0.30954894,10.820937754746321,0.5511753037469725,fall
23/10/2020, 16:01:01,-9.72378,-4.4427614,1.6741188,0.3930148,-0.29467145,-0.21669747,10.820937754746321,0.5368888883578377,fall
23/10/2020, 16:01:01,-8.50711,-0.7041358,0.39996827,0.3930148,-0.29467145,-0.21669747,8.545565883317986,0.5368888883578377,fall
23/10/2020, 16:01:01,-8.50711,-0.7041358,0.39996827,0.4993053,-0.4192879,-0.35353124,8.545565883317986,0.741682185295687,fall
23/10/2020, 16:01:01,-8.641231,-1.5615528,2.8764186,0.4993053,-0.4192879,-0.35353124,9.240297448215479,0.741682185295687,fall
23/10/2020, 16:01:01,-8.641231,-1.5615528,2.8764186,0.20486836,-0.45960498,-0.24479726,9.240297448215479,0.5595833093426058,fall
23/10/2020, 16:01:01,-10.039923,-3.9661524,1.575923,0.20486836,-0.45960498,-0.24479726,10.909351327976633,0.5595833093426058,fall
23/10/2020, 16:01:01,-10.039923,-3.9661524,1.575923,-0.17875487,-0.50725245,-0.08963754,10.909351327976633,0.545246039552807,fall
23/10/2020, 16:01:01,-8.576566,-3.558999,1.0538087,-0.17875487,-0.50725245,-0.08963754,9.345291167690684,0.545246039552807,fall
23/10/2020, 16:01:01,-8.576566,-3.558999,1.0538087,-0.27282807,-0.5646738,-0.061537746,9.345291167690684,0.6301416750696676,fall
23/10/2020, 16:01:01,-8.943004,-3.9014869,3.3362625,-0.27282807,-0.5646738,-0.061537746,10.311622637650729,0.6301416750696676,fall
23/10/2020, 16:01:01,-8.943004,-3.9014869,3.3362625,-0.17264621,-0.4962569,-0.035881415,10.311622637650729,0.5266546196819563,fall
23/10/2020, 16:01:01,-9.053174,-3.4488282,3.187771,-0.17264621,-0.4962569,-0.035881415,10.198836226752332,0.5266546196819563,fall
23/10/2020, 16:01:01,-9.053174,-3.4488282,3.187771,0.1816555,-0.42784002,-0.105520025,10.198836226752332,0.4766343266561362,fall
23/10/2020, 16:01:01,-8.57417,-2.6441016,4.296665,0.1816555,-0.42784002,-0.105520025,9.948316353259012,0.4766343266561362,fall
23/10/2020, 16:01:01,-8.57417,-2.6441016,4.296665,0.6349173,-0.3863012,-0.291223,9.948316353259012,0.7982226760247385,fall
23/10/2020, 16:01:01,-9.604029,-3.515889,3.537444,0.6349173,-0.3863012,-0.291223,10.821846105578413,0.7982226760247385,fall
23/10/2020, 16:01:01,-9.604029,-3.515889,3.537444,0.9721148,-0.3911881,-0.4744825,10.821846105578413,1.150290822934043,fall
23/10/2020, 16:01:01,-9.580078,-3.7290456,3.2644117,0.9721148,-0.3911881,-0.4744825,10.786105036378261,1.150290822934043,fall
23/10/2020, 16:01:01,-9.580078,-3.7290456,3.2644117,1.0942878,-0.24213703,-0.657742,10.786105036378261,1.2995078288398851,fall
23/10/2020, 16:01:01,-8.456815,-1.4489869,-2.4093897,1.0942878,-0.24213703,-0.657742,8.91192672087523,1.2995078288398851,fall
23/10/2020, 16:01:01,-8.456815,-1.4489869,-2.4093897,0.6288087,-0.17982881,-0.55756015,8.91192672087523,0.8594254294855282,fall
23/10/2020, 16:01:01,-6.2031007,5.824688,-2.3878345,0.6288087,-0.17982881,-0.55756015,8.83782788364217,0.8594254294855282,fall
23/10/2020, 16:01:02,-9.273516,-1.9734962,2.339934,-0.30459306,0.46524465,0.59697473,9.76565780428494,0.8158482358951206,fall
23/10/2020, 16:01:02,-9.268726,-1.3028907,1.5232325,-0.30459306,0.46524465,0.59697473,9.48298736292107,0.8158482358951206,fall
23/10/2020, 16:01:02,-9.268726,-1.3028907,1.5232325,-0.29604095,0.4102668,0.56398803,9.48298736292107,0.7576553171989703,fall
23/10/2020, 16:01:02,-9.211246,-1.4753321,1.7771046,-0.29604095,0.4102668,0.56398803,9.496407219687343,0.7576553171989703,fall
23/10/2020, 16:01:02,-9.211246,-1.4753321,1.7771046,-0.28382364,0.3626193,0.518784,9.496407219687343,0.6936753183553481,fall
23/10/2020, 16:01:02,-9.340576,-2.4141798,2.0621119,-0.28382364,0.3626193,0.518784,9.865441330188299,0.6936753183553481,fall
23/10/2020, 16:01:02,-9.340576,-2.4141798,2.0621119,-0.15676372,0.33085433,0.51267534,9.865441330188299,0.6299805217646378,fall
23/10/2020, 16:01:02,-9.307046,-2.4453151,1.5639478,-0.15676372,0.33085433,0.51267534,9.74918472620733,0.6299805217646378,fall
23/10/2020, 16:01:02,-9.307046,-2.4453151,1.5639478,-0.007712665,0.2758765,0.48457557,9.74918472620733,0.5576565312683596,fall
23/10/2020, 16:01:02,-9.175321,-1.961521,1.4873072,-0.007712665,0.2758765,0.48457557,9.499797682387824,0.5576565312683596,fall
23/10/2020, 16:01:02,-9.175321,-1.961521,1.4873072,-0.017486505,0.24533324,0.45158887,9.499797682387824,0.5142243507721826,fall
23/10/2020, 16:01:02,-9.596844,-0.9484278,0.7185059,-0.017486505,0.24533324,0.45158887,9.670324473185662,0.5142243507721826,fall
23/10/2020, 16:01:02,-9.596844,-0.9484278,0.7185059,-0.041921105,0.1659208,0.40027618,9.670324473185662,0.435325295029392,fall
23/10/2020, 16:01:02,-9.302257,0.16286133,1.3220508,-0.041921105,0.1659208,0.40027618,9.397144231898167,0.435325295029392,fall
23/10/2020, 16:01:02,-9.302257,0.16286133,1.3220508,-0.10789453,0.10849948,0.30498126,9.397144231898167,0.34121391770103493,fall
23/10/2020, 16:01:02,-9.201666,-0.7927515,2.4141798,-0.10789453,0.10849948,0.30498126,9.546065890118708,0.34121391770103493,fall
23/10/2020, 16:01:02,-9.201666,-0.7927515,2.4141798,-0.10789453,0.1292689,0.20968631,9.546065890118708,0.26892383073116966,fall
23/10/2020, 16:01:02,-9.287886,-1.9447559,2.3662794,-0.10789453,0.1292689,0.20968631,9.779886181651042,0.26892383073116966,fall
23/10/2020, 16:01:02,-9.287886,-1.9447559,2.3662794,-0.043142837,0.15492523,0.20602112,9.779886181651042,0.26135766730398935,fall
23/10/2020, 16:01:02,-9.283096,-1.1543995,1.7603394,-0.043142837,0.15492523,0.20602112,9.518787219704782,0.26135766730398935,fall
23/10/2020, 16:01:02,-9.283096,-1.1543995,1.7603394,-0.022373427,0.1292689,0.13516077,9.518787219704782,0.18835990401956484,fall
