DATE,TIME,ax,ay,az,gx,gy,gz,ma,mg,label
23/10/2020, 15:46:10,-0.122146,4.471502,8.464,-0.010156126,0.068182394,0.038644116,9.573324395166184,0.07902754873929331,fall
23/10/2020, 15:46:10,-0.122146,4.471502,8.464,0.022830587,0.08773007,0.060635254,9.573324395166184,0.10906161244556636,fall
23/10/2020, 15:46:10,-0.16765137,4.5649076,8.449629,0.022830587,0.08773007,0.060635254,9.605348265076177,0.10906161244556636,fall
23/10/2020, 15:46:10,-0.16765137,4.5649076,8.449629,0.044821728,0.09383872,0.050861415,9.605348265076177,0.11576517803418587,fall
23/10/2020, 15:46:10,-0.1460962,4.643943,8.344249,0.044821728,0.09383872,0.050861415,9.55060399654041,0.11576517803418587,fall
23/10/2020, 15:46:10,-0.1460962,4.643943,8.344249,-0.007712665,0.10605603,0.049639687,9.55060399654041,0.11735188370288716,fall
23/10/2020, 15:46:10,-0.17244141,4.7133985,8.234077,-0.007712665,0.10605603,0.049639687,9.489251422622234,0.11735188370288716,fall
23/10/2020, 15:46:10,-0.17244141,4.7133985,8.234077,0.081473626,0.12193851,0.056970067,9.489251422622234,0.15732940277974888,fall
23/10/2020, 15:46:10,-0.7711963,4.679868,7.3742657,0.081473626,0.12193851,0.056970067,8.767879133163856,0.15732940277974888,fall
23/10/2020, 15:46:10,-0.7711963,4.679868,7.3742657,0.31360233,0.048634708,0.055748336,8.767879133163856,0.32221054001905597,fall
23/10/2020, 15:46:10,-0.5508545,4.7780643,5.381609,0.31360233,0.048634708,0.055748336,7.217690330129418,0.32221054001905597,fall
23/10/2020, 15:46:10,-0.5508545,4.7780643,5.381609,-0.06513398,-0.025890823,0.019096434,7.217690330129418,0.07264601894774633,fall
23/10/2020, 15:46:10,0.244292,4.7469287,12.743899,-0.06513398,-0.025890823,0.019096434,13.601469814524496,0.07264601894774633,fall
23/10/2020, 15:46:10,0.244292,4.7469287,12.743899,-0.27649325,-0.07353829,0.020318165,13.601469814524496,0.2868261245865568,fall
23/10/2020, 15:46:10,2.8476784,5.122947,9.917776,-0.27649325,-0.07353829,0.020318165,11.520249281282542,0.2868261245865568,fall
23/10/2020, 15:46:10,2.8476784,5.122947,9.917776,-0.11766837,-0.019782173,0.058191795,11.520249281282542,0.13275339601259917,fall
23/10/2020, 15:46:10,3.666775,5.49178,9.4435625,-0.11766837,-0.019782173,0.058191795,11.523270241886669,0.13275339601259917,fall
23/10/2020, 15:46:10,3.666775,5.49178,9.4435625,-0.035812456,-0.0820904,0.043531034,11.523270241886669,0.09958070469746871,fall
23/10/2020, 15:46:10,2.8285182,5.261858,13.754598,-0.035812456,-0.0820904,0.043531034,14.995886812799704,0.09958070469746871,fall
23/10/2020, 15:46:10,2.8285182,5.261858,13.754598,-0.2899323,-2.3449166E-4,-0.027329307,14.995886812799704,0.2912176003079169,fall
23/10/2020, 15:46:10,-0.85023195,4.8355446,15.505357,-0.2899323,-2.3449166E-4,-0.027329307,16.264116174849516,0.2912176003079169,fall
23/10/2020, 15:46:10,-0.85023195,4.8355446,15.505357,-0.06391225,0.15492523,-0.03221623,16.264116174849516,0.17065897898114232,fall
23/10/2020, 15:46:10,-4.133804,4.2799,6.090535,-0.06391225,0.15492523,-0.03221623,8.514722394202048,0.17065897898114232,fall
23/10/2020, 15:46:10,-4.133804,4.2799,6.090535,-0.33147112,0.36017585,-0.022442386,8.514722394202048,0.49000347189476945,fall
23/10/2020, 15:46:10,0.73048097,4.591253,0.9532178,-0.33147112,0.36017585,-0.022442386,4.745716904442525,0.49000347189476945,fall
23/10/2020, 15:46:10,0.73048097,4.591253,0.9532178,-0.2447283,-0.010008331,0.0081008645,4.745716904442525,0.24506678692269077,fall
23/10/2020, 15:46:10,3.300337,5.031936,13.903089,-0.2447283,-0.010008331,0.0081008645,15.149537227166931,0.24506678692269077,fall
23/10/2020, 15:46:10,3.300337,5.031936,13.903089,0.094912656,-0.11752057,-0.027329307,15.149537227166931,0.15351347751002856,fall
23/10/2020, 15:46:10,-3.3745828,4.3062453,12.75348,0.094912656,-0.11752057,-0.027329307,13.877420823024,0.15351347751002856,fall
23/10/2020, 15:46:10,-3.3745828,4.3062453,12.75348,-0.09567723,0.31252837,-0.039546605,13.877420823024,0.329229477559735,fall
23/10/2020, 15:46:11,-5.894143,6.6581545,1.7579445,-0.843376,-0.019782173,0.80833405,9.064342935852721,1.1683656619241327,fall
23/10/2020, 15:46:11,-5.894143,6.6581545,1.7579445,-1.2905293,0.0400826,0.97204584,9.064342935852721,1.6161514395481753,fall
23/10/2020, 15:46:11,0.043110352,7.1251836,2.0118165,-1.2905293,0.0400826,0.97204584,7.403884468317441,1.6161514395481753,fall
23/10/2020, 15:46:11,0.043110352,7.1251836,2.0118165,-1.3784938,-0.39607504,1.0856668,7.403884468317441,1.7988309823070188,fall
23/10/2020, 15:46:11,0.63707525,6.8808913,14.422809,-1.3784938,-0.39607504,1.0856668,15.99280899469875,1.7988309823070188,fall
23/10/2020, 15:46:11,0.63707525,6.8808913,14.422809,-1.8280904,-0.20548514,1.1027709,15.99280899469875,2.1448175844648047,fall
23/10/2020, 15:46:11,-4.718189,5.836663,12.660074,-1.8280904,-0.20548514,1.1027709,14.71752075226966,2.1448175844648047,fall
23/10/2020, 15:46:11,-4.718189,5.836663,12.660074,-1.5996269,-0.06254272,1.1907356,14.71752075226966,1.9951363425282318,fall
23/10/2020, 15:46:11,-3.8176613,5.0558863,1.6597486,-1.5996269,-0.06254272,1.1907356,6.549144136029507,1.9951363425282318,fall
23/10/2020, 15:46:11,-3.8176613,5.0558863,1.6597486,-1.8109863,-0.10896846,1.3129085,6.549144136029507,2.239480797368707,fall
23/10/2020, 15:46:11,2.2944288,5.3408937,4.9385304,-1.8109863,-0.10896846,1.3129085,7.627491893918185,2.239480797368707,fall
23/10/2020, 15:46:11,2.2944288,5.3408937,4.9385304,-1.5959618,-0.52313495,1.450964,7.627491893918185,2.2194730732141315,fall
23/10/2020, 15:46:11,1.6238233,4.9864306,16.427439,-1.5959618,-0.52313495,1.450964,17.244188472129085,2.2194730732141315,fall
23/10/2020, 15:46:11,1.6238233,4.9864306,16.427439,-1.6570482,-0.41684443,1.4851725,17.244188472129085,2.26391375344037,fall
23/10/2020, 15:46:11,-3.7242556,4.061953,14.02763,-1.6570482,-0.41684443,1.4851725,15.071295282345531,2.26391375344037,fall
23/10/2020, 15:46:11,-3.7242556,4.061953,14.02763,-1.4310282,-0.24458049,1.5572546,15.071295282345531,2.1290146084429185,fall
23/10/2020, 15:46:11,-2.799778,3.3721876,3.0776002,-1.4310282,-0.24458049,1.5572546,5.355560597337031,2.1290146084429185,fall
23/10/2020, 15:46:11,-2.799778,3.3721876,3.0776002,-1.5165493,-0.3911881,1.5890195,5.355560597337031,2.231128225258171,fall
23/10/2020, 15:46:11,3.420088,3.3482375,6.006709,-1.5165493,-0.3911881,1.5890195,7.680380911116067,2.231128225258171,fall
23/10/2020, 15:46:11,3.420088,3.3482375,6.006709,-1.3833808,-0.82978916,1.6073455,7.680380911116067,2.277246548632013,fall
23/10/2020, 15:46:11,2.7614577,2.565066,17.495619,-1.3833808,-0.82978916,1.6073455,17.896979927408786,2.277246548632013,fall
23/10/2020, 15:46:11,2.7614577,2.565066,17.495619,-1.3736069,-0.8102415,1.5401503,17.896979927408786,2.2170589059368284,fall
23/10/2020, 15:46:11,-2.3830445,1.3555812,15.366446,-1.3736069,-0.8102415,1.5401503,15.609104710686273,2.2170589059368284,fall
23/10/2020, 15:46:11,-2.3830445,1.3555812,15.366446,-1.1341478,-0.6318689,1.527933,15.609104710686273,2.005025863019237,fall
23/10/2020, 15:46:11,-1.4298267,0.847837,4.988826,-1.1341478,-0.6318689,1.527933,5.258480281343491,2.005025863019237,fall
23/10/2020, 15:46:11,-1.4298267,0.847837,4.988826,-1.0962741,-0.7247204,1.4778421,5.258480281343491,1.9776384704677328,fall
23/10/2020, 15:46:11,4.5529323,0.6730005,6.552774,-1.0962741,-0.7247204,1.4778421,8.007556952721126,1.9776384704677328,fall
23/10/2020, 15:46:11,4.5529323,0.6730005,6.552774,-0.9948705,-1.1083436,1.3691081,8.007556952721126,2.023029845344256,fall
23/10/2020, 15:46:11,5.158872,0.19160157,17.378262,-0.9948705,-1.1083436,1.3691081,18.12883470754544,2.023029845344256,fall
23/10/2020, 15:46:11,5.158872,0.19160157,17.378262,-1.1598041,-1.0814656,1.1259838,18.12883470754544,1.9448786612287778,fall
23/10/2020, 15:46:12,2.5291407,0.93405765,9.881851,0.033826157,-0.0038996818,0.12294348,10.243046397425706,0.127571613341762,fall
23/10/2020, 15:46:12,2.550696,0.92926764,9.948912,0.033826157,-0.0038996818,0.12294348,10.312634545335104,0.127571613341762,fall
23/10/2020, 15:46:12,2.550696,0.92926764,9.948912,0.22075085,0.020534918,0.11316965,10.312634545335104,0.24891763959870425,fall
23/10/2020, 15:46:12,2.5004005,1.0514137,9.987232,0.22075085,0.020534918,0.11316965,10.349023177699236,0.24891763959870425,fall
23/10/2020, 15:46:12,2.5004005,1.0514137,9.987232,0.37224537,0.03886087,0.10828273,10.349023177699236,0.389617675691412,fall
23/10/2020, 15:46:12,2.5075855,1.223855,9.814791,0.37224537,0.03886087,0.10828273,10.203721049881539,0.389617675691412,fall
23/10/2020, 15:46:12,2.5075855,1.223855,9.814791,0.46020994,0.058408547,0.109504454,10.203721049881539,0.47665078296364344,fall
23/10/2020, 15:46:12,2.560276,1.585503,9.592053,0.46020994,0.058408547,0.109504454,10.053672052994617,0.47665078296364344,fall
23/10/2020, 15:46:12,2.560276,1.585503,9.592053,0.4748707,0.06573893,0.104617536,10.053672052994617,0.4906817997882482,fall
23/10/2020, 15:46:12,2.5842261,1.7723145,9.371712,0.4748707,0.06573893,0.104617536,9.881715656978237,0.4906817997882482,fall
23/10/2020, 15:46:12,2.5842261,1.7723145,9.371712,0.41256246,0.07184758,0.09362197,9.881715656978237,0.4291094628255093,fall
23/10/2020, 15:46:12,2.5962012,1.7675245,9.081915,0.41256246,0.07184758,0.09362197,9.609660849738031,0.4291094628255093,fall
23/10/2020, 15:46:12,2.5962012,1.7675245,9.081915,0.30627197,0.084064886,0.08506986,9.609660849738031,0.3287952333742607,fall
23/10/2020, 15:46:12,2.5890162,1.9232007,8.890313,0.30627197,0.084064886,0.08506986,9.457239226755082,0.3287952333742607,fall
23/10/2020, 15:46:12,2.5890162,1.9232007,8.890313,0.18409896,0.082843155,0.076517746,9.457239226755082,0.2158943732461215,fall
23/10/2020, 15:46:12,2.4668703,1.8441651,8.832832,0.18409896,0.082843155,0.076517746,9.354427885589347,0.2158943732461215,fall
23/10/2020, 15:46:12,2.4668703,1.8441651,8.832832,0.050930377,0.07795623,0.0667439,9.354427885589347,0.11456799548824706,fall
23/10/2020, 15:46:12,2.4141798,1.8274,9.019644,0.050930377,0.07795623,0.0667439,9.514285508941311,0.11456799548824706,fall
23/10/2020, 15:46:12,2.4141798,1.8274,9.019644,-0.07857301,0.076734506,0.06430045,9.514285508941311,0.12726527397272025,fall
23/10/2020, 15:46:12,2.4022048,1.8441651,9.134604,-0.07857301,0.076734506,0.06430045,9.623540464368102,0.12726527397272025,fall
23/10/2020, 15:46:12,2.4022048,1.8441651,9.134604,-0.17753313,0.07306931,0.07285256,9.623540464368102,0.20534028751520267,fall
23/10/2020, 15:46:12,2.3830445,1.8968556,9.304651,-0.17753313,0.07306931,0.07285256,9.790479927798506,0.20534028751520267,fall
23/10/2020, 15:46:12,2.3830445,1.8968556,9.304651,-0.23006752,0.05718682,0.08751331,9.790479927798506,0.25270531575206767,fall
23/10/2020, 15:46:12,2.3255641,1.84177,9.465117,-0.23006752,0.05718682,0.08751331,9.919113566905912,0.25270531575206767,fall
23/10/2020, 15:46:12,2.3255641,1.84177,9.465117,-0.23861964,0.0400826,0.109504454,9.919113566905912,0.26558835262172265,fall
23/10/2020, 15:46:12,2.2369483,1.695674,9.489068,-0.23861964,0.0400826,0.109504454,9.895537363035839,0.26558835262172265,fall
23/10/2020, 15:46:12,2.2369483,1.695674,9.489068,-0.2129633,0.037639137,0.13393904,9.895537363035839,0.2543810883229616,fall
23/10/2020, 15:46:12,2.2656887,1.6214283,9.431587,-0.2129633,0.037639137,0.13393904,9.834490944731664,0.2543810883229616,fall
23/10/2020, 15:46:12,2.2656887,1.6214283,9.431587,-0.1677593,0.037639137,0.16692576,9.834490944731664,0.23963325286866685,fall
23/10/2020, 15:46:12,2.2225783,1.6741188,9.268726,-0.1677593,0.037639137,0.16692576,9.677386836648264,0.23963325286866685,fall
23/10/2020, 15:46:13,-6.085745,-6.3132715,3.3386574,0.54084414,0.7364687,0.69104797,9.382980384000405,1.1456202618365923,fall
23/10/2020, 15:46:13,-6.016289,-5.688172,3.6164796,0.54084414,0.7364687,0.69104797,9.034930008059334,1.1456202618365923,fall
23/10/2020, 15:46:13,-6.016289,-5.688172,3.6164796,0.48220107,0.77189887,0.5920878,9.034930008059334,1.0857779236733642,fall
23/10/2020, 15:46:13,-5.9156985,-4.9289503,3.7074904,0.48220107,0.77189887,0.5920878,8.546082472533202,1.0857779236733642,fall
23/10/2020, 15:46:13,-5.9156985,-4.9289503,3.7074904,0.319711,0.7462425,0.5102319,8.546082472533202,0.9588689331345692,fall
23/10/2020, 15:46:13,-5.712122,-4.2799,3.7050953,0.319711,0.7462425,0.5102319,8.041990617116515,0.9588689331345692,fall
23/10/2020, 15:46:13,-5.712122,-4.2799,3.7050953,0.07903016,0.68515605,0.428376,8.041990617116515,0.8119055142630464,fall
23/10/2020, 15:46:13,-5.2929935,-3.894302,3.7985013,0.07903016,0.68515605,0.428376,7.590123824013248,0.8119055142630464,fall
23/10/2020, 15:46:13,-5.2929935,-3.894302,3.7985013,-0.1885287,0.6301782,0.35873738,7.590123824013248,0.7492397206216773,fall
23/10/2020, 15:46:13,-4.7708793,-3.7050953,3.779341,-0.1885287,0.6301782,0.35873738,7.125478115462715,0.7492397206216773,fall
23/10/2020, 15:46:13,-4.7708793,-3.7050953,3.779341,-0.40966183,0.59596974,0.29276395,7.125478115462715,0.7802009170380878,fall
23/10/2020, 15:46:13,-4.2104445,-3.7194655,3.8296363,-0.40966183,0.59596974,0.29276395,6.799145570816031,0.7802009170380878,fall
23/10/2020, 15:46:13,-4.2104445,-3.7194655,3.8296363,-0.5208393,0.6020784,0.23045573,6.799145570816031,0.8287833037578533,fall
23/10/2020, 15:46:13,-3.7937112,-3.9326222,3.906277,-0.5208393,0.6020784,0.23045573,6.7169011771649645,0.8287833037578533,fall
23/10/2020, 15:46:13,-3.7937112,-3.9326222,3.906277,-0.48785257,0.6509476,0.19869074,6.7169011771649645,0.8373833556722337,fall
23/10/2020, 15:46:13,-3.6883302,-4.277505,4.016448,-0.48785257,0.6509476,0.19869074,6.930561486806128,0.8373833556722337,fall
23/10/2020, 15:46:13,-3.6883302,-4.277505,4.016448,-0.31314516,0.7095906,0.19013864,6.930561486806128,0.7985808866826312,fall
23/10/2020, 15:46:13,-3.9014869,-4.622388,4.3493557,-0.31314516,0.7095906,0.19013864,7.45016540612901,0.7985808866826312,fall
23/10/2020, 15:46:13,-3.9014869,-4.622388,4.3493557,-0.07246436,0.748686,0.17792132,7.45016540612901,0.7729410272275247,fall
23/10/2020, 15:46:13,-4.1960745,-4.8451247,4.7780643,-0.07246436,0.748686,0.17792132,7.994508905713067,0.7729410272275247,fall
23/10/2020, 15:46:13,-4.1960745,-4.8451247,4.7780643,0.18043377,0.7437991,0.15715192,7.994508905713067,0.7813386955740709,fall
23/10/2020, 15:46:13,-4.4547367,-4.8044095,5.151687,0.18043377,0.7437991,0.15715192,8.334681174207525,0.7813386955740709,fall
23/10/2020, 15:46:13,-4.4547367,-4.8044095,5.151687,0.41989285,0.6924864,0.11561311,8.334681174207525,0.8180548981134312,fall
23/10/2020, 15:46:13,-4.4283915,-4.600833,5.295388,0.41989285,0.6924864,0.11561311,8.29574897437371,0.8180548981134312,fall
23/10/2020, 15:46:13,-4.4283915,-4.600833,5.295388,0.62514347,0.6277347,0.06430045,8.29574897437371,0.8882509685972168,fall
23/10/2020, 15:46:13,-4.054768,-4.2511597,5.345684,0.62514347,0.6277347,0.06430045,7.94291135089627,0.8882509685972168,fall
23/10/2020, 15:46:13,-4.054768,-4.2511597,5.345684,0.77908146,0.56298304,0.009322595,7.94291135089627,0.9612516511836117,fall
23/10/2020, 15:46:13,-3.6500099,-3.791316,5.1804276,0.77908146,0.56298304,0.009322595,7.384678661019681,0.9612516511836117,fall
23/10/2020, 15:46:13,-3.6500099,-3.791316,5.1804276,0.8743764,0.5006748,-0.048098717,7.384678661019681,1.0087233730319938,fall
23/10/2020, 15:46:13,-3.2572267,-3.3697927,5.005591,0.8743764,0.5006748,-0.048098717,6.857183756194062,1.0087233730319938,fall
23/10/2020, 15:46:14,-10.466236,-1.5711329,2.4860303,0.62758696,0.979593,0.09117851,10.871564001609451,1.166953862773308,fall
23/10/2020, 15:46:14,-9.311836,-1.8968556,2.3016138,0.62758696,0.979593,0.09117851,9.777820895770564,1.166953862773308,fall
23/10/2020, 15:46:14,-9.311836,-1.8968556,2.3016138,0.5860481,1.0822183,0.2219036,9.777820895770564,1.2505558935990997,fall
23/10/2020, 15:46:14,-8.8879175,-3.432063,2.2656887,0.5860481,1.0822183,0.2219036,9.79323644423478,1.2505558935990997,fall
23/10/2020, 15:46:14,-8.8879175,-3.432063,2.2656887,0.699669,1.2447084,0.37339813,9.79323644423478,1.4758936012694561,fall
23/10/2020, 15:46:14,-9.685459,-2.2177882,1.2310401,0.699669,1.2447084,0.37339813,10.012100831367736,1.4758936012694561,fall
23/10/2020, 15:46:14,-9.685459,-2.2177882,1.2310401,0.64713466,1.2972428,0.48335382,10.012100831367736,1.528153450749907,fall
23/10/2020, 15:46:14,-9.290281,-0.14370118,0.8813672,0.64713466,1.2972428,0.48335382,9.33310156040548,1.528153450749907,fall
23/10/2020, 15:46:14,-9.290281,-0.14370118,0.8813672,0.4626534,1.223939,0.49190596,9.33310156040548,1.3978720155209887,fall
23/10/2020, 15:46:14,-9.879456,-0.244292,0.99393314,0.4626534,1.223939,0.49190596,9.932332251892241,1.3978720155209887,fall
23/10/2020, 15:46:14,-9.879456,-0.244292,0.99393314,0.36369327,1.14697,0.4894625,9.932332251892241,1.298994451291063,fall
23/10/2020, 15:46:14,-10.820699,-0.05508545,0.5364844,0.36369327,1.14697,0.4894625,10.834129919875885,1.298994451291063,fall
23/10/2020, 15:46:14,-10.820699,-0.05508545,0.5364844,0.3441456,1.0321274,0.4528106,10.834129919875885,1.178456849832232,fall
23/10/2020, 15:46:14,-10.578802,0.6777906,-0.026345216,0.3441456,1.0321274,0.4528106,10.60052584545161,1.178456849832232,fall
23/10/2020, 15:46:14,-10.578802,0.6777906,-0.026345216,0.16699474,0.8268767,0.38317198,10.60052584545161,0.926516638539486,fall
23/10/2020, 15:46:14,-9.618399,0.14130616,-0.28500733,0.16699474,0.8268767,0.38317198,9.623657803233558,0.926516638539486,fall
23/10/2020, 15:46:14,-9.618399,0.14130616,-0.28500733,-0.049251486,0.60330015,0.33063757,9.623657803233558,0.6897231258804307,fall
23/10/2020, 15:46:14,-8.358619,-1.0801538,-0.17962648,-0.049251486,0.60330015,0.33063757,8.430035891478981,0.6897231258804307,fall
23/10/2020, 15:46:14,-8.358619,-1.0801538,-0.17962648,-0.11033799,0.44569695,0.31231162,8.430035891478981,0.555300630636012,fall
23/10/2020, 15:46:14,-8.657996,-1.0202783,-0.29937744,-0.11033799,0.44569695,0.31231162,8.723043766089862,0.555300630636012,fall
23/10/2020, 15:46:14,-8.657996,-1.0202783,-0.29937744,-0.12622048,0.28687206,0.32941586,8.723043766089862,0.4546888992853602,fall
23/10/2020, 15:46:14,-9.958491,-0.4382886,0.09101075,-0.12622048,0.28687206,0.32941586,9.968547001964104,0.4546888992853602,fall
23/10/2020, 15:46:14,-9.958491,-0.4382886,0.09101075,-0.17753313,0.14392966,0.30131605,9.968547001964104,0.37818662678370535,fall
23/10/2020, 15:46:14,-10.181229,-0.25387207,0.6346802,-0.17753313,0.14392966,0.30131605,10.204150458035283,0.37818662678370535,fall
23/10/2020, 15:46:14,-10.181229,-0.25387207,0.6346802,-0.22029369,0.044969518,0.24267302,10.204150458035283,0.3308198336908742,fall
23/10/2020, 15:46:14,-10.145303,-0.122146,0.48139894,-0.22029369,0.044969518,0.24267302,10.157452088574898,0.3308198336908742,fall
23/10/2020, 15:46:14,-10.145303,-0.122146,0.48139894,-0.21662849,-0.045438502,0.18402998,10.157452088574898,0.2878534263210361,fall
23/10/2020, 15:46:14,-9.956097,-0.1460962,1.5016773,-0.21662849,-0.045438502,0.18402998,10.069768578500529,0.2878534263210361,fall
23/10/2020, 15:46:14,-9.956097,-0.1460962,1.5016773,-0.1763114,-0.03810812,0.11439138,10.069768578500529,0.21359617867308875,fall
23/10/2020, 15:46:14,-9.74773,-0.46942386,1.2406201,-0.1763114,-0.03810812,0.11439138,9.837567901155415,0.21359617867308875,fall
23/10/2020, 15:46:15,-9.292676,-1.0178833,2.6321266,0.14866878,0.26976782,-0.1446154,9.711745641926951,0.34028032059965996,fall
23/10/2020, 15:46:15,-9.407638,-0.7161109,2.3638844,0.14866878,0.26976782,-0.1446154,9.726479816881058,0.34028032059965996,fall
23/10/2020, 15:46:15,-9.407638,-0.7161109,2.3638844,0.14989051,0.26488093,-0.18126729,9.726479816881058,0.35424130363871104,fall
23/10/2020, 15:46:15,-9.453142,-0.7879615,2.411785,0.14989051,0.26488093,-0.18126729,9.787721208462171,0.35424130363871104,fall
23/10/2020, 15:46:15,-9.453142,-0.7879615,2.411785,0.12667763,0.25877225,-0.20692363,9.787721208462171,0.354721992832541,fall
23/10/2020, 15:46:15,-9.302257,-1.094524,2.311194,0.12667763,0.25877225,-0.20692363,9.647361185488302,0.354721992832541,fall
23/10/2020, 15:46:15,-9.302257,-1.094524,2.311194,0.09735611,0.25388533,-0.20203671,9.647361185488302,0.3387547846097843,fall
23/10/2020, 15:46:15,-9.340576,-1.1520045,2.2273684,0.09735611,0.25388533,-0.20203671,9.671331207921986,0.3387547846097843,fall
23/10/2020, 15:46:15,-9.340576,-1.1520045,2.2273684,0.07047805,0.23678114,-0.18126729,9.671331207921986,0.30641522919882724,fall
23/10/2020, 15:46:15,-9.15616,-1.468147,2.4093897,0.07047805,0.23678114,-0.18126729,9.581017015972016,0.30641522919882724,fall
23/10/2020, 15:46:15,-9.15616,-1.468147,2.4093897,0.05948249,0.2270073,-0.15438923,9.581017015972016,0.28090303603100236,fall
23/10/2020, 15:46:15,-9.072334,-2.1339624,2.572251,0.05948249,0.2270073,-0.15438923,9.668377349968296,0.28090303603100236,fall
23/10/2020, 15:46:15,-9.072334,-2.1339624,2.572251,0.10346477,0.24655499,-0.10185484,9.668377349968296,0.2861271170948132,fall
23/10/2020, 15:46:15,-9.237591,-2.0381618,2.579436,0.10346477,0.24655499,-0.10185484,9.805135253769347,0.2861271170948132,fall
23/10/2020, 15:46:15,-9.237591,-2.0381618,2.579436,0.15233397,0.26488093,-0.06031602,9.805135253769347,0.3114571666519201,fall
23/10/2020, 15:46:15,-9.453142,-1.4226416,2.3854396,0.15233397,0.26488093,-0.06031602,9.852721871832067,0.3114571666519201,fall
23/10/2020, 15:46:15,-9.453142,-1.4226416,2.3854396,0.13400802,0.2685461,-0.038324878,9.852721871832067,0.30256231741181977,fall
23/10/2020, 15:46:15,-9.568104,-0.85741705,1.9160157,0.13400802,0.2685461,-0.038324878,9.795656714392182,0.30256231741181977,fall
23/10/2020, 15:46:15,-9.568104,-0.85741705,1.9160157,0.05215211,0.23678114,-0.010225086,9.795656714392182,0.2426720024483632,fall
23/10/2020, 15:46:15,-9.644744,-1.2669654,2.0333717,0.05215211,0.23678114,-0.010225086,9.937851225746252,0.2426720024483632,fall
23/10/2020, 15:46:15,-9.644744,-1.2669654,2.0333717,-0.040699374,0.21845518,0.048417956,9.937851225746252,0.2274277981359485,fall
23/10/2020, 15:46:15,-9.4435625,-1.8896705,2.184258,-0.040699374,0.21845518,0.048417956,9.875358744990407,0.2274277981359485,fall
23/10/2020, 15:46:15,-9.4435625,-1.8896705,2.184258,-0.10789453,0.2270073,0.1437129,9.875358744990407,0.28952882390020734,fall
23/10/2020, 15:46:15,-9.297466,-2.2225783,2.459685,-0.10789453,0.2270073,0.1437129,9.870804636025126,0.28952882390020734,fall
23/10/2020, 15:46:15,-9.297466,-2.2225783,2.459685,-0.14332469,0.25877225,0.24878168,9.870804636025126,0.38651956027987705,fall
23/10/2020, 15:46:15,-9.21364,-1.947151,2.4932153,-0.14332469,0.25877225,0.24878168,9.741595630304314,0.38651956027987705,fall
23/10/2020, 15:46:15,-9.21364,-1.947151,2.4932153,-0.13721605,0.29420245,0.32208547,9.741595630304314,0.45729899753685727,fall
23/10/2020, 15:46:15,-9.110655,-1.7244141,2.7806177,-0.13721605,0.29420245,0.32208547,9.680365196768557,0.45729899753685727,fall
23/10/2020, 15:46:15,-9.110655,-1.7244141,2.7806177,-0.06635571,0.35284546,0.34041142,9.680365196768557,0.49475543190542065,fall
23/10/2020, 15:46:15,-8.988508,-1.5136524,2.9051588,-0.06635571,0.35284546,0.34041142,9.56683705477893,0.49475543190542065,fall
23/10/2020, 15:46:16,-9.376502,-0.75203615,1.7627344,0.0680346,0.03641741,-0.06275948,9.570349076151492,0.09946701257471252,fall
23/10/2020, 15:46:16,-9.489068,-0.8095166,1.7387843,0.0680346,0.03641741,-0.06275948,9.680965867643147,0.09946701257471252,fall
23/10/2020, 15:46:16,-9.489068,-0.8095166,1.7387843,0.07536498,0.04985644,-0.063981205,9.680965867643147,0.11072099589292436,fall
23/10/2020, 15:46:16,-9.5633135,-0.7568262,1.4849122,0.07536498,0.04985644,-0.063981205,9.70745666183103,0.11072099589292436,fall
23/10/2020, 15:46:16,-9.5633135,-0.7568262,1.4849122,0.044821728,0.0400826,-0.059094287,9.70745666183103,0.084307395480919,fall
23/10/2020, 15:46:16,-9.589659,-0.6945557,1.334026,0.044821728,0.0400826,-0.059094287,9.706883517820836,0.084307395480919,fall
23/10/2020, 15:46:16,-9.589659,-0.6945557,1.334026,0.014278475,0.015647998,-0.051763907,9.706883517820836,0.05593064252681035,fall
23/10/2020, 15:46:16,-9.522598,-0.852627,1.4920973,0.014278475,0.015647998,-0.051763907,9.676425204693412,0.05593064252681035,fall
23/10/2020, 15:46:16,-9.522598,-0.852627,1.4920973,0.009391556,0.011982808,-0.044433527,9.676425204693412,0.04696942936995871,fall
23/10/2020, 15:46:16,-9.486672,-0.8262818,1.4322218,0.009391556,0.011982808,-0.044433527,9.629691274444895,0.04696942936995871,fall
23/10/2020, 15:46:16,-9.486672,-0.8262818,1.4322218,0.0057263654,0.0034306985,-0.033437956,9.629691274444895,0.03409776917319384,fall
23/10/2020, 15:46:16,-9.498648,-0.7041358,1.5687379,0.0057263654,0.0034306985,-0.033437956,9.653033389211936,0.03409776917319384,fall
23/10/2020, 15:46:16,-9.498648,-0.7041358,1.5687379,0.010613285,0.0070958887,-0.035881415,9.653033389211936,0.038085028534162416,fall
23/10/2020, 15:46:16,-9.326206,-0.855022,1.7339942,0.010613285,0.0070958887,-0.035881415,9.524490585180153,0.038085028534162416,fall
23/10/2020, 15:46:16,-9.326206,-0.855022,1.7339942,0.036269616,0.026643569,-0.044433527,9.524490585180153,0.06324320607045768,fall
23/10/2020, 15:46:16,-9.417217,-0.8095166,1.7148341,0.036269616,0.026643569,-0.044433527,9.606245568949282,0.06324320607045768,fall
23/10/2020, 15:46:16,-9.417217,-0.8095166,1.7148341,0.0558173,0.04374779,-0.050542176,9.606245568949282,0.08708588575221908,fall
23/10/2020, 15:46:16,-9.486672,-0.68976563,1.5567628,0.0558173,0.04374779,-0.050542176,9.638269571868,0.08708588575221908,fall
23/10/2020, 15:46:16,-9.486672,-0.68976563,1.5567628,0.05215211,0.04741298,-0.057872556,9.638269571868,0.09119794883369813,fall
23/10/2020, 15:46:16,-9.532178,-0.67539555,1.477727,0.05215211,0.04741298,-0.057872556,9.669656270694299,0.09119794883369813,fall
23/10/2020, 15:46:16,-9.532178,-0.67539555,1.477727,0.041156538,0.03519568,-0.06275948,9.669656270694299,0.08289359982078945,fall
23/10/2020, 15:46:16,-9.539363,-0.7807764,1.4753321,0.041156538,0.03519568,-0.06275948,9.68429973530349,0.08289359982078945,fall
23/10/2020, 15:46:16,-9.539363,-0.7807764,1.4753321,0.033826157,0.02908703,-0.06642467,9.68429973530349,0.0800156278739948,fall
23/10/2020, 15:46:16,-9.536968,-0.7783814,1.5639478,0.033826157,0.02908703,-0.06642467,9.695647135147452,0.0800156278739948,fall
23/10/2020, 15:46:16,-9.536968,-0.7783814,1.5639478,0.032604426,0.02908703,-0.0676464,9.695647135147452,0.08053036197675875,fall
23/10/2020, 15:46:16,-9.553733,-0.7592212,1.4825171,0.032604426,0.02908703,-0.0676464,9.697839225058278,0.08053036197675875,fall
23/10/2020, 15:46:16,-9.553733,-0.7592212,1.4825171,0.020387124,0.021756649,-0.06642467,9.697839225058278,0.07280949875870214,fall
23/10/2020, 15:46:16,-9.587264,-0.7448511,1.4609619,0.020387124,0.021756649,-0.06642467,9.726502204721063,0.07280949875870214,fall
23/10/2020, 15:46:16,-9.587264,-0.7448511,1.4609619,-0.004047475,0.018091459,-0.06275948,9.726502204721063,0.065440319657197,fall
23/10/2020, 15:46:16,-9.508228,-0.8933423,1.5016773,-0.004047475,0.018091459,-0.06275948,9.667445400630859,0.065440319657197,fall
23/10/2020, 15:46:17,-9.69504,-1.0657837,1.1448194,-0.051694945,-0.045438502,0.027648546,9.820402340343138,0.07417187360743992,fall
23/10/2020, 15:46:17,-9.560919,-0.98435307,1.2286451,-0.051694945,-0.045438502,0.027648546,9.689669145974616,0.07417187360743992,fall
23/10/2020, 15:46:17,-9.560919,-0.98435307,1.2286451,-0.06879917,-0.056434073,0.055748336,9.689669145974616,0.10500479519302526,fall
23/10/2020, 15:46:17,-9.553733,-0.8646021,1.2813355,-0.06879917,-0.056434073,0.055748336,9.67797340130738,0.10500479519302526,fall
23/10/2020, 15:46:17,-9.553733,-0.8646021,1.2813355,-0.05902533,-0.056434073,0.07163083,9.67797340130738,0.10862674391661484,fall
23/10/2020, 15:46:17,-9.335787,-0.7568262,1.6405884,-0.05902533,-0.056434073,0.07163083,9.509007928055262,0.10862674391661484,fall
23/10/2020, 15:46:17,-9.335787,-0.7568262,1.6405884,-0.041921105,-0.030777743,0.067965634,9.509007928055262,0.08558023113676703,fall
23/10/2020, 15:46:17,-9.400452,-0.8095166,1.5567628,-0.041921105,-0.030777743,0.067965634,9.562809159206186,0.08558023113676703,fall
23/10/2020, 15:46:17,-9.400452,-0.8095166,1.5567628,-0.022373427,-0.010008331,0.061856985,9.562809159206186,0.06653588148074406,fall
23/10/2020, 15:46:17,-9.532178,-0.6227051,1.4370118,-0.022373427,-0.010008331,0.061856985,9.659978295131022,0.06653588148074406,fall
23/10/2020, 15:46:17,-9.532178,-0.6227051,1.4370118,-0.018708237,-2.3449166E-4,0.050861415,9.659978295131022,0.054193510561966626,fall
23/10/2020, 15:46:17,-9.491463,-0.5508545,1.5184424,-0.018708237,-2.3449166E-4,0.050861415,9.627926688120024,0.054193510561966626,fall
23/10/2020, 15:46:17,-9.491463,-0.5508545,1.5184424,-0.004047475,0.014426269,0.030092005,9.627926688120024,0.0336158894765575,fall
23/10/2020, 15:46:17,-9.4435625,-0.7376661,1.6932789,-0.004047475,0.014426269,0.030092005,9.622484997637653,0.0336158894765575,fall
23/10/2020, 15:46:17,-9.4435625,-0.7376661,1.6932789,0.022830587,0.041304328,0.011766055,9.622484997637653,0.04863870078343217,fall
23/10/2020, 15:46:17,-9.520203,-0.6706055,1.5399976,0.022830587,0.041304328,0.011766055,9.66724172109674,0.04863870078343217,fall
23/10/2020, 15:46:17,-9.520203,-0.6706055,1.5399976,0.037491348,0.048634708,0.0019922145,9.66724172109674,0.061440254570043144,fall
23/10/2020, 15:46:17,-9.455538,-0.68737066,1.463357,0.037491348,0.048634708,0.0019922145,9.592762222638747,0.061440254570043144,fall
23/10/2020, 15:46:17,-9.455538,-0.68737066,1.463357,0.038713075,0.05352163,-0.0028947059,9.592762222638747,0.06611842656274286,fall
23/10/2020, 15:46:17,-9.596844,-0.7448511,1.2549903,0.038713075,0.05352163,-0.0028947059,9.70717329130606,0.06611842656274286,fall
23/10/2020, 15:46:17,-9.596844,-0.7448511,1.2549903,0.014278475,0.03153049,-0.0016729758,9.70717329130606,0.0346532162053407,fall
23/10/2020, 15:46:17,-9.692644,-0.6993457,1.0035132,0.014278475,0.03153049,-0.0016729758,9.76951755300459,0.0346532162053407,fall
23/10/2020, 15:46:17,-9.692644,-0.6993457,1.0035132,-0.021151695,-0.011230063,7.704842E-4,9.76951755300459,0.023960429301973358,fall
23/10/2020, 15:46:17,-9.5633135,-0.6825806,0.99393314,-0.021151695,-0.011230063,7.704842E-4,9.639024024679488,0.023960429301973358,fall
23/10/2020, 15:46:17,-9.5633135,-0.6825806,0.99393314,-0.041921105,-0.053990614,0.0019922145,9.639024024679488,0.0683837286718362,fall
23/10/2020, 15:46:17,-9.575289,-0.68976563,1.101709,-0.041921105,-0.053990614,0.0019922145,9.663109977871471,0.0683837286718362,fall
23/10/2020, 15:46:17,-9.575289,-0.68976563,1.101709,-0.037034184,-0.07353829,-0.006559896,9.663109977871471,0.08259808030555872,fall
23/10/2020, 15:46:17,-9.412427,-0.732876,1.5471827,-0.037034184,-0.07353829,-0.006559896,9.566852279613562,0.08259808030555872,fall
23/10/2020, 15:46:17,-9.412427,-0.732876,1.5471827,-0.004047475,-0.050325423,-0.026107576,9.566852279613562,0.056838682356717976,fall
23/10/2020, 15:46:17,-9.287886,-0.62989014,1.8034497,-0.004047475,-0.050325423,-0.026107576,9.482299970821405,0.056838682356717976,fall
23/10/2020, 15:46:18,-9.508228,-0.49337405,1.336421,0.0558173,0.063295476,-0.0028947059,9.614356167707504,0.08444091095931386,fall
23/10/2020, 15:46:18,-9.565708,-0.46463382,1.2861255,0.0558173,0.063295476,-0.0028947059,9.66295897256288,0.08444091095931386,fall
23/10/2020, 15:46:18,-9.565708,-0.46463382,1.2861255,0.043599997,0.04619125,-0.016333736,9.66295897256288,0.06558492318452709,fall
23/10/2020, 15:46:18,-9.498648,-0.6466553,1.3699512,0.043599997,0.04619125,-0.016333736,9.618692086869412,0.06558492318452709,fall
23/10/2020, 15:46:18,-9.498648,-0.6466553,1.3699512,0.037491348,0.03275222,-0.026107576,9.618692086869412,0.05621311721547657,fall
23/10/2020, 15:46:18,-9.532178,-0.8143067,1.2669654,0.037491348,0.03275222,-0.026107576,9.650425516873504,0.05621311721547657,fall
23/10/2020, 15:46:18,-9.532178,-0.8143067,1.2669654,0.032604426,0.019313188,-0.024885846,9.650425516873504,0.04533600325994247,fall
23/10/2020, 15:46:18,-9.596844,-0.7951465,1.2933106,0.032604426,0.019313188,-0.024885846,9.716188542302845,0.04533600325994247,fall
23/10/2020, 15:46:18,-9.596844,-0.7951465,1.2933106,0.036269616,9.872383E-4,-0.021220656,9.716188542302845,0.04203303408408964,fall
23/10/2020, 15:46:18,-9.546548,-0.732876,1.3699512,0.036269616,9.872383E-4,-0.021220656,9.672148172373051,0.04203303408408964,fall
23/10/2020, 15:46:18,-9.546548,-0.732876,1.3699512,0.053373836,-0.0051214118,-0.021220656,9.672148172373051,0.05766551371056387,fall
23/10/2020, 15:46:18,-9.553733,-0.7759864,1.4441968,0.053373836,-0.0051214118,-0.021220656,9.693382851053478,0.05766551371056387,fall
23/10/2020, 15:46:18,-9.553733,-0.7759864,1.4441968,0.061925948,-0.002677952,-0.019998927,9.693382851053478,0.06513026553660878,fall
23/10/2020, 15:46:18,-9.553733,-0.73048097,1.4106666,0.061925948,-0.002677952,-0.019998927,9.684905495133075,0.06513026553660878,fall
23/10/2020, 15:46:18,-9.553733,-0.73048097,1.4106666,0.06314768,-0.006343142,-0.023664117,9.684905495133075,0.0677337082867387,fall
23/10/2020, 15:46:18,-9.587264,-0.6849756,1.4370118,0.06314768,-0.006343142,-0.023664117,9.718530074186685,0.0677337082867387,fall
23/10/2020, 15:46:18,-9.587264,-0.6849756,1.4370118,0.060704216,-0.007564872,-0.019998927,9.718530074186685,0.06435981852740595,fall
23/10/2020, 15:46:18,-9.5561285,-0.7568262,1.341211,0.060704216,-0.007564872,-0.019998927,9.67942274713313,0.06435981852740595,fall
23/10/2020, 15:46:18,-9.5561285,-0.7568262,1.341211,0.04848692,-0.017338712,-0.015112006,9.67942274713313,0.053665490698567055,fall
23/10/2020, 15:46:18,-9.572893,-0.75203615,1.2717555,0.04848692,-0.017338712,-0.015112006,9.686237837318624,0.053665490698567055,fall
23/10/2020, 15:46:18,-9.572893,-0.75203615,1.2717555,0.022830587,-0.030777743,-0.005338166,9.686237837318624,0.03869109951990799,fall
23/10/2020, 15:46:18,-9.575289,-0.7232959,1.2525953,0.022830587,-0.030777743,-0.005338166,9.683920026293867,0.03869109951990799,fall
23/10/2020, 15:46:18,-9.575289,-0.7232959,1.2525953,-0.010156126,-0.039329853,0.006879134,9.683920026293867,0.041198382326647624,fall
23/10/2020, 15:46:18,-9.599238,-0.7185059,1.346001,-0.010156126,-0.039329853,0.006879134,9.719740084128992,0.041198382326647624,fall
23/10/2020, 15:46:18,-9.599238,-0.7185059,1.346001,-0.037034184,-0.047881965,0.020318165,9.719740084128992,0.06385171215262495,fall
23/10/2020, 15:46:18,-9.484278,-0.75203615,1.3699512,-0.037034184,-0.047881965,0.020318165,9.612171906951529,0.06385171215262495,fall
23/10/2020, 15:46:18,-9.484278,-0.75203615,1.3699512,-0.039477646,-0.045438502,0.027648546,9.612171906951529,0.0662388413914988,fall
23/10/2020, 15:46:18,-9.412427,-0.9148975,1.6501685,-0.039477646,-0.045438502,0.027648546,9.599680968868084,0.0662388413914988,fall
23/10/2020, 15:46:18,-9.412427,-0.9148975,1.6501685,-0.013821316,-0.027112553,0.039865844,9.599680968868084,0.05015381155169335,fall
23/10/2020, 15:46:18,-9.481883,-0.9244776,1.7387843,-0.013821316,-0.027112553,0.039865844,9.6842209719588,0.05015381155169335,fall
23/10/2020, 15:46:19,-9.374106,-1.0226734,1.839375,0.2671766,-0.023447363,-0.2057019,9.607446706185696,0.338003529860766,fall
23/10/2020, 15:46:19,-9.395662,-0.9532178,1.7866846,0.2671766,-0.023447363,-0.2057019,9.611416979772542,0.338003529860766,fall
23/10/2020, 15:46:19,-9.395662,-0.9532178,1.7866846,0.29405466,-0.007564872,-0.2264713,9.611416979772542,0.3712339163686062,fall
23/10/2020, 15:46:19,-9.527389,-0.732876,1.4322218,0.29405466,-0.007564872,-0.2264713,9.662271961077519,0.3712339163686062,fall
23/10/2020, 15:46:19,-9.527389,-0.732876,1.4322218,0.2830591,-0.022225633,-0.24601899,9.662271961077519,0.37568839653255703,fall
23/10/2020, 15:46:19,-9.690249,-0.9364527,1.2957057,0.2830591,-0.022225633,-0.24601899,9.821238776357337,0.37568839653255703,fall
23/10/2020, 15:46:19,-9.690249,-0.9364527,1.2957057,0.25373757,-0.049103692,-0.24601899,9.821238776357337,0.35681825948865037,fall
23/10/2020, 15:46:19,-9.493857,-0.8981324,1.4346168,0.25373757,-0.049103692,-0.24601899,9.643551999969272,0.35681825948865037,fall
23/10/2020, 15:46:19,-9.493857,-0.8981324,1.4346168,0.21586393,-0.060099263,-0.24479726,9.643551999969272,0.3318657185856842,fall
23/10/2020, 15:46:19,-9.472302,-1.0059083,1.341211,0.21586393,-0.060099263,-0.24479726,9.619522426119598,0.3318657185856842,fall
23/10/2020, 15:46:19,-9.472302,-1.0059083,1.341211,0.17432511,-0.07964694,-0.23257996,9.619522426119598,0.30137404761858966,fall
23/10/2020, 15:46:19,-9.493857,-1.21188,1.5304176,0.17432511,-0.07964694,-0.23257996,9.692479506999666,0.30137404761858966,fall
23/10/2020, 15:46:19,-9.493857,-1.21188,1.5304176,0.16821647,-0.07476002,-0.21303228,9.692479506999666,0.2815467823885929,fall
23/10/2020, 15:46:19,-9.541759,-1.5160475,1.5783179,0.16821647,-0.07476002,-0.21303228,9.7895170090776,0.2815467823885929,fall
23/10/2020, 15:46:19,-9.541759,-1.5160475,1.5783179,0.19265106,-0.061320994,-0.18737595,9.7895170090776,0.2756527567268151,fall
23/10/2020, 15:46:19,-9.565708,-1.5256275,1.6357985,0.19265106,-0.061320994,-0.18737595,9.823754294718858,0.2756527567268151,fall
23/10/2020, 15:46:19,-9.565708,-1.5256275,1.6357985,0.20486836,-0.049103692,-0.15561096,9.823754294718858,0.26191027107248843,fall
23/10/2020, 15:46:19,-9.534574,-1.5064673,1.5376027,0.20486836,-0.049103692,-0.15561096,9.77454646920262,0.26191027107248843,fall
23/10/2020, 15:46:19,-9.534574,-1.5064673,1.5376027,0.1779903,-0.049103692,-0.11773733,9.77454646920262,0.21898355952318102,fall
23/10/2020, 15:46:19,-9.479487,-1.4489869,1.468147,0.1779903,-0.049103692,-0.11773733,9.701324675535336,0.21898355952318102,fall
23/10/2020, 15:46:19,-9.479487,-1.4489869,1.468147,0.16821647,-0.052768882,-0.077420235,9.701324675535336,0.1925492856944473,fall
23/10/2020, 15:46:19,-9.266331,-1.3819263,1.7579445,0.16821647,-0.052768882,-0.077420235,9.532312102957023,0.1925492856944473,fall
23/10/2020, 15:46:19,-9.266331,-1.3819263,1.7579445,0.18043377,-0.036886394,-0.063981205,9.532312102957023,0.1949629304703845,fall
23/10/2020, 15:46:19,-9.287886,-1.1615845,1.7699195,0.18043377,-0.036886394,-0.063981205,9.526106957911825,0.1949629304703845,fall
23/10/2020, 15:46:19,-9.287886,-1.1615845,1.7699195,0.21342048,-0.022225633,-0.06886813,9.526106957911825,0.2253554961776854,fall
23/10/2020, 15:46:19,-9.441168,-0.98435307,1.6908839,0.21342048,-0.022225633,-0.06886813,9.641767952868996,0.2253554961776854,fall
23/10/2020, 15:46:19,-9.441168,-0.98435307,1.6908839,0.22808124,-0.016116982,-0.08719408,9.641767952868996,0.24471129297658897,fall
23/10/2020, 15:46:19,-9.620794,-1.089734,1.4250367,0.22808124,-0.016116982,-0.08719408,9.786620075294106,0.24471129297658897,fall
23/10/2020, 15:46:19,-9.620794,-1.089734,1.4250367,0.22685951,-0.031999473,-0.092080995,9.786620075294106,0.246917219358781,fall
23/10/2020, 15:46:19,-9.673484,-1.1807446,1.3891114,0.22685951,-0.031999473,-0.092080995,9.84378373253654,0.246917219358781,fall
23/10/2020, 15:46:20,-16.700472,0.13172609,-0.028740235,3.4302356,0.56786996,-1.2136291,16.701016098203617,3.6826469268746593,fall
23/10/2020, 15:46:20,-15.110179,1.8226099,0.23471193,3.4302356,0.56786996,-1.2136291,15.221514522768897,3.6826469268746593,fall
23/10/2020, 15:46:20,-15.110179,1.8226099,0.23471193,3.2824063,0.6436172,-1.0267044,15.221514522768897,3.4989364698843914,fall
23/10/2020, 15:46:20,-13.021722,2.1148024,0.19878663,3.2824063,0.6436172,-1.0267044,13.193829801264327,3.4989364698843914,fall
23/10/2020, 15:46:20,-13.021722,2.1148024,0.19878663,2.7436235,0.7230297,-0.7835802,13.193829801264327,2.9435080594060405,fall
23/10/2020, 15:46:20,-11.527229,1.4178516,0.15088624,2.7436235,0.7230297,-0.7835802,11.615080080122938,2.9435080594060405,fall
23/10/2020, 15:46:20,-11.527229,1.4178516,0.15088624,2.016694,0.7890031,-0.48914325,11.615080080122938,2.2200995337961,fall
23/10/2020, 15:46:20,-10.083033,0.8047266,-0.11496094,2.016694,0.7890031,-0.48914325,10.115747500499157,2.2200995337961,fall
23/10/2020, 15:46:20,-10.083033,0.8047266,-0.11496094,1.3154209,0.9111761,-0.27167532,10.115747500499157,1.623077752958403,fall
23/10/2020, 15:46:20,-9.086704,0.3784131,-0.0047900393,1.3154209,0.9111761,-0.27167532,9.094581553289084,1.623077752958403,fall
23/10/2020, 15:46:20,-9.086704,0.3784131,-0.0047900393,0.7998509,1.1042094,-0.10063311,9.094581553289084,1.3671747892027932,fall
23/10/2020, 15:46:20,-8.806487,-0.16525635,-0.21315674,0.7998509,1.1042094,-0.10063311,8.810616335433126,1.3671747892027932,fall
23/10/2020, 15:46:20,-8.806487,-0.16525635,-0.21315674,0.41256246,1.3131253,0.107061,8.810616335433126,1.3805679157282862,fall
23/10/2020, 15:46:20,-8.842413,-0.3520679,-0.0047900393,0.41256246,1.3131253,0.107061,8.849420404512472,1.3805679157282862,fall
23/10/2020, 15:46:20,-8.842413,-0.3520679,-0.0047900393,0.14744705,1.5110456,0.38683715,8.849420404512472,1.5667298257187532,fall
23/10/2020, 15:46:20,-9.192085,-0.2921924,0.65384036,0.14744705,1.5110456,0.38683715,9.219941168909106,1.5667298257187532,fall
23/10/2020, 15:46:20,-9.192085,-0.2921924,0.65384036,-0.048029754,1.6759791,0.69104797,9.219941168909106,1.813493925643242,fall
23/10/2020, 15:46:20,-9.2328005,-0.4406836,1.1352394,-0.048029754,1.6759791,0.69104797,9.312764102066842,1.813493925643242,fall
23/10/2020, 15:46:20,-9.2328005,-0.4406836,1.1352394,-0.19830254,1.7737175,0.9500547,9.312764102066842,2.02188073067595,fall
23/10/2020, 15:46:20,-9.326206,-0.80233157,1.6525636,-0.19830254,1.7737175,0.9500547,9.50541027641588,2.02188073067595,fall
23/10/2020, 15:46:20,-9.326206,-0.80233157,1.6525636,-0.28015846,1.8054825,1.1821834,9.50541027641588,2.176192408887194,fall
23/10/2020, 15:46:20,-9.400452,-1.1280543,2.1243825,-0.28015846,1.8054825,1.1821834,9.703298347467467,2.176192408887194,fall
23/10/2020, 15:46:20,-9.400452,-1.1280543,2.1243825,-0.354684,1.7859348,1.3910992,9.703298347467467,2.291401512619449,fall
23/10/2020, 15:46:20,-9.10347,-1.0370435,2.4213648,-0.354684,1.7859348,1.3910992,9.47689980031493,2.291401512619449,fall
23/10/2020, 15:46:20,-9.10347,-1.0370435,2.4213648,-0.43043125,1.712631,1.5621414,9.47689980031493,2.357681438967107,fall
23/10/2020, 15:46:20,-8.715476,-0.728086,2.6273365,-0.43043125,1.712631,1.5621414,9.131950987942622,2.357681438967107,fall
23/10/2020, 15:46:20,-8.715476,-0.728086,2.6273365,-0.5587129,1.603897,1.7014186,9.131950987942622,2.4040530349520277,fall
23/10/2020, 15:46:20,-8.5430355,-0.85023195,2.5818312,-0.5587129,1.603897,1.7014186,8.965054515762633,2.4040530349520277,fall
23/10/2020, 15:46:20,-8.5430355,-0.85023195,2.5818312,-0.78473294,1.4878327,1.8431394,8.965054515762633,2.4953185585839908,fall
23/10/2020, 15:46:20,-8.698711,-1.3244458,2.2752686,-0.78473294,1.4878327,1.8431394,9.088376297608114,2.4953185585839908,fall
23/10/2020, 15:46:21,-9.067544,-0.62989014,1.5016773,-0.08590339,-0.24702395,-0.045655258,9.21260821497803,0.2654894151328772,fall
23/10/2020, 15:46:21,-9.067544,-0.62989014,1.5016773,-0.037034184,-0.22747627,0.010544324,9.21260821497803,0.2307123024491041,fall
23/10/2020, 15:46:21,-10.030342,-0.3784131,1.2717555,-0.037034184,-0.22747627,0.010544324,10.11772311881209,0.2307123024491041,fall
23/10/2020, 15:46:21,-10.030342,-0.3784131,1.2717555,-0.033368994,-0.17982881,0.028870275,10.11772311881209,0.18516312431535345,fall
23/10/2020, 15:46:21,-9.12263,0.21076173,1.9160157,-0.033368994,-0.17982881,0.028870275,9.324050468072114,0.18516312431535345,fall
23/10/2020, 15:46:21,-9.12263,0.21076173,1.9160157,-0.007712665,-0.055212345,-0.012668546,9.324050468072114,0.05716974990550755,fall
23/10/2020, 15:46:21,-7.9538603,0.038320314,1.6453785,-0.007712665,-0.055212345,-0.012668546,8.122353855703505,0.05716974990550755,fall
23/10/2020, 15:46:21,-7.9538603,0.038320314,1.6453785,0.09246919,0.04374779,-0.022442386,8.122353855703505,0.1047286086739086,fall
23/10/2020, 15:46:21,-9.544153,-0.8262818,2.0070264,0.09246919,0.04374779,-0.022442386,9.787837210495036,0.1047286086739086,fall
23/10/2020, 15:46:21,-9.544153,-0.8262818,2.0070264,0.14622532,0.117051594,-0.043211795,9.787837210495036,0.19222429249408549,fall
23/10/2020, 15:46:21,-9.711804,-0.083825685,1.3507911,0.14622532,0.117051594,-0.043211795,9.805651831525111,0.19222429249408549,fall
23/10/2020, 15:46:21,-9.711804,-0.083825685,1.3507911,0.15477744,0.13171235,-0.1165156,9.805651831525111,0.2342649833439295,fall
23/10/2020, 15:46:21,-9.400452,0.023950197,1.0154883,0.15477744,0.13171235,-0.1165156,9.455172206108358,0.2342649833439295,fall
23/10/2020, 15:46:21,-9.400452,0.023950197,1.0154883,0.123012446,0.07429104,-0.1287329,9.455172206108358,0.1929336198849766,fall
23/10/2020, 15:46:21,-11.060201,-0.102985844,0.33530274,0.123012446,0.07429104,-0.1287329,11.065761308734121,0.1929336198849766,fall
23/10/2020, 15:46:21,-11.060201,-0.102985844,0.33530274,0.10957342,-0.024669092,-0.10307657,11.065761308734121,0.15244565234910792,fall
23/10/2020, 15:46:21,-10.765614,-0.22752686,0.81909674,0.10957342,-0.024669092,-0.10307657,10.799126037906987,0.15244565234910792,fall
23/10/2020, 15:46:21,-10.765614,-0.22752686,0.81909674,0.009391556,-0.10163808,0.0044356743,10.799126037906987,0.10216738991467719,fall
23/10/2020, 15:46:21,-10.806329,-2.0357666,0.80712163,0.009391556,-0.10163808,0.0044356743,11.025993494911502,0.10216738991467719,fall
23/10/2020, 15:46:21,-10.806329,-2.0357666,0.80712163,-0.022373427,-0.15172902,0.15470846,11.025993494911502,0.21784621309585905,fall
23/10/2020, 15:46:21,-9.026829,-2.3590944,1.4058765,-0.022373427,-0.15172902,0.15470846,9.435330023387658,0.21784621309585905,fall
23/10/2020, 15:46:21,-9.026829,-2.3590944,1.4058765,-0.023595154,-0.15172902,0.2988726,9.435330023387658,0.3360107902259254,fall
23/10/2020, 15:46:21,-8.499925,-1.5208374,1.343606,-0.023595154,-0.15172902,0.2988726,8.738818156263177,0.3360107902259254,fall
23/10/2020, 15:46:21,-8.499925,-1.5208374,1.343606,-0.054138403,-0.10041635,0.4491454,8.738818156263177,0.46340695474866056,fall
23/10/2020, 15:46:21,-9.436378,-0.39996827,1.4968873,-0.054138403,-0.10041635,0.4491454,9.56273324328362,0.46340695474866056,fall
23/10/2020, 15:46:21,-9.436378,-0.39996827,1.4968873,-0.07612955,-0.058877535,0.4980146,9.56273324328362,0.5072285610705248,fall
23/10/2020, 15:46:21,-10.31535,0.22992188,1.6741188,-0.07612955,-0.058877535,0.4980146,10.452845288107119,0.5072285610705248,fall
23/10/2020, 15:46:21,-10.31535,0.22992188,1.6741188,-0.11155972,-0.03810812,0.47113654,10.452845288107119,0.48566185694269925,fall
23/10/2020, 15:46:21,-10.36804,0.69216067,1.0681788,-0.11155972,-0.03810812,0.47113654,10.445877056489712,0.48566185694269925,fall
23/10/2020, 15:46:21,-10.36804,0.69216067,1.0681788,-0.22029369,-0.061320994,0.41005003,10.445877056489712,0.46950037606392686,fall
23/10/2020, 15:46:22,-9.575289,-0.2706372,1.6836988,-0.44509202,-0.382636,0.28054667,9.72595708090214,0.6505564206238252,fall
23/10/2020, 15:46:22,-9.381292,-0.15088624,1.9902613,-0.44509202,-0.382636,0.28054667,9.59127482617989,0.6505564206238252,fall
23/10/2020, 15:46:22,-9.381292,-0.15088624,1.9902613,-0.45364413,-0.36797523,0.27321628,9.59127482617989,0.6448611489497983,fall
23/10/2020, 15:46:22,-9.299861,0.11496094,2.066902,-0.45364413,-0.36797523,0.27321628,9.527471508357023,0.6448611489497983,fall
23/10/2020, 15:46:22,-9.299861,0.11496094,2.066902,-0.43409643,-0.3545362,0.24878168,9.527471508357023,0.6132111811855181,fall
23/10/2020, 15:46:22,-9.520203,0.014370117,1.9016455,-0.43409643,-0.3545362,0.24878168,9.708281027493534,0.6132111811855181,fall
23/10/2020, 15:46:22,-9.520203,0.014370117,1.9016455,-0.40721837,-0.3582014,0.22434707,9.708281027493534,0.5869128208718376,fall
23/10/2020, 15:46:22,-9.522598,-0.3424878,2.0549269,-0.40721837,-0.3582014,0.22434707,9.747815144881944,0.5869128208718376,fall
23/10/2020, 15:46:22,-9.522598,-0.3424878,2.0549269,-0.38522723,-0.3545362,0.2170167,9.747815144881944,0.5667382014255322,fall
23/10/2020, 15:46:22,-9.508228,-0.51492923,1.9160157,-0.38522723,-0.3545362,0.2170167,9.713015695039697,0.5667382014255322,fall
23/10/2020, 15:46:22,-9.508228,-0.51492923,1.9160157,-0.3876707,-0.37652734,0.2341209,9.713015695039697,0.5889601038211334,fall
23/10/2020, 15:46:22,-9.577683,-0.5388794,1.695674,-0.3876707,-0.37652734,0.2341209,9.741546148666654,0.5889601038211334,fall
23/10/2020, 15:46:22,-9.577683,-0.5388794,1.695674,-0.4084401,-0.4192879,0.27199453,9.741546148666654,0.6454507617205271,fall
23/10/2020, 15:46:22,-9.565708,-0.62031007,1.6621436,-0.4084401,-0.4192879,0.27199453,9.728837468984871,0.6454507617205271,fall
23/10/2020, 15:46:22,-9.565708,-0.62031007,1.6621436,-0.44631374,-0.4388356,0.30864644,9.728837468984871,0.6978791118064269,fall
23/10/2020, 15:46:22,-9.534574,-0.35685793,1.8585353,-0.44631374,-0.4388356,0.30864644,9.720575799713052,0.6978791118064269,fall
23/10/2020, 15:46:22,-9.534574,-0.35685793,1.8585353,-0.50251335,-0.45471808,0.32575065,9.720575799713052,0.7519319692798385,fall
23/10/2020, 15:46:22,-9.359736,-0.34488282,2.0357666,-0.50251335,-0.45471808,0.32575065,9.58477731025393,0.7519319692798385,fall
23/10/2020, 15:46:22,-9.359736,-0.34488282,2.0357666,-0.5293914,-0.46082672,0.34163314,9.58477731025393,0.7805957571921525,fall
23/10/2020, 15:46:22,-9.182506,-0.244292,2.4022048,-0.5293914,-0.46082672,0.34163314,9.494665633302805,0.7805957571921525,fall
23/10/2020, 15:46:22,-9.182506,-0.244292,2.4022048,-0.4402051,-0.42784002,0.33430278,9.494665633302805,0.6989892450280877,fall
23/10/2020, 15:46:22,-9.134604,-0.14370118,3.2692018,-0.4402051,-0.42784002,0.33430278,9.703057697420128,0.6989892450280877,fall
23/10/2020, 15:46:22,-9.134604,-0.14370118,3.2692018,-0.29726267,-0.34964928,0.2866553,9.703057697420128,0.541101633979995,fall
23/10/2020, 15:46:22,-9.386082,-0.13172609,2.8285182,-0.29726267,-0.34964928,0.2866553,9.803896995326244,0.541101633979995,fall
23/10/2020, 15:46:22,-9.386082,-0.13172609,2.8285182,-0.20563293,-0.29589316,0.24755993,9.803896995326244,0.4371768347142083,fall
23/10/2020, 15:46:22,-9.304651,0.16525635,2.4884255,-0.20563293,-0.29589316,0.24755993,9.633073558021213,0.4371768347142083,fall
23/10/2020, 15:46:22,-9.304651,0.16525635,2.4884255,-0.16531584,-0.27390203,0.22068188,9.633073558021213,0.3886542648726614,fall
23/10/2020, 15:46:22,-9.285491,0.0023950196,2.5123756,-0.16531584,-0.27390203,0.22068188,9.619375227990396,0.3886542648726614,fall
23/10/2020, 15:46:22,-9.285491,0.0023950196,2.5123756,-0.15554199,-0.2677934,0.21090804,9.619375227990396,0.3746849465899185,fall
23/10/2020, 15:46:22,-9.426797,-0.14370118,2.0381618,-0.15554199,-0.2677934,0.21090804,9.645685740735725,0.3746849465899185,fall
23/10/2020, 15:46:23,-9.302257,-0.05508545,2.9650342,0.2842808,0.25388533,-0.03221623,9.763526004836782,0.38250650014025184,fall
23/10/2020, 15:46:23,-9.481883,0.17244141,2.7183473,0.2842808,0.25388533,-0.03221623,9.865356268156857,0.38250650014025184,fall
23/10/2020, 15:46:23,-9.481883,0.17244141,2.7183473,0.22930296,0.22089864,-0.024885846,9.865356268156857,0.3193671277297821,fall
23/10/2020, 15:46:23,-9.524993,0.22513184,2.4093897,0.22930296,0.22089864,-0.024885846,9.82758026155682,0.3193671277297821,fall
23/10/2020, 15:46:23,-9.524993,0.22513184,2.4093897,0.13767321,0.1622556,-0.012668546,9.82758026155682,0.21316961721070096,fall
23/10/2020, 15:46:23,-9.273516,0.1341211,2.4740553,0.13767321,0.1622556,-0.012668546,9.598803650041402,0.21316961721070096,fall
23/10/2020, 15:46:23,-9.273516,0.1341211,2.4740553,0.08513881,0.12316024,-0.0016729758,9.598803650041402,0.14973263416430993,fall
23/10/2020, 15:46:23,-9.249566,0.0,2.5459058,0.08513881,0.12316024,-0.0016729758,9.593545180077989,0.14973263416430993,fall
23/10/2020, 15:46:23,-9.249566,0.0,2.5459058,0.07169978,0.10972121,0.0019922145,9.593545180077989,0.13108612641912884,fall
23/10/2020, 15:46:23,-9.17053,0.2083667,2.7710378,0.07169978,0.10972121,0.0019922145,9.582311495847167,0.13108612641912884,fall
23/10/2020, 15:46:23,-9.17053,0.2083667,2.7710378,0.07536498,0.10972121,-0.009003356,9.582311495847167,0.13341545977448552,fall
23/10/2020, 15:46:23,-9.192085,0.09340577,2.8907888,0.07536498,0.10972121,-0.009003356,9.636379819519272,0.13341545977448552,fall
23/10/2020, 15:46:23,-9.192085,0.09340577,2.8907888,0.114460334,0.12682544,-0.023664117,9.636379819519272,0.17246985239523166,fall
23/10/2020, 15:46:23,-9.204061,0.028740235,3.0344899,0.114460334,0.12682544,-0.023664117,9.691423294007894,0.17246985239523166,fall
23/10/2020, 15:46:23,-9.204061,0.028740235,3.0344899,0.16455127,0.1500383,-0.045655258,9.691423294007894,0.2273169946914932,fall
23/10/2020, 15:46:23,-9.271121,-0.011975098,2.8859987,0.16455127,0.1500383,-0.045655258,9.709933939559441,0.2273169946914932,fall
23/10/2020, 15:46:23,-9.271121,-0.011975098,2.8859987,0.18532069,0.15126003,-0.055429097,9.709933939559441,0.245551910450888,fall
23/10/2020, 15:46:23,-9.263936,0.011975098,2.6967921,0.18532069,0.15126003,-0.055429097,9.648489113693007,0.245551910450888,fall
23/10/2020, 15:46:23,-9.263936,0.011975098,2.6967921,0.19631626,0.14637311,-0.055429097,9.648489113693007,0.2510727870301224,fall
23/10/2020, 15:46:23,-9.2328005,0.100590825,2.7207422,0.19631626,0.14637311,-0.055429097,9.625859002935092,0.2510727870301224,fall
23/10/2020, 15:46:23,-9.2328005,0.100590825,2.7207422,0.18287723,0.137821,-0.055429097,9.625859002935092,0.23560792496996383,fall
23/10/2020, 15:46:23,-9.285491,0.05748047,2.574646,0.18287723,0.137821,-0.055429097,9.635997557548478,0.23560792496996383,fall
23/10/2020, 15:46:23,-9.285491,0.05748047,2.574646,0.15477744,0.12804717,-0.044433527,9.635997557548478,0.20573398050819539,fall
23/10/2020, 15:46:23,-9.335787,0.23471193,2.5842261,0.15477744,0.12804717,-0.044433527,9.689697101918954,0.20573398050819539,fall
23/10/2020, 15:46:23,-9.335787,0.23471193,2.5842261,0.11201687,0.117051594,-0.040768337,9.689697101918954,0.1670655931855975,fall
23/10/2020, 15:46:23,-9.436378,0.15328126,2.5578809,0.11201687,0.117051594,-0.040768337,9.778111808140125,0.1670655931855975,fall
23/10/2020, 15:46:23,-9.436378,0.15328126,2.5578809,0.065591134,0.097503915,-0.03221623,9.778111808140125,0.12184865933705666,fall
23/10/2020, 15:46:23,-9.316627,-0.023950197,2.6249416,0.065591134,0.097503915,-0.03221623,9.67938129214018,0.12184865933705666,fall
23/10/2020, 15:46:23,-9.316627,-0.023950197,2.6249416,0.046043456,0.08528661,-0.022442386,9.67938129214018,0.09948601051936742,fall
23/10/2020, 15:46:23,-9.280701,0.031135255,2.5938063,0.046043456,0.08528661,-0.022442386,9.636400029689622,0.09948601051936742,fall
23/10/2020, 15:46:24,-9.302257,0.038320314,2.703977,0.004504635,0.010761078,0.028870275,9.68735971277831,0.031138165303813903,fall
23/10/2020, 15:46:24,-9.163345,0.050295413,2.9027638,0.004504635,0.010761078,0.028870275,9.612255995519957,0.031138165303813903,fall
23/10/2020, 15:46:24,-9.163345,0.050295413,2.9027638,0.030160967,0.03275222,0.028870275,9.612255995519957,0.05306490956063185,fall
23/10/2020, 15:46:24,-9.239985,0.09101075,2.7399025,0.030160967,0.03275222,0.028870275,9.63808487500958,0.05306490956063185,fall
23/10/2020, 15:46:24,-9.239985,0.09101075,2.7399025,0.046043456,0.04374779,0.027648546,9.63808487500958,0.06926984215582566,fall
23/10/2020, 15:46:24,-9.216036,0.20597169,2.7638526,0.046043456,0.04374779,0.027648546,9.623753018847978,0.06926984215582566,fall
23/10/2020, 15:46:24,-9.216036,0.20597169,2.7638526,0.05948249,0.05352163,0.022761624,9.623753018847978,0.08319148290995491,fall
23/10/2020, 15:46:24,-9.304651,0.27303225,2.6009912,0.05948249,0.05352163,0.022761624,9.665207559255476,0.08319148290995491,fall
23/10/2020, 15:46:24,-9.304651,0.27303225,2.6009912,0.060704216,0.04985644,0.015431244,9.665207559255476,0.08005491681400786,fall
23/10/2020, 15:46:24,-9.390872,0.24189699,2.5842261,0.060704216,0.04985644,0.015431244,9.742957241107527,0.08005491681400786,fall
23/10/2020, 15:46:24,-9.390872,0.24189699,2.5842261,0.04848692,0.0400826,0.015431244,9.742957241107527,0.06477437260895129,fall
23/10/2020, 15:46:24,-9.251961,0.20597169,2.5842261,0.04848692,0.0400826,0.015431244,9.608299893089344,0.06477437260895129,fall
23/10/2020, 15:46:24,-9.251961,0.20597169,2.5842261,0.032604426,0.03641741,0.016652975,9.608299893089344,0.05163911233988658,fall
23/10/2020, 15:46:24,-9.359736,0.19878663,2.4956105,0.032604426,0.03641741,0.016652975,9.688769480417866,0.05163911233988658,fall
23/10/2020, 15:46:24,-9.359736,0.19878663,2.4956105,0.013056746,0.024200108,0.025205085,9.688769480417866,0.03730174452641911,fall
23/10/2020, 15:46:24,-9.359736,0.14849122,2.572251,0.013056746,0.024200108,0.025205085,9.707893259736114,0.03730174452641911,fall
23/10/2020, 15:46:24,-9.359736,0.14849122,2.572251,-0.001604015,0.013204537,0.032535464,9.707893259736114,0.03514952432272624,fall
23/10/2020, 15:46:24,-9.268726,0.05269043,2.6369166,-0.001604015,0.013204537,0.032535464,9.63666922565265,0.03514952432272624,fall
23/10/2020, 15:46:24,-9.268726,0.05269043,2.6369166,0.008169825,0.010761078,0.033757195,9.63666922565265,0.03636062511704183,fall
23/10/2020, 15:46:24,-9.206455,0.1460962,2.6608667,0.008169825,0.010761078,0.033757195,9.584381764554337,0.03636062511704183,fall
23/10/2020, 15:46:24,-9.206455,0.1460962,2.6608667,0.025274046,0.011982808,0.028870275,9.584381764554337,0.040197734599616314,fall
23/10/2020, 15:46:24,-9.287886,0.30895755,2.5962012,0.025274046,0.011982808,0.028870275,9.648861875003274,0.040197734599616314,fall
23/10/2020, 15:46:24,-9.287886,0.30895755,2.5962012,0.035047885,0.009539349,0.016652975,9.648861875003274,0.039958415992149866,fall
23/10/2020, 15:46:24,-9.328602,0.34009278,2.6153615,0.035047885,0.009539349,0.016652975,9.694255559823237,0.039958415992149866,fall
23/10/2020, 15:46:24,-9.328602,0.34009278,2.6153615,0.037491348,0.0070958887,7.704842E-4,9.694255559823237,0.038164727571517364,fall
23/10/2020, 15:46:24,-9.273516,0.2921924,2.6033864,0.037491348,0.0070958887,7.704842E-4,9.63644595373564,0.038164727571517364,fall
23/10/2020, 15:46:24,-9.273516,0.2921924,2.6033864,0.044821728,0.0034306985,-0.013890276,9.63644595373564,0.04704993894899276,fall
23/10/2020, 15:46:24,-9.235196,0.29698244,2.7614577,0.044821728,0.0034306985,-0.013890276,9.643790455629242,0.04704993894899276,fall
23/10/2020, 15:46:24,-9.235196,0.29698244,2.7614577,0.054595567,0.011982808,-0.026107576,9.643790455629242,0.06169172686389503,fall
23/10/2020, 15:46:24,-9.326206,0.366438,2.668052,0.054595567,0.011982808,-0.026107576,9.707260184033613,0.06169172686389503,fall
23/10/2020, 15:46:25,-9.354947,0.2802173,2.3902297,0.014278475,-0.011230063,0.022761624,9.659542163962106,0.02912182520144204,fall
23/10/2020, 15:46:25,-9.280701,0.30177248,2.4213648,0.014278475,-0.011230063,0.022761624,9.596117924641854,0.02912182520144204,fall
23/10/2020, 15:46:25,-9.280701,0.30177248,2.4213648,-0.010156126,-0.028334282,0.027648546,9.596117924641854,0.04087077844958115,fall
23/10/2020, 15:46:25,-9.402847,0.23950197,2.3974147,-0.010156126,-0.028334282,0.027648546,9.706621220639022,0.04087077844958115,fall
23/10/2020, 15:46:25,-9.402847,0.23950197,2.3974147,-0.026038613,-0.040551584,0.032535464,9.706621220639022,0.058146339075778396,fall
23/10/2020, 15:46:25,-9.347761,0.244292,2.5291407,-0.026038613,-0.040551584,0.032535464,9.686943269929149,0.058146339075778396,fall
23/10/2020, 15:46:25,-9.347761,0.244292,2.5291407,-0.029703803,-0.04177331,0.031313736,9.686943269929149,0.060065593929122994,fall
23/10/2020, 15:46:25,-9.283096,0.1101709,2.6081765,-0.029703803,-0.04177331,0.031313736,9.643163344582694,0.060065593929122994,fall
23/10/2020, 15:46:25,-9.283096,0.1101709,2.6081765,-0.018708237,-0.040551584,0.032535464,9.643163344582694,0.055253827791376935,fall
23/10/2020, 15:46:25,-9.268726,0.14130616,2.5962012,-0.018708237,-0.040551584,0.032535464,9.626500721244195,0.055253827791376935,fall
23/10/2020, 15:46:25,-9.268726,0.14130616,2.5962012,-0.008934394,-0.033221204,0.038644116,9.626500721244195,0.051738182405590194,fall
23/10/2020, 15:46:25,-9.263936,0.32093263,2.6608667,-0.008934394,-0.033221204,0.038644116,9.64384366058152,0.051738182405590194,fall
23/10/2020, 15:46:25,-9.263936,0.32093263,2.6608667,-0.0064909356,-0.023447363,0.030092005,9.64384366058152,0.03869676741694361,fall
23/10/2020, 15:46:25,-9.261541,0.34967285,2.7422974,-0.0064909356,-0.023447363,0.030092005,9.66533055201901,0.03869676741694361,fall
23/10/2020, 15:46:25,-9.261541,0.34967285,2.7422974,-0.0028257454,-0.014895253,0.022761624,9.66533055201901,0.027348581983159228,fall
23/10/2020, 15:46:25,-9.3453665,0.26105714,2.6129665,-0.0028257454,-0.014895253,0.022761624,9.707297232649035,0.027348581983159228,fall
23/10/2020, 15:46:25,-9.3453665,0.26105714,2.6129665,0.0020611752,-0.013673522,0.019096434,9.707297232649035,0.023577265139238916,fall
23/10/2020, 15:46:25,-9.292676,0.29698244,2.543511,0.0020611752,-0.013673522,0.019096434,9.639059760022278,0.023577265139238916,fall
23/10/2020, 15:46:25,-9.292676,0.29698244,2.543511,-0.0028257454,-0.013673522,0.017874705,9.639059760022278,0.0226816025997239,fall
23/10/2020, 15:46:25,-9.364527,0.366438,2.435735,-0.0028257454,-0.013673522,0.017874705,9.68304925957416,0.0226816025997239,fall
23/10/2020, 15:46:25,-9.364527,0.366438,2.435735,-0.024816886,-0.029556014,0.017874705,9.68304925957416,0.04253164492589376,fall
23/10/2020, 15:46:25,-9.304651,0.21315674,2.5123756,-0.024816886,-0.029556014,0.017874705,9.64022831660744,0.04253164492589376,fall
23/10/2020, 15:46:25,-9.304651,0.21315674,2.5123756,-0.035812456,-0.035664663,0.022761624,9.64022831660744,0.05543096358696486,fall
23/10/2020, 15:46:25,-9.347761,0.244292,2.4764502,-0.035812456,-0.035664663,0.022761624,9.673320153739475,0.05543096358696486,fall
23/10/2020, 15:46:25,-9.347761,0.244292,2.4764502,-0.048029754,-0.042995043,0.025205085,9.673320153739475,0.06921508031361519,fall
23/10/2020, 15:46:25,-9.309442,0.34488282,2.4764502,-0.048029754,-0.042995043,0.025205085,9.639369899189024,0.06921508031361519,fall
23/10/2020, 15:46:25,-9.309442,0.34488282,2.4764502,-0.057803597,-0.046660233,0.022761624,9.639369899189024,0.07769507560081412,fall
23/10/2020, 15:46:25,-9.19927,0.31853762,2.6560767,-0.057803597,-0.046660233,0.022761624,9.580333115069367,0.07769507560081412,fall
23/10/2020, 15:46:25,-9.19927,0.31853762,2.6560767,-0.040699374,-0.033221204,0.016652975,9.580333115069367,0.05511269369733603,fall
23/10/2020, 15:46:25,-9.261541,0.22752686,2.7063723,-0.040699374,-0.033221204,0.016652975,9.651547428858338,0.05511269369733603,fall
23/10/2020, 15:46:26,-9.290281,0.20597169,2.6129665,-0.030925535,-0.016116982,-0.010225086,9.652944888317252,0.036341411474778686,fall
23/10/2020, 15:46:26,-9.256751,0.06706055,2.6560767,-0.030925535,-0.016116982,-0.010225086,9.630507805344418,0.036341411474778686,fall
23/10/2020, 15:46:26,-9.256751,0.06706055,2.6560767,-0.015043045,-0.006343142,-0.0077816257,9.630507805344418,0.01808541859436847,fall
23/10/2020, 15:46:26,-9.24717,-0.023950197,2.7159522,-0.015043045,-0.006343142,-0.0077816257,9.63779700119816,0.01808541859436847,fall
23/10/2020, 15:46:26,-9.24717,-0.023950197,2.7159522,-0.0028257454,0.0070958887,-0.0028947059,9.63779700119816,0.008167973784296395,fall
23/10/2020, 15:46:26,-9.273516,0.0047900393,2.6896071,-0.0028257454,0.0070958887,-0.0028947059,9.655677241522788,0.008167973784296395,fall
23/10/2020, 15:46:26,-9.273516,0.0047900393,2.6896071,8.394448E-4,0.013204537,0.009322595,9.655677241522788,0.01618564946182746,fall
23/10/2020, 15:46:26,-9.319021,-0.0071850587,2.6512868,8.394448E-4,0.013204537,0.009322595,9.688835333872577,0.01618564946182746,fall
23/10/2020, 15:46:26,-9.319021,-0.0071850587,2.6512868,-0.0028257454,0.016869728,0.019096434,9.688835333872577,0.02563681609701704,fall
23/10/2020, 15:46:26,-9.24717,0.05269043,2.6512868,-0.0028257454,0.016869728,0.019096434,9.619888746333073,0.02563681609701704,fall
23/10/2020, 15:46:26,-9.24717,0.05269043,2.6512868,8.394448E-4,0.021756649,0.021539895,9.619888746333073,0.03062716955255308,fall
23/10/2020, 15:46:26,-9.2256155,0.07424561,2.663262,8.394448E-4,0.021756649,0.021539895,9.602627644929619,0.03062716955255308,fall
23/10/2020, 15:46:26,-9.2256155,0.07424561,2.663262,8.394448E-4,0.024200108,0.019096434,9.602627644929619,0.03083867192389785,fall
23/10/2020, 15:46:26,-9.287886,0.19160157,2.579436,8.394448E-4,0.024200108,0.019096434,9.641318463420376,0.03083867192389785,fall
23/10/2020, 15:46:26,-9.287886,0.19160157,2.579436,-0.0028257454,0.02542184,0.0142095145,9.641318463420376,0.029260298144646927,fall
23/10/2020, 15:46:26,-9.302257,0.2083667,2.5698562,-0.0028257454,0.02542184,0.0142095145,9.652955762899941,0.029260298144646927,fall
23/10/2020, 15:46:26,-9.302257,0.2083667,2.5698562,-0.011377855,0.02542184,0.0081008645,9.652955762899941,0.029006025288098047,fall
23/10/2020, 15:46:26,-9.299861,0.2203418,2.5411158,-0.011377855,0.02542184,0.0081008645,9.643299932511823,0.029006025288098047,fall
23/10/2020, 15:46:26,-9.299861,0.2203418,2.5411158,-0.017486505,0.016869728,0.0056574047,9.643299932511823,0.024947380596862873,fall
23/10/2020, 15:46:26,-9.342972,0.1460962,2.5411158,-0.017486505,0.016869728,0.0056574047,9.683477448614513,0.024947380596862873,fall
23/10/2020, 15:46:26,-9.342972,0.1460962,2.5411158,-0.013821316,0.0070958887,0.009322595,9.683477448614513,0.018118807525900567,fall
23/10/2020, 15:46:26,-9.319021,0.081430666,2.5985963,-0.013821316,0.0070958887,0.009322595,9.674889686936503,0.018118807525900567,fall
23/10/2020, 15:46:26,-9.319021,0.081430666,2.5985963,-0.0028257454,0.004652428,0.0056574047,9.674889686936503,0.007850869412001296,fall
23/10/2020, 15:46:26,-9.235196,0.13172609,2.6105714,-0.0028257454,0.004652428,0.0056574047,9.597983224166205,0.007850869412001296,fall
23/10/2020, 15:46:26,-9.235196,0.13172609,2.6105714,0.0057263654,0.0058741583,0.0044356743,9.597983224166205,0.009325888862265866,fall
23/10/2020, 15:46:26,-9.283096,0.10777588,2.5459058,0.0057263654,0.0058741583,0.0044356743,9.626480628634038,0.009325888862265866,fall
23/10/2020, 15:46:26,-9.283096,0.10777588,2.5459058,0.015500206,0.004652428,7.704842E-4,9.626480628634038,0.016201700672067658,fall
23/10/2020, 15:46:26,-9.309442,0.15088624,2.675237,0.015500206,0.004652428,7.704842E-4,9.68738156693371,0.016201700672067658,fall
23/10/2020, 15:46:26,-9.309442,0.15088624,2.675237,0.027717505,0.014426269,-0.012668546,9.68738156693371,0.03371749332195757,fall
23/10/2020, 15:46:26,-9.287886,0.21315674,2.6896071,0.027717505,0.014426269,-0.012668546,9.671827258921677,0.03371749332195757,fall
23/10/2020, 15:46:27,-9.328602,0.10538086,2.5099807,-0.001604015,0.024200108,-0.013890276,9.66094821273999,0.02794920117873198,fall
23/10/2020, 15:46:27,-9.359736,0.040715333,2.6009912,-0.001604015,0.024200108,-0.013890276,9.714498416823066,0.02794920117873198,fall
23/10/2020, 15:46:27,-9.359736,0.040715333,2.6009912,-0.007712665,0.02908703,-0.015112006,9.714498416823066,0.033673627801592054,fall
23/10/2020, 15:46:27,-9.3453665,0.05508545,2.5051906,-0.007712665,0.02908703,-0.015112006,9.675478748424434,0.033673627801592054,fall
23/10/2020, 15:46:27,-9.3453665,0.05508545,2.5051906,-0.018708237,0.027865298,-0.009003356,9.675478748424434,0.03474958089452022,fall
23/10/2020, 15:46:27,-9.2328005,0.06227051,2.6369166,-0.018708237,0.027865298,-0.009003356,9.602177447908181,0.03474958089452022,fall
23/10/2020, 15:46:27,-9.2328005,0.06227051,2.6369166,-0.022373427,0.044969518,7.704842E-4,9.602177447908181,0.05023366793326108,fall
23/10/2020, 15:46:27,-9.309442,0.06945557,2.672842,-0.022373427,0.044969518,7.704842E-4,9.685794280828462,0.05023366793326108,fall
23/10/2020, 15:46:27,-9.309442,0.06945557,2.672842,-0.028482076,0.058408547,0.0044356743,9.685794280828462,0.06513418635656865,fall
23/10/2020, 15:46:27,-9.314231,-0.047900394,2.672842,-0.028482076,0.058408547,0.0044356743,9.690267104298998,0.06513418635656865,fall
23/10/2020, 15:46:27,-9.314231,-0.047900394,2.672842,-0.032147266,0.075512774,0.009322595,9.690267104298998,0.08259864747634359,fall
23/10/2020, 15:46:27,-9.268726,0.016765138,2.6608667,-0.032147266,0.075512774,0.009322595,9.643120915670501,0.08259864747634359,fall
23/10/2020, 15:46:27,-9.268726,0.016765138,2.6608667,-0.028482076,0.090173535,0.012987785,9.643120915670501,0.09545248883229668,fall
23/10/2020, 15:46:27,-9.251961,0.11256592,2.5770411,-0.028482076,0.090173535,0.012987785,9.604821183733984,0.09545248883229668,fall
23/10/2020, 15:46:27,-9.251961,0.11256592,2.5770411,-0.030925535,0.097503915,0.0142095145,9.604821183733984,0.10327299995752003,fall
23/10/2020, 15:46:27,-9.292676,0.047900394,2.5004005,-0.030925535,0.097503915,0.0142095145,9.623311490568705,0.10327299995752003,fall
23/10/2020, 15:46:27,-9.292676,0.047900394,2.5004005,-0.034590725,0.09994737,0.017874705,9.623311490568705,0.10726369470062803,fall
23/10/2020, 15:46:27,-9.242381,0.05269043,2.5051906,-0.034590725,0.09994737,0.017874705,9.57603073303515,0.10726369470062803,fall
23/10/2020, 15:46:27,-9.242381,0.05269043,2.5051906,-0.035812456,0.1011691,0.020318165,9.57603073303515,0.10922704353950817,fall
23/10/2020, 15:46:27,-9.292676,0.038320314,2.4908204,-0.035812456,0.1011691,0.020318165,9.620783828307829,0.10922704353950817,fall
23/10/2020, 15:46:27,-9.292676,0.038320314,2.4908204,-0.026038613,0.10605603,0.022761624,9.620783828307829,0.11155259658202946,fall
23/10/2020, 15:46:27,-9.350157,0.040715333,2.5267458,-0.026038613,0.10605603,0.022761624,9.685635443451227,0.11155259658202946,fall
23/10/2020, 15:46:27,-9.350157,0.040715333,2.5267458,-0.010156126,0.112164676,0.023983356,9.685635443451227,0.11514887242849363,fall
23/10/2020, 15:46:27,-9.297466,0.05508545,2.6057813,-0.010156126,0.112164676,0.023983356,9.655879549247258,0.11514887242849363,fall
23/10/2020, 15:46:27,-9.297466,0.05508545,2.6057813,-0.0028257454,0.12316024,0.022761624,9.655879549247258,0.1252777787251651,fall
23/10/2020, 15:46:27,-9.333391,0.059875492,2.3902297,-0.0028257454,0.12316024,0.022761624,9.634779405906814,0.1252777787251651,fall
23/10/2020, 15:46:27,-9.333391,0.059875492,2.3902297,-0.011377855,0.124381974,0.030092005,9.634779405906814,0.1284751332970337,fall
23/10/2020, 15:46:27,-9.376502,0.081430666,2.3758595,-0.011377855,0.124381974,0.030092005,9.673165446897073,0.1284751332970337,fall
23/10/2020, 15:46:27,-9.376502,0.081430666,2.3758595,-0.015043045,0.118273325,0.036200654,9.673165446897073,0.1246008026322865,fall
23/10/2020, 15:46:27,-9.244776,-0.102985844,2.5291407,-0.015043045,0.118273325,0.036200654,9.585042404473676,0.1246008026322865,fall
23/10/2020, 15:46:28,-9.77647,-0.016765138,0.8334668,-0.25938904,-0.29589316,0.24267302,9.811947680661266,0.462304700384531,fall
23/10/2020, 15:46:28,-9.915381,-0.9580079,0.6706055,-0.25938904,-0.29589316,0.24267302,9.984101348014937,0.462304700384531,fall
23/10/2020, 15:46:28,-9.915381,-0.9580079,0.6706055,-0.29970613,-0.34964928,0.32452893,9.984101348014937,0.5633803443392332,fall
23/10/2020, 15:46:28,-9.975257,-1.4058765,0.89573735,-0.29970613,-0.34964928,0.32452893,10.11358417176014,0.5633803443392332,fall
23/10/2020, 15:46:28,-9.975257,-1.4058765,0.89573735,-0.29726267,-0.37652734,0.38928062,10.11358417176014,0.6178003967994284,fall
23/10/2020, 15:46:28,-9.347761,-0.55324954,1.3699512,-0.29726267,-0.37652734,0.38928062,9.463798923745964,0.6178003967994284,fall
23/10/2020, 15:46:28,-9.347761,-0.55324954,1.3699512,-0.23373272,-0.38874465,0.38195026,9.463798923745964,0.5929918948491517,fall
23/10/2020, 15:46:28,-9.2256155,-0.3424878,1.9423609,-0.23373272,-0.38874465,0.38195026,9.43408951947609,0.5929918948491517,fall
23/10/2020, 15:46:28,-9.2256155,-0.3424878,1.9423609,-0.15798545,-0.382636,0.3477418,9.43408951947609,0.5406422910078941,fall
23/10/2020, 15:46:28,-9.632769,0.366438,1.590293,-0.15798545,-0.382636,0.3477418,9.770032768172651,0.5406422910078941,fall
23/10/2020, 15:46:28,-9.632769,0.366438,1.590293,-0.16042891,-0.39729676,0.30009434,9.770032768172651,0.5231049216175494,fall
23/10/2020, 15:46:28,-9.75252,0.4622388,1.2573853,-0.16042891,-0.39729676,0.30009434,9.84410082587337,0.5231049216175494,fall
23/10/2020, 15:46:28,-9.75252,0.4622388,1.2573853,-0.19585909,-0.42050964,0.2585555,9.84410082587337,0.5310744624847124,fall
23/10/2020, 15:46:28,-9.558523,0.5029541,1.6262183,-0.19585909,-0.42050964,0.2585555,9.708909012829446,0.5310744624847124,fall
23/10/2020, 15:46:28,-9.558523,0.5029541,1.6262183,-0.19952427,-0.42784002,0.20357767,9.708909012829446,0.514102019791473,fall
23/10/2020, 15:46:28,-9.275911,0.06466553,2.1028273,-0.19952427,-0.42784002,0.20357767,9.511498060407488,0.514102019791473,fall
23/10/2020, 15:46:28,-9.275911,0.06466553,2.1028273,-0.13477258,-0.40951407,0.17914306,9.511498060407488,0.4668593547652343,fall
23/10/2020, 15:46:28,-9.441168,-0.44307864,1.9734962,-0.13477258,-0.40951407,0.17914306,9.655395172950413,0.4668593547652343,fall
23/10/2020, 15:46:28,-9.441168,-0.44307864,1.9734962,-0.0822382,-0.40096197,0.19258209,9.655395172950413,0.4523510566787827,fall
23/10/2020, 15:46:28,-9.692644,-0.244292,1.341211,-0.0822382,-0.40096197,0.19258209,9.788047581088183,0.4523510566787827,fall
23/10/2020, 15:46:28,-9.692644,-0.244292,1.341211,-0.08834685,-0.43394867,0.22068188,9.788047581088183,0.4947899556768422,fall
23/10/2020, 15:46:28,-9.524993,-0.5604346,1.7315992,-0.08834685,-0.43394867,0.22068188,9.69731990339637,0.4947899556768422,fall
23/10/2020, 15:46:28,-9.524993,-0.5604346,1.7315992,-0.10545107,-0.45716155,0.2622207,9.69731990339637,0.5374721463065077,fall
23/10/2020, 15:46:28,-9.175321,-0.5724097,1.5735279,-0.10545107,-0.45716155,0.2622207,9.32685110758233,0.5374721463065077,fall
23/10/2020, 15:46:28,-9.175321,-0.5724097,1.5735279,-0.073686086,-0.48648307,0.2866553,9.32685110758233,0.5694441841720685,fall
23/10/2020, 15:46:28,-9.3309965,-0.1460962,1.9136207,-0.073686086,-0.48648307,0.2866553,9.526320604263292,0.5694441841720685,fall
23/10/2020, 15:46:28,-9.3309965,-0.1460962,1.9136207,-0.06269052,-0.50725245,0.28054667,9.526320604263292,0.5830450971878813,fall
23/10/2020, 15:46:28,-9.6758795,0.57959473,0.9412427,-0.06269052,-0.50725245,0.28054667,9.738814688902472,0.5830450971878813,fall
23/10/2020, 15:46:28,-9.6758795,0.57959473,0.9412427,-0.13232912,-0.5854432,0.2255688,9.738814688902472,0.6411988921283214,fall
23/10/2020, 15:46:28,-9.414823,0.6849756,1.6310084,-0.13232912,-0.5854432,0.2255688,9.579575363559025,0.6411988921283214,fall
23/10/2020, 15:46:29,-9.673484,-0.1820215,2.4453151,0.24152027,0.2807634,-0.27656224,9.979428222267968,0.46221942371940383,fall
23/10/2020, 15:46:29,-9.630374,-0.038320314,2.5171657,0.24152027,0.2807634,-0.27656224,9.953978798422687,0.46221942371940383,fall
23/10/2020, 15:46:29,-9.630374,-0.038320314,2.5171657,0.19509453,0.3003111,-0.3156576,9.953978798422687,0.4773765132748285,fall
23/10/2020, 15:46:29,-8.816068,-0.086220704,2.5914114,0.19509453,0.3003111,-0.3156576,9.189444837399392,0.4773765132748285,fall
23/10/2020, 15:46:29,-8.816068,-0.086220704,2.5914114,0.22808124,0.3259674,-0.3352053,9.189444837399392,0.5202291644627582,fall
23/10/2020, 15:46:29,-8.899893,-0.2802173,2.912344,0.22808124,0.3259674,-0.3352053,9.368476992399245,0.5202291644627582,fall
23/10/2020, 15:46:29,-8.899893,-0.2802173,2.912344,0.26962006,0.37361488,-0.3449791,9.368476992399245,0.5755811310673471,fall
23/10/2020, 15:46:29,-9.536968,-0.40715334,2.4045997,0.26962006,0.37361488,-0.3449791,9.843862882036392,0.5755811310673471,fall
23/10/2020, 15:46:29,-9.536968,-0.40715334,2.4045997,0.25373757,0.3858322,-0.3608616,9.843862882036392,0.5860634155442338,fall
23/10/2020, 15:46:29,-9.251961,-0.44307864,2.2058132,0.25373757,0.3858322,-0.3608616,9.521591685121775,0.5860634155442338,fall
23/10/2020, 15:46:29,-9.251961,-0.44307864,2.2058132,0.25618103,0.3858322,-0.37552238,9.521591685121775,0.5962484837088772,fall
23/10/2020, 15:46:29,-8.837623,-0.5963599,2.201023,0.25618103,0.3858322,-0.37552238,9.127087257541682,0.5962484837088772,fall
23/10/2020, 15:46:29,-8.837623,-0.5963599,2.201023,0.2683983,0.39927122,-0.36941373,9.127087257541682,0.6065654696092536,fall
23/10/2020, 15:46:29,-9.5561285,-0.57001466,1.8896705,0.2683983,0.39927122,-0.36941373,9.757835990507528,0.6065654696092536,fall
23/10/2020, 15:46:29,-9.5561285,-0.57001466,1.8896705,0.20975529,0.40537986,-0.35719642,9.757835990507528,0.5795855374317674,fall
23/10/2020, 15:46:29,-9.860296,-0.21555176,1.8753004,0.20975529,0.40537986,-0.35719642,10.039355373061762,0.5795855374317674,fall
23/10/2020, 15:46:29,-9.860296,-0.21555176,1.8753004,0.065591134,0.39682776,-0.368192,10.039355373061762,0.5452887357915153,fall
23/10/2020, 15:46:29,-9.3381815,-0.22992188,1.8848804,0.065591134,0.39682776,-0.368192,9.529284964086996,0.5452887357915153,fall
23/10/2020, 15:46:29,-9.3381815,-0.22992188,1.8848804,0.013056746,0.40049294,-0.36574852,9.529284964086996,0.5425283900307492,fall
23/10/2020, 15:46:29,-8.950189,-0.6011499,2.7231374,0.013056746,0.40049294,-0.36574852,9.37457919266043,0.5425283900307492,fall
23/10/2020, 15:46:29,-8.950189,-0.6011499,2.7231374,0.08391708,0.4640229,-0.3523095,9.37457919266043,0.5886266329213407,fall
23/10/2020, 15:46:29,-9.302257,-1.2789404,2.6608667,0.08391708,0.4640229,-0.3523095,9.759501933950812,0.5886266329213407,fall
23/10/2020, 15:46:29,-9.302257,-1.2789404,2.6608667,0.17554684,0.5422136,-0.33276182,9.759501933950812,0.6599566144362858,fall
23/10/2020, 15:46:29,-9.438772,-1.1304493,2.680027,0.17554684,0.5422136,-0.33276182,9.876784954888231,0.6599566144362858,fall
23/10/2020, 15:46:29,-9.438772,-1.1304493,2.680027,0.24152027,0.6094088,-0.33276182,9.876784954888231,0.73514730034182,fall
23/10/2020, 15:46:29,-9.1202345,-0.9268726,2.3950195,0.24152027,0.6094088,-0.33276182,9.47490836549692,0.73514730034182,fall
23/10/2020, 15:46:29,-9.1202345,-0.9268726,2.3950195,0.26106796,0.6387303,-0.32176626,9.47490836549692,0.7613582485086815,fall
23/10/2020, 15:46:29,-9.412427,-1.0154883,1.6932789,0.26106796,0.6387303,-0.32176626,9.617286048818123,0.7613582485086815,fall
23/10/2020, 15:46:29,-9.412427,-1.0154883,1.6932789,0.22563778,0.61918265,-0.30221856,9.617286048818123,0.7250073188817214,fall
23/10/2020, 15:46:29,-9.7621,-0.87897223,1.334026,0.22563778,0.61918265,-0.30221856,9.891957248086568,0.7250073188817214,fall
23/10/2020, 15:46:30,-9.333391,-2.550696,-0.31853762,-0.09201204,-0.1920461,0.11316965,9.680893908588128,0.24115408251267387,fall
23/10/2020, 15:46:30,-9.172925,-2.2608986,-0.6442603,-0.09201204,-0.1920461,0.11316965,9.469386818800789,0.24115408251267387,fall
23/10/2020, 15:46:30,-9.172925,-2.2608986,-0.6442603,-0.14210296,-0.25068915,0.109504454,9.469386818800789,0.3082685924827404,fall
23/10/2020, 15:46:30,-9.072334,-2.699187,-0.977168,-0.14210296,-0.25068915,0.109504454,9.515656440117954,0.3082685924827404,fall
23/10/2020, 15:46:30,-9.072334,-2.699187,-0.977168,-0.13843778,-0.31666258,0.104617536,9.515656440117954,0.36108868244944187,fall
23/10/2020, 15:46:30,-9.19448,-2.6009912,-1.0059083,-0.13843778,-0.31666258,0.104617536,9.608093895077031,0.36108868244944187,fall
23/10/2020, 15:46:30,-9.19448,-2.6009912,-1.0059083,-0.08834685,-0.37408388,0.08751331,9.608093895077031,0.3942112275263308,fall
23/10/2020, 15:46:30,-9.656719,-2.5530908,-0.5724097,-0.08834685,-0.37408388,0.08751331,10.004906366288926,0.3942112275263308,fall
23/10/2020, 15:46:30,-9.656719,-2.5530908,-0.5724097,-0.023595154,-0.3948533,0.07773948,10.004906366288926,0.40312439930471855,fall
23/10/2020, 15:46:30,-9.604029,-2.2465284,-0.1580713,-0.023595154,-0.3948533,0.07773948,9.86454477574554,0.40312439930471855,fall
23/10/2020, 15:46:30,-9.604029,-2.2465284,-0.1580713,-0.0028257454,-0.41195753,0.069187365,9.86454477574554,0.41773662119503424,fall
23/10/2020, 15:46:30,-9.457932,-2.4932153,-0.043110352,-0.0028257454,-0.41195753,0.069187365,9.781128145363173,0.41773662119503424,fall
23/10/2020, 15:46:30,-9.457932,-2.4932153,-0.043110352,0.020387124,-0.4229531,0.082626395,9.781128145363173,0.4314302723950834,fall
23/10/2020, 15:46:30,-9.388477,-2.5890162,-0.1460962,0.020387124,-0.4229531,0.082626395,9.740013114423226,0.4314302723950834,fall
23/10/2020, 15:46:30,-9.388477,-2.5890162,-0.1460962,0.043599997,-0.43761384,0.11194792,9.740013114423226,0.45380521474959545,fall
23/10/2020, 15:46:30,-9.491463,-2.8333082,-0.11256592,0.043599997,-0.43761384,0.11194792,9.905966428548625,0.45380521474959545,fall
23/10/2020, 15:46:30,-9.491463,-2.8333082,-0.11256592,0.0558173,-0.4486094,0.14615636,9.905966428548625,0.4751080460541595,fall
23/10/2020, 15:46:30,-9.390872,-3.278782,-0.06227051,0.0558173,-0.4486094,0.14615636,9.946997801133753,0.4751080460541595,fall
23/10/2020, 15:46:30,-9.390872,-3.278782,-0.06227051,0.038713075,-0.44372252,0.19869074,9.946997801133753,0.4877154751703827,fall
23/10/2020, 15:46:30,-9.417217,-2.7087672,-0.0023950196,0.038713075,-0.44372252,0.19869074,9.799051289241966,0.4877154751703827,fall
23/10/2020, 15:46:30,-9.417217,-2.7087672,-0.0023950196,-0.004047475,-0.45960498,0.23167746,9.799051289241966,0.5147111449858928,fall
23/10/2020, 15:46:30,-9.354947,-2.7494826,-0.12933107,-0.004047475,-0.45960498,0.23167746,9.751482775781255,0.5147111449858928,fall
23/10/2020, 15:46:30,-9.354947,-2.7494826,-0.12933107,-0.007712665,-0.46204844,0.25122514,9.751482775781255,0.5259869960401097,fall
23/10/2020, 15:46:30,-9.311836,-2.5890162,0.25866213,-0.007712665,-0.46204844,0.25122514,9.66851618344052,0.5259869960401097,fall
23/10/2020, 15:46:30,-9.311836,-2.5890162,0.25866213,0.004504635,-0.45227462,0.24389476,9.66851618344052,0.5138650367957834,fall
23/10/2020, 15:46:30,-9.280701,-2.3327491,0.07903565,0.004504635,-0.45227462,0.24389476,9.56971108799878,0.5138650367957834,fall
23/10/2020, 15:46:30,-9.280701,-2.3327491,0.07903565,0.025274046,-0.44372252,0.23289919,9.56971108799878,0.5017673575414591,fall
23/10/2020, 15:46:30,-9.249566,-2.2704787,0.22273682,0.025274046,-0.44372252,0.23289919,9.526760098197954,0.5017673575414591,fall
23/10/2020, 15:46:30,-9.249566,-2.2704787,0.22273682,0.04848692,-0.43761384,0.21090804,9.526760098197954,0.48819981561654074,fall
23/10/2020, 15:46:30,-9.359736,-2.3902297,0.17244141,0.04848692,-0.43761384,0.21090804,9.661656190416105,0.48819981561654074,fall
23/10/2020, 15:46:31,-8.966953,-1.4753321,3.2356715,-0.4805222,-0.6795164,0.15104327,9.646368549632097,0.8458475885299754,fall
23/10/2020, 15:46:31,-8.808882,-1.6334034,3.532654,-0.4805222,-0.6795164,0.15104327,9.630371187300401,0.8458475885299754,fall
23/10/2020, 15:46:31,-8.808882,-1.6334034,3.532654,-0.4805222,-0.66119045,0.18402998,9.630371187300401,0.8378194413668985,fall
23/10/2020, 15:46:31,-8.717872,-1.5783179,3.5087037,-0.4805222,-0.66119045,0.18402998,9.529080513431335,0.8378194413668985,fall
23/10/2020, 15:46:31,-8.717872,-1.5783179,3.5087037,-0.4854091,-0.6379776,0.2170167,9.529080513431335,0.8305020588808745,fall
23/10/2020, 15:46:31,-8.782537,-1.336421,3.3841627,-0.4854091,-0.6379776,0.2170167,9.506394811121751,0.8305020588808745,fall
23/10/2020, 15:46:31,-8.782537,-1.336421,3.3841627,-0.49396122,-0.62453854,0.23167746,9.506394811121751,0.8292891626808016,fall
23/10/2020, 15:46:31,-8.760982,-0.9508228,3.7194655,-0.49396122,-0.62453854,0.23167746,9.56521225031827,0.8292891626808016,fall
23/10/2020, 15:46:31,-8.760982,-0.9508228,3.7194655,-0.50373507,-0.6025474,0.22312534,9.56521225031827,0.8164541081669663,fall
23/10/2020, 15:46:31,-8.830438,-0.74006104,3.7625759,-0.50373507,-0.6025474,0.22312534,9.627112586812833,0.8164541081669663,fall
23/10/2020, 15:46:31,-8.830438,-0.74006104,3.7625759,-0.50373507,-0.57933456,0.19258209,9.627112586812833,0.7914956758678843,fall
23/10/2020, 15:46:31,-8.825647,-0.6730005,3.774551,-0.50373507,-0.57933456,0.19258209,9.622484893210627,0.7914956758678843,fall
23/10/2020, 15:46:31,-8.825647,-0.6730005,3.774551,-0.48296565,-0.5451261,0.14493462,9.622484893210627,0.7425794949576504,fall
23/10/2020, 15:46:31,-8.713081,-0.57719976,4.018843,-0.48296565,-0.5451261,0.14493462,9.612598337611098,0.7425794949576504,fall
23/10/2020, 15:46:31,-8.713081,-0.57719976,4.018843,-0.44509202,-0.49747863,0.096065424,9.612598337611098,0.6744037852709452,fall
23/10/2020, 15:46:31,-8.626861,-0.63707525,4.038003,-0.44509202,-0.49747863,0.096065424,9.546415922696754,0.6744037852709452,fall
23/10/2020, 15:46:31,-8.626861,-0.63707525,4.038003,-0.42798778,-0.45960498,0.049639687,9.546415922696754,0.6299796649237337,fall
23/10/2020, 15:46:31,-8.722662,-0.79993653,3.9685476,-0.42798778,-0.45960498,0.049639687,9.616345472731929,0.6299796649237337,fall
23/10/2020, 15:46:31,-8.722662,-0.79993653,3.9685476,-0.40233147,-0.43639213,0.011766055,9.616345472731929,0.5936725888438155,fall
23/10/2020, 15:46:31,-8.746612,-0.9484278,3.9829175,-0.40233147,-0.43639213,0.011766055,9.657451106238902,0.5936725888438155,fall
23/10/2020, 15:46:31,-8.746612,-0.9484278,3.9829175,-0.36445782,-0.4156227,-0.017555466,9.657451106238902,0.5530641300914104,fall
23/10/2020, 15:46:31,-8.840017,-1.1232642,3.9565725,-0.36445782,-0.4156227,-0.017555466,9.7499792230546,0.5530641300914104,fall
23/10/2020, 15:46:31,-8.840017,-1.1232642,3.9565725,-0.35224053,-0.39729676,-0.038324878,9.7499792230546,0.5323409638632696,fall
23/10/2020, 15:46:31,-8.928633,-1.2549903,3.6907253,-0.35224053,-0.39729676,-0.038324878,9.742532356922617,0.5323409638632696,fall
23/10/2020, 15:46:31,-8.928633,-1.2549903,3.6907253,-0.36201435,-0.40462714,-0.046876986,9.742532356922617,0.544954098698641,fall
23/10/2020, 15:46:31,-8.806487,-1.3196558,3.923042,-0.36201435,-0.40462714,-0.046876986,9.730671359888317,0.544954098698641,fall
23/10/2020, 15:46:31,-8.806487,-1.3196558,3.923042,-0.36690128,-0.40462714,-0.041990068,9.730671359888317,0.5478164290075559,fall
23/10/2020, 15:46:31,-8.693921,-1.3483961,4.1002736,-0.36690128,-0.40462714,-0.041990068,9.706424651593046,0.5478164290075559,fall
23/10/2020, 15:46:31,-8.693921,-1.3483961,4.1002736,-0.33391458,-0.3948533,-0.035881415,9.706424651593046,0.5183585101242539,fall
23/10/2020, 15:46:31,-8.650811,-1.6621436,4.277505,-0.33391458,-0.3948533,-0.035881415,9.792665826739002,0.5183585101242539,fall
23/10/2020, 15:46:32,-8.756192,-0.98435307,3.9493873,0.20731182,0.1537035,-0.06275948,9.655957387490723,0.2655968928599002,fall
23/10/2020, 15:46:32,-8.768167,-0.94603276,3.915857,0.20731182,0.1537035,-0.06275948,9.649334647615184,0.2655968928599002,fall
23/10/2020, 15:46:32,-8.768167,-0.94603276,3.915857,0.1535557,0.124381974,-0.043211795,9.649334647615184,0.20228072001695402,fall
23/10/2020, 15:46:32,-8.698711,-0.8669971,4.095484,0.1535557,0.124381974,-0.043211795,9.653613382586611,0.20228072001695402,fall
23/10/2020, 15:46:32,-8.698711,-0.8669971,4.095484,0.12667763,0.10849948,-0.034659687,9.653613382586611,0.1703544954489407,fall
23/10/2020, 15:46:32,-8.624466,-0.9148975,4.1888895,0.12667763,0.10849948,-0.034659687,9.631471616625946,0.1703544954489407,fall
23/10/2020, 15:46:32,-8.624466,-0.9148975,4.1888895,0.12667763,0.110942945,-0.03221623,9.631471616625946,0.17144516596990683,fall
23/10/2020, 15:46:32,-8.667576,-0.9412427,4.4355764,0.12667763,0.110942945,-0.03221623,9.781980731525485,0.17144516596990683,fall
23/10/2020, 15:46:32,-8.667576,-0.9412427,4.4355764,0.14133841,0.12193851,-0.029772766,9.781980731525485,0.1890290025583797,fall
23/10/2020, 15:46:32,-8.562195,-1.0322535,4.3014555,0.14133841,0.12193851,-0.029772766,9.637387970972055,0.1890290025583797,fall
23/10/2020, 15:46:32,-8.562195,-1.0322535,4.3014555,0.15966435,0.13171235,-0.030994497,9.637387970972055,0.20928809146816368,fall
23/10/2020, 15:46:32,-8.669971,-0.9148975,4.25595,0.15966435,0.13171235,-0.030994497,9.701471684351153,0.20928809146816368,fall
23/10/2020, 15:46:32,-8.669971,-0.9148975,4.25595,0.14744705,0.13293408,-0.024885846,9.701471684351153,0.2000785021773034,fall
23/10/2020, 15:46:32,-8.734636,-0.73527104,3.999683,0.14744705,0.13293408,-0.024885846,9.634934262130967,0.2000785021773034,fall
23/10/2020, 15:46:32,-8.734636,-0.73527104,3.999683,0.09857784,0.11338641,-0.011446816,9.634934262130967,0.15068210894275863,fall
23/10/2020, 15:46:32,-8.830438,-0.65384036,3.9350173,0.09857784,0.11338641,-0.011446816,9.689607732779436,0.15068210894275863,fall
23/10/2020, 15:46:32,-8.830438,-0.65384036,3.9350173,0.041156538,0.08039969,-0.005338166,9.689607732779436,0.09047909761157474,fall
23/10/2020, 15:46:32,-8.768167,-0.8214917,4.1002736,0.041156538,0.08039969,-0.005338166,9.714310928850773,0.09047909761157474,fall
23/10/2020, 15:46:32,-8.768167,-0.8214917,4.1002736,0.025274046,0.075512774,-0.006559896,9.714310928850773,0.07989986672863214,fall
23/10/2020, 15:46:32,-8.602911,-0.8909473,4.358936,0.025274046,0.075512774,-0.006559896,9.685256127335293,0.07989986672863214,fall
23/10/2020, 15:46:32,-8.602911,-0.8909473,4.358936,0.054595567,0.096282184,-0.006559896,9.685256127335293,0.11087816367572385,fall
23/10/2020, 15:46:32,-8.595725,-1.092129,4.373306,0.054595567,0.096282184,-0.006559896,9.705928015040021,0.11087816367572385,fall
23/10/2020, 15:46:32,-8.595725,-1.092129,4.373306,0.107129954,0.117051594,-0.004116436,9.705928015040021,0.15872884959990613,fall
23/10/2020, 15:46:32,-8.59333,-1.099314,4.2751102,0.107129954,0.117051594,-0.004116436,9.660765285193682,0.15872884959990613,fall
23/10/2020, 15:46:32,-8.59333,-1.099314,4.2751102,0.13645148,0.12682544,7.704842E-4,9.660765285193682,0.18629088075994663,fall
23/10/2020, 15:46:32,-8.720266,-0.93405765,4.0906935,0.13645148,0.12682544,7.704842E-4,9.677255906196628,0.18629088075994663,fall
23/10/2020, 15:46:32,-8.720266,-0.93405765,4.0906935,0.13889495,0.11582986,0.0081008645,9.677255906196628,0.18103587197221876,fall
23/10/2020, 15:46:32,-8.760982,-0.7759864,3.9781277,0.13889495,0.11582986,0.0081008645,9.653105867158793,0.18103587197221876,fall
23/10/2020, 15:46:32,-8.760982,-0.7759864,3.9781277,0.09735611,0.082843155,0.009322595,9.653105867158793,0.1281721941862972,fall
23/10/2020, 15:46:32,-8.844808,-0.8262818,3.776946,0.09735611,0.082843155,0.009322595,9.652910706568376,0.1281721941862972,fall
23/10/2020, 15:46:33,-8.787327,-0.8334668,3.8703518,0.05215211,0.07917796,-0.037103146,9.638018595965843,0.10181176428190171,fall
23/10/2020, 15:46:33,-8.825647,-0.7783814,3.8272414,0.05215211,0.07917796,-0.037103146,9.6512022943897,0.10181176428190171,fall
23/10/2020, 15:46:33,-8.825647,-0.7783814,3.8272414,0.041156538,0.07062586,-0.035881415,9.6512022943897,0.08927120565059483,fall
23/10/2020, 15:46:33,-8.851993,-0.728086,3.915857,0.041156538,0.07062586,-0.035881415,9.706792414431593,0.08927120565059483,fall
23/10/2020, 15:46:33,-8.851993,-0.728086,3.915857,0.019165397,0.06085201,-0.038324878,9.706792414431593,0.07442496739628986,fall
23/10/2020, 15:46:33,-8.859178,-0.86939216,3.887117,0.019165397,0.06085201,-0.038324878,9.713421032119593,0.07442496739628986,fall
23/10/2020, 15:46:33,-8.859178,-0.86939216,3.887117,0.011835015,0.05963028,-0.030994497,9.713421032119593,0.06823852696164216,fall
23/10/2020, 15:46:33,-8.816068,-0.96040285,4.0356083,0.011835015,0.05963028,-0.030994497,9.74328268728794,0.06823852696164216,fall
23/10/2020, 15:46:33,-8.816068,-0.96040285,4.0356083,0.017943665,0.06207374,-0.028551036,9.74328268728794,0.07064195741476788,fall
23/10/2020, 15:46:33,-8.758587,-0.9268726,4.0116577,0.017943665,0.06207374,-0.028551036,9.678085278337727,0.07064195741476788,fall
23/10/2020, 15:46:33,-8.758587,-0.9268726,4.0116577,0.019165397,0.05718682,-0.026107576,9.678085278337727,0.06572100333223604,fall
23/10/2020, 15:46:33,-8.784932,-1.0106983,3.8799317,0.019165397,0.05718682,-0.026107576,9.656625375381406,0.06572100333223604,fall
23/10/2020, 15:46:33,-8.784932,-1.0106983,3.8799317,0.010613285,0.05596509,-0.017555466,9.656625375381406,0.059606436830561146,fall
23/10/2020, 15:46:33,-8.816068,-0.8813672,3.8272414,0.010613285,0.05596509,-0.017555466,9.651302226083764,0.059606436830561146,fall
23/10/2020, 15:46:33,-8.816068,-0.8813672,3.8272414,0.0069480953,0.05352163,-0.005338166,9.651302226083764,0.054234093146142796,fall
23/10/2020, 15:46:33,-8.806487,-0.7424561,3.8607717,0.0069480953,0.05352163,-0.005338166,9.644221770537403,0.054234093146142796,fall
23/10/2020, 15:46:33,-8.806487,-0.7424561,3.8607717,-0.005269205,0.048634708,-0.011446816,9.644221770537403,0.05024070991964216,fall
23/10/2020, 15:46:33,-8.825647,-0.8167017,3.9709425,-0.005269205,0.048634708,-0.011446816,9.712231320318061,0.05024070991964216,fall
23/10/2020, 15:46:33,-8.825647,-0.8167017,3.9709425,-0.008934394,0.05352163,-0.011446816,9.712231320318061,0.05545644971495313,fall
23/10/2020, 15:46:33,-8.777747,-0.98914313,3.9517825,-0.008934394,0.05352163,-0.011446816,9.67697441828342,0.05545644971495313,fall
23/10/2020, 15:46:33,-8.777747,-0.98914313,3.9517825,0.010613285,0.06085201,-0.010225086,9.67697441828342,0.0626111914117899,fall
23/10/2020, 15:46:33,-8.758587,-0.94603276,3.9613624,0.010613285,0.06085201,-0.010225086,9.659203587600869,0.0626111914117899,fall
23/10/2020, 15:46:33,-8.758587,-0.94603276,3.9613624,0.016721934,0.06207374,-0.0077816257,9.659203587600869,0.06475589636067401,fall
23/10/2020, 15:46:33,-8.806487,-0.79754156,3.9493873,0.016721934,0.06207374,-0.0077816257,9.684417764032409,0.06475589636067401,fall
23/10/2020, 15:46:33,-8.806487,-0.79754156,3.9493873,0.019165397,0.05596509,-0.009003356,9.684417764032409,0.05983697820456178,fall
23/10/2020, 15:46:33,-8.854387,-0.8095166,3.8416114,0.019165397,0.05596509,-0.009003356,9.685735353545043,0.05983697820456178,fall
23/10/2020, 15:46:33,-8.854387,-0.8095166,3.8416114,0.008169825,0.04374779,-0.011446816,9.685735353545043,0.045952636288981864,fall
23/10/2020, 15:46:33,-8.825647,-0.90052736,3.8272414,0.008169825,0.04374779,-0.011446816,9.66182061697842,0.045952636288981864,fall
23/10/2020, 15:46:33,-8.825647,-0.90052736,3.8272414,0.0057263654,0.041304328,-0.010225086,9.66182061697842,0.04293473079999783,fall
23/10/2020, 15:46:33,-8.873548,-0.81909674,3.772156,0.0057263654,0.041304328,-0.010225086,9.676772528012009,0.04293473079999783,fall
23/10/2020, 15:47:00,-8.823253,-0.9244776,3.9589674,0.050930377,0.05107817,-0.028551036,9.714827320018138,0.07757605623776662,fall
23/10/2020, 15:47:00,-8.823253,-0.9244776,3.9589674,0.058260757,0.058408547,-0.026107576,9.714827320018138,0.08653022453519907,fall
23/10/2020, 15:47:00,-8.988508,-0.73048097,3.7625759,0.058260757,0.058408547,-0.026107576,9.77158429764547,0.08653022453519907,fall
23/10/2020, 15:47:00,-8.988508,-0.73048097,3.7625759,0.025274046,0.03519568,-0.030994497,9.77158429764547,0.05327449700961422,fall
23/10/2020, 15:47:00,-8.914263,-0.76880133,3.8128712,0.025274046,0.03519568,-0.030994497,9.725899607315084,0.05327449700961422,fall
23/10/2020, 15:47:00,-8.914263,-0.76880133,3.8128712,-3.8228463E-4,0.020534918,-0.037103146,9.725899607315084,0.04240840074127678,fall
23/10/2020, 15:47:00,-8.780142,-0.8765772,3.903882,-3.8228463E-4,0.020534918,-0.037103146,9.648812000750844,0.04240840074127678,fall
23/10/2020, 15:47:00,-8.780142,-0.8765772,3.903882,-0.008934394,0.024200108,-0.024885846,9.648812000750844,0.03584374384670537,fall
23/10/2020, 15:47:00,-8.782537,-0.91729254,3.8440065,-0.008934394,0.024200108,-0.024885846,9.630720435386419,0.03584374384670537,fall
23/10/2020, 15:47:00,-8.782537,-0.91729254,3.8440065,-0.019929964,0.03153049,-0.016333736,9.630720435386419,0.040720585795712236,fall
23/10/2020, 15:47:00,-8.880733,-0.87897223,3.796106,-0.019929964,0.03153049,-0.016333736,9.69795979007393,0.040720585795712236,fall
23/10/2020, 15:47:00,-8.880733,-0.87897223,3.796106,-0.030925535,0.03641741,-0.005338166,9.69795979007393,0.04807403087465706,fall
23/10/2020, 15:47:00,-8.851993,-0.6993457,3.8152664,-0.030925535,0.03641741,-0.005338166,9.66452870116031,0.04807403087465706,fall
23/10/2020, 15:47:00,-8.851993,-0.6993457,3.8152664,-0.052916676,0.033973947,-0.010225086,9.66452870116031,0.06370993673539738,fall
23/10/2020, 15:47:00,-8.787327,-0.84544194,3.9445972,-0.052916676,0.033973947,-0.010225086,9.66911226550868,0.06370993673539738,fall
23/10/2020, 15:47:00,-8.787327,-0.84544194,3.9445972,-0.052916676,0.04374779,-0.016333736,9.66911226550868,0.07057502865339288,fall
23/10/2020, 15:47:00,-9.326206,-0.94603276,2.1076174,-0.052916676,0.04374779,-0.016333736,9.608077394642228,0.07057502865339288,fall
23/10/2020, 15:47:00,-9.410032,-0.76880133,2.1579127,-0.052916676,0.04374779,-0.016333736,9.684851584260567,0.07057502865339288,fall
23/10/2020, 15:47:00,-9.340576,-0.8095166,2.1603076,-0.052916676,0.04374779,-0.016333736,9.62125820705778,0.07057502865339288,fall
23/10/2020, 15:47:00,-9.402847,-0.8430469,2.0860622,-0.052916676,0.04374779,-0.016333736,9.668294612505294,0.07057502865339288,fall
23/10/2020, 15:47:00,-9.433982,-0.8095166,2.0453467,-0.052916676,0.04374779,-0.016333736,9.687041592642364,0.07057502865339288,fall
23/10/2020, 15:47:00,-9.422008,-0.7927515,2.0381618,-0.052916676,0.04374779,-0.016333736,9.672475626177286,0.07057502865339288,fall
23/10/2020, 15:47:00,-9.388477,-0.852627,2.0237916,-0.052916676,0.04374779,-0.016333736,9.641898749753336,0.07057502865339288,fall
23/10/2020, 15:47:00,-9.371712,-0.87178713,2.0309765,-0.052916676,0.04374779,-0.016333736,9.628803625105977,0.07057502865339288,fall
23/10/2020, 15:47:00,-9.364527,-0.859812,2.1004322,-0.052916676,0.04374779,-0.016333736,9.635634550279576,0.07057502865339288,fall
23/10/2020, 15:47:00,-9.342972,-0.91010743,2.1722827,-0.052916676,0.04374779,-0.016333736,9.635259713149155,0.07057502865339288,fall
23/10/2020, 15:47:00,-9.323812,-0.847837,2.1818628,-0.052916676,0.04374779,-0.016333736,9.613158399326132,0.07057502865339288,fall
23/10/2020, 15:47:00,-9.381292,-0.7113208,2.2106032,-0.052916676,0.04374779,-0.016333736,9.664439456322592,0.07057502865339288,fall
23/10/2020, 15:47:00,-9.393267,-0.6322852,2.1148024,-0.052916676,0.04374779,-0.016333736,9.649125994171705,0.07057502865339288,fall
23/10/2020, 15:47:00,-9.422008,-0.7041358,2.0525317,-0.052916676,0.04374779,-0.016333736,9.668656583168055,0.07057502865339288,fall
23/10/2020, 15:47:01,-9.481883,-0.77359134,2.3543043,-0.033368994,-0.03810812,-0.011446816,9.800372366248583,0.05193022489207582,fall
23/10/2020, 15:47:01,-9.481883,-0.77359134,2.3543043,-0.011377855,-0.018560443,0.0032139444,9.800372366248583,0.022006250807489417,fall
23/10/2020, 15:47:01,-9.481883,-0.77359134,2.3543043,0.003282905,-0.0051214118,0.022761624,9.800372366248583,0.02356051496195814,fall
23/10/2020, 15:47:01,-9.481883,-0.77359134,2.3543043,0.009391556,0.013204537,0.032535464,9.800372366248583,0.03634718024627167,fall
23/10/2020, 15:47:01,-9.481883,-0.77359134,2.3543043,0.013056746,0.024200108,0.031313736,9.800372366248583,0.04167341951282332,fall
23/10/2020, 15:47:01,-9.481883,-0.77359134,2.3543043,0.009391556,0.02542184,0.021539895,9.800372366248583,0.034618467547303806,fall
23/10/2020, 15:47:01,-9.481883,-0.77359134,2.3543043,0.0069480953,0.021756649,0.012987785,9.800372366248583,0.026273758101434223,fall
23/10/2020, 15:47:01,-9.481883,-0.77359134,2.3543043,0.010613285,0.021756649,0.0056574047,9.800372366248583,0.02485960222053259,fall
23/10/2020, 15:47:01,-9.481883,-0.77359134,2.3543043,0.019165397,0.020534918,0.0019922145,9.800372366248583,0.028159619923666637,fall
23/10/2020, 15:47:01,-9.21364,-2.1267774,2.0812721,0.019165397,0.020534918,0.0019922145,9.68225396217258,0.028159619923666637,fall
23/10/2020, 15:47:01,-9.261541,-0.28740236,1.9806812,0.019165397,0.020534918,0.0019922145,9.475328307920327,0.028159619923666637,fall
23/10/2020, 15:47:01,-9.544153,-0.32332766,2.1267774,0.019165397,0.020534918,0.0019922145,9.783587455157148,0.028159619923666637,fall
23/10/2020, 15:47:01,-9.3309965,-1.1711646,2.1267774,0.019165397,0.020534918,0.0019922145,9.64169615167303,0.028159619923666637,fall
23/10/2020, 15:47:01,-9.390872,-0.7807764,1.9351759,0.019165397,0.020534918,0.0019922145,9.619926946525904,0.028159619923666637,fall
23/10/2020, 15:47:01,-9.505833,-0.69216067,1.8489552,0.019165397,0.020534918,0.0019922145,9.708685613455733,0.028159619923666637,fall
23/10/2020, 15:47:01,-9.357342,-0.9484278,1.9136207,0.019165397,0.020534918,0.0019922145,9.597984394678956,0.028159619923666637,fall
23/10/2020, 15:47:01,-9.3309965,-0.83586186,2.0309765,0.019165397,0.020534918,0.0019922145,9.585980735716438,0.028159619923666637,fall
23/10/2020, 15:47:01,-9.407638,-1.0825489,2.1459377,0.019165397,0.020534918,0.0019922145,9.709820065219043,0.028159619923666637,fall
23/10/2020, 15:47:01,-9.383687,-1.104104,2.1555176,0.019165397,0.020534918,0.0019922145,9.691175565552767,0.028159619923666637,fall
23/10/2020, 15:47:01,-9.393267,-0.7759864,2.0166066,0.019165397,0.020534918,0.0019922145,9.638584739907257,0.028159619923666637,fall
23/10/2020, 15:47:01,-9.436378,-0.71371585,1.8896705,0.019165397,0.020534918,0.0019922145,9.650153661073713,0.028159619923666637,fall
23/10/2020, 15:47:01,-9.398057,-0.9196875,2.0429518,0.019165397,0.020534918,0.0019922145,9.661415648697028,0.028159619923666637,fall
23/10/2020, 15:47:01,-9.354947,-1.2070899,2.201023,0.019165397,0.020534918,0.0019922145,9.685897159437387,0.028159619923666637,fall
23/10/2020, 15:47:01,-9.335787,-1.1448194,2.208208,0.019165397,0.020534918,0.0019922145,9.661454853761722,0.028159619923666637,fall
23/10/2020, 15:47:01,-9.326206,-0.9508228,2.193838,0.019165397,0.020534918,0.0019922145,9.627830015647495,0.028159619923666637,fall
23/10/2020, 15:47:01,-9.340576,-0.96758795,2.208208,0.019165397,0.020534918,0.0019922145,9.646697497181503,0.028159619923666637,fall
23/10/2020, 15:47:01,-9.328602,-0.7783814,2.1028273,0.019165397,0.020534918,0.0019922145,9.594298960812448,0.028159619923666637,fall
23/10/2020, 15:47:01,-9.400452,-0.7759864,2.074087,0.019165397,0.020534918,0.0019922145,9.657768000640738,0.028159619923666637,fall
23/10/2020, 15:47:01,-9.390872,-0.855022,2.066902,0.019165397,0.020534918,0.0019922145,9.653580846011067,0.028159619923666637,fall
23/10/2020, 15:47:01,-9.347761,-0.92926764,2.1195924,0.019165397,0.020534918,0.0019922145,9.629997352701533,0.028159619923666637,fall
23/10/2020, 15:47:02,-9.445957,-1.0849439,1.8729054,0.015500206,9.872383E-4,-4.512458E-4,9.69076802441102,0.015538167035583523,fall
23/10/2020, 15:47:02,-9.445957,-1.0849439,1.8729054,0.009391556,0.014426269,-0.010225086,9.69076802441102,0.020021761086651293,fall
23/10/2020, 15:47:02,-9.445957,-1.0849439,1.8729054,-0.001604015,0.004652428,-0.015112006,9.69076802441102,0.01589310160856533,fall
23/10/2020, 15:47:02,-9.445957,-1.0849439,1.8729054,0.0020611752,-0.0051214118,-0.0077816257,9.69076802441102,0.009541016740008634,fall
23/10/2020, 15:47:02,-9.445957,-1.0849439,1.8729054,-0.005269205,-0.008786602,-0.011446816,9.69076802441102,0.015362242406945862,fall
23/10/2020, 15:47:02,-9.445957,-1.0849439,1.8729054,-0.007712665,-0.008786602,-0.0028947059,9.69076802441102,0.012044455047302552,fall
23/10/2020, 15:47:02,-9.445957,-1.0849439,1.8729054,-0.008934394,-0.002677952,0.0019922145,9.69076802441102,0.009537491776772393,fall
23/10/2020, 15:47:02,-9.445957,-1.0849439,1.8729054,-0.010156126,0.013204537,0.011766055,9.69076802441102,0.020394772346801777,fall
23/10/2020, 15:47:02,-9.445957,-1.0849439,1.8729054,0.004504635,0.018091459,0.023983356,9.69076802441102,0.030377524016299954,fall
23/10/2020, 15:47:02,-9.445957,-1.0849439,1.8729054,0.020387124,0.015647998,0.021539895,9.69076802441102,0.03353299495512083,fall
23/10/2020, 15:47:02,-9.445957,-1.0849439,1.8729054,0.025274046,0.020534918,0.017874705,9.69076802441102,0.03714788421939377,fall
23/10/2020, 15:47:02,-9.445957,-1.0849439,1.8729054,0.033826157,0.03641741,0.006879134,9.69076802441102,0.05017727721595349,fall
23/10/2020, 15:47:02,-9.445957,-1.0849439,1.8729054,0.10590822,0.027865298,0.009322595,9.69076802441102,0.1099087676434742,fall
23/10/2020, 15:47:02,-9.445957,-1.0849439,1.8729054,0.003282905,0.018091459,0.041087575,9.69076802441102,0.045014077673739425,fall
23/10/2020, 15:47:02,-9.445957,-1.0849439,1.8729054,-0.046808027,-0.013673522,-0.010225086,9.69076802441102,0.04982478231901335,fall
23/10/2020, 15:47:02,-9.445957,-1.0849439,1.8729054,0.032604426,0.02542184,-0.033437956,9.69076802441102,0.05317344659466083,fall
23/10/2020, 15:47:02,-9.445957,-1.0849439,1.8729054,0.046043456,0.02542184,-4.512458E-4,9.69076802441102,0.05259727497814337,fall
23/10/2020, 15:47:02,-9.445957,-1.0849439,1.8729054,-0.022373427,-0.0051214118,-0.018777195,9.69076802441102,0.029654378204048523,fall
23/10/2020, 15:47:02,-9.445957,-1.0849439,1.8729054,-0.007712665,-0.0038996818,-0.021220656,9.69076802441102,0.022913074126938406,fall
23/10/2020, 15:47:02,-9.445957,-1.0849439,1.8729054,0.014278475,0.0022089682,-0.004116436,9.69076802441102,0.01502329656151829,fall
23/10/2020, 15:47:02,-9.445957,-1.0849439,1.8729054,-3.8228463E-4,-0.0038996818,0.006879134,9.69076802441102,0.007916826767675572,fall
23/10/2020, 15:47:02,-9.445957,-1.0849439,1.8729054,-0.007712665,-0.007564872,0.006879134,9.69076802441102,0.012807614008055374,fall
23/10/2020, 15:47:02,-9.445957,-1.0849439,1.8729054,-0.0028257454,-0.006343142,0.0081008645,9.69076802441102,0.010669784173894265,fall
23/10/2020, 15:47:02,-9.445957,-1.0849439,1.8729054,0.013056746,0.016869728,0.0044356743,9.69076802441102,0.021788564034952634,fall
23/10/2020, 15:47:02,-9.445957,-1.0849439,1.8729054,0.019165397,0.041304328,7.704842E-4,9.69076802441102,0.045540680170349845,fall
23/10/2020, 15:47:02,-9.386082,-1.0274634,1.9399658,0.019165397,0.041304328,7.704842E-4,9.639381628752243,0.045540680170349845,fall
23/10/2020, 15:47:02,-9.395662,-1.0250684,1.949546,0.019165397,0.041304328,7.704842E-4,9.650386777566492,0.045540680170349845,fall
23/10/2020, 15:47:02,-9.357342,-1.089734,1.9926564,0.019165397,0.041304328,7.704842E-4,9.629020945137903,0.045540680170349845,fall
23/10/2020, 15:47:02,-9.309442,-1.1543995,2.1052222,0.019165397,0.041304328,7.704842E-4,9.61406787656925,0.045540680170349845,fall
23/10/2020, 15:47:02,-9.311836,-1.1759547,2.064507,0.019165397,0.041304328,7.704842E-4,9.610169241493594,0.045540680170349845,fall
23/10/2020, 15:47:03,-9.604029,-1.4897022,0.2945874,0.043599997,-0.20915033,-0.030994497,9.723341080171394,0.21588302108015722,fall
23/10/2020, 15:47:03,-9.604029,-1.4897022,0.2945874,-0.007712665,-0.27512375,-0.021220656,9.723341080171394,0.27604868523861836,fall
23/10/2020, 15:47:03,-9.522598,-1.5998731,0.5292993,-0.007712665,-0.27512375,-0.021220656,9.67055475880792,0.27604868523861836,fall
23/10/2020, 15:47:03,-9.522598,-1.5998731,0.5292993,-0.024816886,-0.31055394,-4.512458E-4,9.67055475880792,0.3115442664115688,fall
23/10/2020, 15:47:03,-9.462723,-1.4729371,0.84544194,-0.024816886,-0.31055394,-4.512458E-4,9.613918980850992,0.3115442664115688,fall
23/10/2020, 15:47:03,-9.462723,-1.4729371,0.84544194,-0.021151695,-0.3178843,0.0044356743,9.613918980850992,0.3186181024075697,fall
23/10/2020, 15:47:03,-9.388477,-1.7124391,1.3172607,-0.021151695,-0.3178843,0.0044356743,9.633853325027118,0.3186181024075697,fall
23/10/2020, 15:47:03,-9.388477,-1.7124391,1.3172607,0.025274046,-0.28978452,0.010544324,9.633853325027118,0.2910756408510047,fall
23/10/2020, 15:47:03,-9.505833,-1.8369801,1.3028907,0.025274046,-0.28978452,0.010544324,9.768975113191244,0.2910756408510047,fall
23/10/2020, 15:47:03,-9.505833,-1.8369801,1.3028907,0.094912656,-0.26290646,0.0056574047,9.768975113191244,0.2795715045700566,fall
23/10/2020, 15:47:03,-9.503438,-1.5160475,1.2909156,0.094912656,-0.26290646,0.0056574047,9.709799009498203,0.2795715045700566,fall
23/10/2020, 15:47:03,-9.503438,-1.5160475,1.2909156,0.1535557,-0.24824569,-0.038324878,9.709799009498203,0.29440460576673744,fall
23/10/2020, 15:47:03,-9.08431,-1.3196558,1.2478052,0.1535557,-0.24824569,-0.038324878,9.264080622840371,0.29440460576673744,fall
23/10/2020, 15:47:03,-9.08431,-1.3196558,1.2478052,0.2512941,-0.23602839,-0.071311586,9.264080622840371,0.3520560609962579,fall
23/10/2020, 15:47:03,-9.599238,-1.3675562,1.2094849,0.2512941,-0.23602839,-0.071311586,9.771307056079605,0.3520560609962579,fall
23/10/2020, 15:47:03,-9.599238,-1.3675562,1.2094849,0.3404804,-0.24946742,-0.10918522,9.771307056079605,0.4359842870161283,fall
23/10/2020, 15:47:03,-9.862691,-1.5112574,0.7664063,0.3404804,-0.24946742,-0.10918522,10.00719490498884,0.4359842870161283,fall
23/10/2020, 15:47:03,-9.862691,-1.5112574,0.7664063,0.36369327,-0.3178843,-0.13850674,10.00719490498884,0.5025010800121451,fall
23/10/2020, 15:47:03,-9.704619,-1.7962648,0.61552006,0.36369327,-0.3178843,-0.13850674,9.88863336903737,0.5025010800121451,fall
23/10/2020, 15:47:03,-9.704619,-1.7962648,0.61552006,0.37102365,-0.38996637,-0.12140252,9.88863336903737,0.551788811363187,fall
23/10/2020, 15:47:03,-9.802815,-1.6381935,0.5748047,0.37102365,-0.38996637,-0.12140252,9.955363824215857,0.551788811363187,fall
23/10/2020, 15:47:03,-9.802815,-1.6381935,0.5748047,0.34903252,-0.4559398,-0.11162868,9.955363824215857,0.584949368933441,fall
23/10/2020, 15:47:03,-9.575289,-1.3699512,0.96758795,0.34903252,-0.4559398,-0.11162868,9.721067222148484,0.584949368933441,fall
23/10/2020, 15:47:03,-9.575289,-1.3699512,0.96758795,0.30627197,-0.47915268,-0.1042983,9.721067222148484,0.5781591005875012,fall
23/10/2020, 15:47:03,-9.371712,-1.5926881,1.2717555,0.30627197,-0.47915268,-0.1042983,9.59077671735565,0.5781591005875012,fall
23/10/2020, 15:47:03,-9.371712,-1.5926881,1.2717555,0.28061563,-0.46571365,-0.084750615,9.59077671735565,0.5502881073444391,fall
23/10/2020, 15:47:03,-9.2328005,-1.6477735,1.4585669,0.28061563,-0.46571365,-0.084750615,9.491426642336346,0.5502881073444391,fall
23/10/2020, 15:47:03,-9.2328005,-1.6477735,1.4585669,0.24152027,-0.45227462,-0.07375505,9.491426642336346,0.5180001743986562,fall
23/10/2020, 15:47:03,-9.134604,-1.6070582,1.4082716,0.24152027,-0.45227462,-0.07375505,9.381197324814005,0.5180001743986562,fall
23/10/2020, 15:47:03,-9.134604,-1.6070582,1.4082716,0.21708566,-0.44983116,-0.06520294,9.381197324814005,0.5037118989387946,fall
23/10/2020, 15:47:04,-9.584868,-1.7220191,2.047742,-0.057803597,-0.08086867,-0.22891477,9.951296367233052,0.2495655590110768,fall
23/10/2020, 15:47:04,-9.242381,-1.8345851,2.3638844,-0.057803597,-0.08086867,-0.22891477,9.714693015795646,0.2495655590110768,fall
23/10/2020, 15:47:04,-9.242381,-1.8345851,2.3638844,-0.033368994,-0.03444293,-0.17271519,9.714693015795646,0.17924938242715852,fall
23/10/2020, 15:47:04,-9.16574,-0.61073,2.0932472,-0.033368994,-0.03444293,-0.17271519,9.421542593880941,0.17924938242715852,fall
23/10/2020, 15:47:04,-9.16574,-0.61073,2.0932472,-0.11155972,-0.06254272,-0.13972847,9.421542593880941,0.18942335833790847,fall
23/10/2020, 15:47:04,-10.027947,-1.219065,1.8896705,-0.11155972,-0.06254272,-0.13972847,10.27699875914446,0.18942335833790847,fall
23/10/2020, 15:47:04,-10.027947,-1.219065,1.8896705,-0.20196773,-0.11019019,-0.1042983,10.27699875914446,0.2526083491651568,fall
23/10/2020, 15:47:04,-9.388477,-1.9758912,1.9878663,-0.20196773,-0.11019019,-0.1042983,9.797921463753283,0.2526083491651568,fall
23/10/2020, 15:47:04,-9.388477,-1.9758912,1.9878663,-0.23128925,-0.1431769,-0.026107576,9.797921463753283,0.27326900322124636,fall
23/10/2020, 15:47:04,-9.422008,-1.8489552,1.9567311,-0.23128925,-0.1431769,-0.026107576,9.799064147197507,0.27326900322124636,fall
23/10/2020, 15:47:04,-9.422008,-1.8489552,1.9567311,-0.24350655,-0.17738535,0.034978926,9.799064147197507,0.3032895089030542,fall
23/10/2020, 15:47:04,-9.395662,-1.5926881,2.1818628,-0.24350655,-0.17738535,0.034978926,9.776280015766377,0.3032895089030542,fall
23/10/2020, 15:47:04,-9.395662,-1.5926881,2.1818628,-0.21540676,-0.21159378,0.069187365,9.776280015766377,0.30977232039355107,fall
23/10/2020, 15:47:04,-9.419612,-1.8274,2.2106032,-0.21540676,-0.21159378,0.069187365,9.846585512091783,0.30977232039355107,fall
23/10/2020, 15:47:04,-9.419612,-1.8274,2.2106032,-0.13477258,-0.19937648,0.0704091,9.846585512091783,0.2507430369117576,fall
23/10/2020, 15:47:04,-8.801697,-1.0753639,2.7399025,-0.13477258,-0.19937648,0.0704091,9.280804884932273,0.2507430369117576,fall
23/10/2020, 15:47:04,-8.801697,-1.0753639,2.7399025,0.013056746,-0.10285981,0.021539895,9.280804884932273,0.10589894330231213,fall
23/10/2020, 15:47:04,-8.804092,-0.100590825,2.9841945,0.013056746,-0.10285981,0.021539895,9.296643402065992,0.10589894330231213,fall
23/10/2020, 15:47:04,-8.804092,-0.100590825,2.9841945,0.066812865,-0.046660233,-0.04932045,9.296643402065992,0.09525567157929998,fall
23/10/2020, 15:47:04,-9.944121,-0.25866213,1.8920655,0.066812865,-0.046660233,-0.04932045,10.125826765690581,0.09525567157929998,fall
23/10/2020, 15:47:04,-9.944121,-0.25866213,1.8920655,0.033826157,-0.09064251,-0.10063311,10.125826765690581,0.13959690587963342,fall
23/10/2020, 15:47:04,-9.508228,-0.61073,2.2106032,0.033826157,-0.09064251,-0.10063311,9.780908098878273,0.13959690587963342,fall
23/10/2020, 15:47:04,-9.508228,-0.61073,2.2106032,-0.007712665,-0.1309596,-0.13728501,9.780908098878273,0.18988700796064,fall
23/10/2020, 15:47:04,-9.352551,-1.0394385,1.7938697,-0.007712665,-0.1309596,-0.13728501,9.579593926946547,0.18988700796064,fall
23/10/2020, 15:47:04,-9.352551,-1.0394385,1.7938697,-0.028482076,-0.19082437,-0.13972847,9.579593926946547,0.23822094020387255,fall
23/10/2020, 15:47:04,-9.292676,-1.2502003,1.7794995,-0.028482076,-0.19082437,-0.13972847,9.543764771803602,0.23822094020387255,fall
23/10/2020, 15:47:04,-9.292676,-1.2502003,1.7794995,-0.035812456,-0.26657164,-0.120180786,9.543764771803602,0.2945953038079526,fall
23/10/2020, 15:47:04,-9.491463,-1.6908839,1.8106349,-0.035812456,-0.26657164,-0.120180786,9.80945213413643,0.2945953038079526,fall
23/10/2020, 15:47:04,-9.491463,-1.6908839,1.8106349,-0.010156126,-0.29833663,-0.10063311,9.80945213413643,0.315015731378354,fall
23/10/2020, 15:47:04,-9.108259,-1.1472144,2.44771,-0.010156126,-0.29833663,-0.10063311,9.500935270201236,0.315015731378354,fall
23/10/2020, 15:47:05,-9.21364,-0.5676197,2.574646,0.025274046,-0.010008331,-0.03221623,9.583431540044074,0.04215245506697543,fall
23/10/2020, 15:47:05,-9.230406,-0.57719976,2.6177564,0.025274046,-0.010008331,-0.03221623,9.611773994751903,0.04215245506697543,fall
23/10/2020, 15:47:05,-9.230406,-0.57719976,2.6177564,0.036269616,-0.023447363,-0.044433527,9.611773994751903,0.06196452357227363,fall
23/10/2020, 15:47:05,-9.268726,-0.6514453,2.6967921,0.036269616,-0.023447363,-0.044433527,9.675037825070053,0.06196452357227363,fall
23/10/2020, 15:47:05,-9.268726,-0.6514453,2.6967921,0.061925948,-0.025890823,-0.054207366,9.675037825070053,0.08627627865045233,fall
23/10/2020, 15:47:05,-9.230406,-0.6011499,2.7279274,0.061925948,-0.025890823,-0.054207366,9.64382500597973,0.08627627865045233,fall
23/10/2020, 15:47:05,-9.230406,-0.6011499,2.7279274,0.081473626,-0.023447363,-0.07253332,9.64382500597973,0.11157424723233925,fall
23/10/2020, 15:47:05,-9.304651,-0.73048097,2.7111623,0.081473626,-0.023447363,-0.07253332,9.719081165207363,0.11157424723233925,fall
23/10/2020, 15:47:05,-9.304651,-0.73048097,2.7111623,0.093690924,-0.018560443,-0.07375505,9.719081165207363,0.12067429920754084,fall
23/10/2020, 15:47:05,-9.271121,-0.6346802,2.680027,0.093690924,-0.018560443,-0.07375505,9.6715587573369,0.12067429920754084,fall
23/10/2020, 15:47:05,-9.271121,-0.6346802,2.680027,0.081473626,-0.021003902,-0.071311586,9.6715587573369,0.11029260131390893,fall
23/10/2020, 15:47:05,-9.266331,-0.62031007,2.5914114,0.081473626,-0.021003902,-0.071311586,9.641840196274245,0.11029260131390893,fall
23/10/2020, 15:47:05,-9.266331,-0.62031007,2.5914114,0.047265187,-0.036886394,-0.070089854,9.641840196274245,0.09223443843343088,fall
23/10/2020, 15:47:05,-9.292676,-0.7568262,2.543511,0.047265187,-0.036886394,-0.070089854,9.664163720643062,0.09223443843343088,fall
23/10/2020, 15:47:05,-9.292676,-0.7568262,2.543511,0.016721934,-0.055212345,-0.061537746,9.664163720643062,0.0843499872053903,fall
23/10/2020, 15:47:05,-9.235196,-0.76880133,2.4980054,0.016721934,-0.055212345,-0.061537746,9.597912985282449,0.0843499872053903,fall
23/10/2020, 15:47:05,-9.235196,-0.76880133,2.4980054,0.003282905,-0.06865137,-0.045655258,9.597912985282449,0.0825117612733662,fall
23/10/2020, 15:47:05,-9.211246,-0.82388675,2.7614577,0.003282905,-0.06865137,-0.045655258,9.651501554017623,0.0825117612733662,fall
23/10/2020, 15:47:05,-9.211246,-0.82388675,2.7614577,-3.8228463E-4,-0.057655804,-0.03221623,9.651501554017623,0.06604712894472263,fall
23/10/2020, 15:47:05,-9.177715,-0.87178713,2.8979738,-3.8228463E-4,-0.057655804,-0.03221623,9.663784091271754,0.06604712894472263,fall
23/10/2020, 15:47:05,-9.177715,-0.87178713,2.8979738,0.009391556,-0.024669092,-0.016333736,9.663784091271754,0.031041204401466266,fall
23/10/2020, 15:47:05,-9.211246,-0.79035646,2.8692336,0.009391556,-0.024669092,-0.016333736,9.680093448282065,0.031041204401466266,fall
23/10/2020, 15:47:05,-9.211246,-0.79035646,2.8692336,0.019165397,-0.0038996818,-0.0028947059,9.680093448282065,0.019771172722598977,fall
23/10/2020, 15:47:05,-9.19448,-0.6849756,2.955454,0.019165397,-0.0038996818,-0.0028947059,9.682063933798455,0.019771172722598977,fall
23/10/2020, 15:47:05,-9.19448,-0.6849756,2.955454,0.013056746,0.014426269,7.704842E-4,9.682063933798455,0.019472788253512303,fall
23/10/2020, 15:47:05,-9.208851,-0.83586186,2.8333082,0.013056746,0.014426269,7.704842E-4,9.671051374775969,0.019472788253512303,fall
23/10/2020, 15:47:05,-9.208851,-0.83586186,2.8333082,0.022830587,0.019313188,0.009322595,9.671051374775969,0.03132324557271211,fall
23/10/2020, 15:47:53,-9.189691,-0.8286768,2.7375073,0.022830587,0.019313188,0.009322595,9.624503356768054,0.03132324557271211,fall
23/10/2020, 15:47:53,-9.189691,-0.8286768,2.7375073,0.028939236,0.024200108,0.017874705,9.624503356768054,0.041744816053587,fall
23/10/2020, 15:47:53,-9.244776,-0.64186525,2.7159522,0.028939236,0.024200108,0.017874705,9.656824851072898,0.041744816053587,fall
23/10/2020, 15:47:53,-9.244776,-0.64186525,2.7159522,0.025274046,0.015647998,0.016652975,9.656824851072898,0.034072845747169705,fall
23/10/2020, 15:47:53,-9.311836,-0.60833496,2.6297317,0.025274046,0.015647998,0.016652975,9.695145909688668,0.034072845747169705,fall
23/10/2020, 15:47:53,-9.311836,-0.60833496,2.6297317,0.0020611752,-0.0051214118,0.006879134,9.695145909688668,0.008820418783714559,fall
23/10/2020, 15:47:53,-9.280701,-0.6730005,2.6033864,0.0020611752,-0.0051214118,0.006879134,9.662399061815892,0.008820418783714559,fall
23/10/2020, 15:47:53,-9.280701,-0.6730005,2.6033864,0.004504635,-0.018560443,0.0032139444,9.662399061815892,0.01936778825859472,fall
23/10/2020, 15:47:53,-9.244776,-0.69695073,2.7303224,0.004504635,-0.018560443,0.0032139444,9.66469242119978,0.01936778825859472,fall
23/10/2020, 15:47:53,-9.244776,-0.69695073,2.7303224,0.019165397,-0.014895253,-0.011446816,9.66469242119978,0.026836739432387045,fall
23/10/2020, 15:47:53,-9.2328005,-0.7089258,2.7303224,0.019165397,-0.014895253,-0.011446816,9.654110043578036,0.026836739432387045,fall
23/10/2020, 15:47:53,-9.2328005,-0.7089258,2.7303224,0.036269616,-0.011230063,-0.018777195,9.654110043578036,0.042357790817950894,fall
23/10/2020, 15:47:53,-9.2256155,-0.6011499,2.6536818,0.036269616,-0.011230063,-0.018777195,9.61849205744845,0.042357790817950894,fall
23/10/2020, 15:47:53,-9.2256155,-0.6011499,2.6536818,0.046043456,-0.019782173,-0.027329307,9.61849205744845,0.057080865243232415,fall
23/10/2020, 15:47:53,-9.268726,-0.5508545,2.7518775,0.046043456,-0.019782173,-0.027329307,9.684294442289016,0.057080865243232415,fall
23/10/2020, 15:47:53,-9.268726,-0.5508545,2.7518775,0.047265187,-0.022225633,-0.040768337,9.684294442289016,0.06625733113077939,fall
23/10/2020, 15:47:53,-9.251961,-0.72569096,2.692002,0.047265187,-0.022225633,-0.040768337,9.662933315096344,0.06625733113077939,fall
23/10/2020, 15:47:53,-9.251961,-0.72569096,2.692002,0.0643694,-0.022225633,-0.051763907,9.662933315096344,0.08553888513292415,fall
23/10/2020, 15:47:53,-9.2256155,-0.7161109,2.7710378,0.0643694,-0.022225633,-0.051763907,9.659370929973365,0.08553888513292415,fall
23/10/2020, 15:47:53,-9.2256155,-0.7161109,2.7710378,0.0680346,-0.023447363,-0.05665083,9.659370929973365,0.0915849417169077,fall
23/10/2020, 15:47:53,-9.216036,-0.61552006,2.687212,0.0680346,-0.023447363,-0.05665083,9.619526489541437,0.0915849417169077,fall
23/10/2020, 15:47:53,-9.216036,-0.61552006,2.687212,0.0558173,-0.033221204,-0.055429097,9.619526489541437,0.08539088961823531,fall
23/10/2020, 15:47:53,-9.309442,-0.62031007,2.6273365,0.0558173,-0.033221204,-0.055429097,9.69295537775913,0.08539088961823531,fall
23/10/2020, 15:47:53,-9.309442,-0.62031007,2.6273365,0.021608856,-0.049103692,-0.059094287,9.69295537775913,0.07981384613094293,fall
23/10/2020, 15:47:53,-9.319021,-0.55803955,2.5459058,0.021608856,-0.049103692,-0.059094287,9.676631708085596,0.07981384613094293,fall
23/10/2020, 15:47:53,-9.319021,-0.55803955,2.5459058,-0.017486505,-0.064986184,-0.061537746,9.676631708085596,0.09119142630247437,fall
