DATE,TIME,ax,ay,az,gx,gy,gz,ma,mg,label
23/10/2020, 15:15:40,0.026345216,3.6236646,9.1849,0.13762037,-0.053830218,0.030401373,9.873906651087463,0.15086849676194652,stand
23/10/2020, 15:15:40,0.021555176,3.7506008,9.249566,0.13762037,-0.053830218,0.030401373,9.981079286954184,0.15086849676194652,stand
23/10/2020, 15:15:40,0.021555176,3.7506008,9.249566,0.110742316,-0.048943296,0.027957913,9.981079286954184,0.12426162553048581,stand
23/10/2020, 15:15:40,0.06227051,3.8368216,9.283096,0.110742316,-0.048943296,0.027957913,10.044946711411765,0.12426162553048581,stand
23/10/2020, 15:15:40,0.06227051,3.8368216,9.283096,0.05820792,-0.031839076,0.030401373,10.044946711411765,0.07298035648085278,stand
23/10/2020, 15:15:40,0.16765137,3.8487966,9.244776,0.05820792,-0.031839076,0.030401373,10.015349288620808,0.07298035648085278,stand
23/10/2020, 15:15:40,0.16765137,3.8487966,9.244776,0.016669102,-0.0049610147,0.025514454,10.015349288620808,0.030878114807438923,stand
23/10/2020, 15:15:40,0.22513184,3.784131,9.196876,0.016669102,-0.0049610147,0.025514454,9.947504834891106,0.030878114807438923,stand
23/10/2020, 15:15:40,0.22513184,3.784131,9.196876,0.008116991,0.013364935,0.019405803,9.947504834891106,0.024921721878705793,stand
23/10/2020, 15:15:40,0.20357667,3.7506008,9.15616,0.008116991,0.013364935,0.019405803,9.896652078947405,0.024921721878705793,stand
23/10/2020, 15:15:40,0.20357667,3.7506008,9.15616,0.032551594,0.017030125,0.019405803,9.896652078947405,0.04154776323632233,stand
23/10/2020, 15:15:40,0.17723145,3.7434156,9.110655,0.032551594,0.017030125,0.019405803,9.851324923276708,0.04154776323632233,stand
23/10/2020, 15:15:40,0.17723145,3.7434156,9.110655,0.05820792,0.018251857,0.020627532,9.851324923276708,0.06439555501561821,stand
23/10/2020, 15:15:40,0.20357667,3.7170706,9.072334,0.05820792,0.018251857,0.020627532,9.806391110635866,0.06439555501561821,stand
23/10/2020, 15:15:40,0.20357667,3.7170706,9.072334,0.07164695,0.019473586,0.024292722,9.806391110635866,0.0781194119737659,stand
23/10/2020, 15:15:40,0.22513184,3.772156,9.134604,0.07164695,0.019473586,0.024292722,9.885385362559822,0.0781194119737659,stand
23/10/2020, 15:15:40,0.22513184,3.772156,9.134604,0.06309484,0.019473586,0.023070993,9.885385362559822,0.06994605092414317,stand
23/10/2020, 15:15:40,0.25147706,3.915857,9.15137,0.06309484,0.019473586,0.023070993,9.957145731723433,0.06994605092414317,stand
23/10/2020, 15:15:40,0.25147706,3.915857,9.15137,0.038660243,0.020695316,0.024292722,9.957145731723433,0.05013029872681476,stand
23/10/2020, 15:15:40,0.29937744,3.9781277,9.043594,0.038660243,0.020695316,0.024292722,9.88441834138464,0.05013029872681476,stand
23/10/2020, 15:15:40,0.29937744,3.9781277,9.043594,0.010560452,0.024360506,0.023070993,9.88441834138464,0.035174253453608376,stand
23/10/2020, 15:15:40,0.3161426,4.0499783,8.935819,0.010560452,0.024360506,0.023070993,9.815860907453361,0.035174253453608376,stand
23/10/2020, 15:15:40,0.3161426,4.0499783,8.935819,-0.0041003088,0.030469155,0.016962342,9.815860907453361,0.035112718201338204,stand
23/10/2020, 15:15:40,0.27542725,4.0763235,8.868757,-0.0041003088,0.030469155,0.016962342,9.764585431321827,0.035112718201338204,stand
23/10/2020, 15:15:40,0.27542725,4.0763235,8.868757,-0.013874149,0.029247427,0.010853692,9.764585431321827,0.03414244638768708,stand
23/10/2020, 15:15:40,0.2921924,3.9541774,8.830438,-0.013874149,0.029247427,0.010853692,9.679748158847685,0.03414244638768708,stand
23/10/2020, 15:15:40,0.2921924,3.9541774,8.830438,-0.011430688,0.021917047,0.004745042,9.679748158847685,0.025170081529161784,stand
23/10/2020, 15:15:40,0.22992188,3.8751419,8.744217,-0.011430688,0.021917047,0.004745042,9.567179209310662,0.025170081529161784,stand
23/10/2020, 15:15:40,0.22992188,3.8751419,8.744217,0.010560452,0.009699745,-0.0038070686,9.567179209310662,0.014835834076910862,stand
23/10/2020, 15:15:40,0.083825685,3.8392165,8.842413,0.010560452,0.009699745,-0.0038070686,9.640273679114747,0.014835834076910862,stand
23/10/2020, 15:15:41,-2.8548634,3.6500099,0.42870852,-0.08595622,0.0768949,0.07438365,4.653666094124096,0.13723784525313393,stand
23/10/2020, 15:15:41,4.157754,4.3325906,6.830596,-0.08595622,0.0768949,0.07438365,9.094795231527668,0.13723784525313393,stand
23/10/2020, 15:15:41,4.157754,4.3325906,6.830596,0.124181345,-0.28229374,0.08171403,9.094795231527668,0.3190422268803015,stand
23/10/2020, 15:15:41,-0.20118165,3.9254372,19.864292,0.124181345,-0.28229374,0.08171403,20.2494353939715,0.3190422268803015,stand
23/10/2020, 15:15:41,-0.20118165,3.9254372,19.864292,0.026442941,0.10621642,0.024292722,20.2494353939715,0.112121782284313,stand
23/10/2020, 15:15:41,-3.5901344,3.3985329,2.2393434,0.026442941,0.10621642,0.024292722,5.4271308642871565,0.112121782284313,stand
23/10/2020, 15:15:41,-3.5901344,3.3985329,2.2393434,-0.18369462,0.23816326,0.046283863,5.4271308642871565,0.3043150466322647,stand
23/10/2020, 15:15:41,3.8392165,4.3709106,3.9493873,-0.18369462,0.23816326,0.046283863,7.031507883177579,0.3043150466322647,stand
23/10/2020, 15:15:41,3.8392165,4.3709106,3.9493873,0.075312145,-0.2163203,0.060944624,7.031507883177579,0.2370245582890728,stand
23/10/2020, 15:15:41,1.6310084,4.0978785,20.355272,0.075312145,-0.2163203,0.060944624,20.827623636031227,0.2370245582890728,stand
23/10/2020, 15:15:41,1.6310084,4.0978785,20.355272,0.055764463,0.028025696,0.004745042,20.827623636031227,0.0625909767752607,stand
23/10/2020, 15:15:41,-4.0930886,3.415298,6.605464,0.055764463,0.028025696,0.004745042,8.488214726713991,0.0625909767752607,stand
23/10/2020, 15:15:41,-4.0930886,3.415298,6.605464,-0.06274335,0.26381958,0.026736183,8.488214726713991,0.27249278867618193,stand
23/10/2020, 15:15:41,2.5698562,4.3565407,-0.3520679,-0.06274335,0.26381958,0.026736183,5.070262242897381,0.27249278867618193,stand
23/10/2020, 15:15:41,2.5698562,4.3565407,-0.3520679,0.096081555,-0.14179477,0.040175214,5.070262242897381,0.17593029902029308,stand
23/10/2020, 15:15:41,3.4919386,4.2439747,17.823736,0.096081555,-0.14179477,0.040175214,18.651823719278102,0.17593029902029308,stand
23/10/2020, 15:15:41,3.4919386,4.2439747,17.823736,-0.15926002,0.030469155,-0.016024368,18.651823719278102,0.1629383430346519,stand
23/10/2020, 15:15:41,-3.4368532,3.7003052,12.966637,-0.15926002,0.030469155,-0.016024368,13.915383022930053,0.1629383430346519,stand
23/10/2020, 15:15:41,-3.4368532,3.7003052,12.966637,-0.026091449,0.29436284,0.0010798516,13.915383022930053,0.2955188879736256,stand
23/10/2020, 15:15:41,-0.6322852,3.8176613,-2.179468,-0.026091449,0.29436284,0.0010798516,4.441216346339948,0.2955188879736256,stand
23/10/2020, 15:15:41,-0.6322852,3.8176613,-2.179468,0.118072696,-0.05138676,0.018184073,4.441216346339948,0.13004776444312094,stand
23/10/2020, 15:15:41,4.5792775,4.550537,11.273357,0.118072696,-0.05138676,0.018184073,12.990987545996038,0.13004776444312094,stand
23/10/2020, 15:15:41,4.5792775,4.550537,11.273357,-0.29487205,-0.042834647,-0.027019938,12.990987545996038,0.2991895841853806,stand
23/10/2020, 15:15:41,-1.0274634,3.9589674,18.29316,-0.29487205,-0.042834647,-0.027019938,18.744833642896126,0.2991895841853806,stand
23/10/2020, 15:15:41,-1.0274634,3.9589674,18.29316,0.01911256,0.2112852,-0.04045897,18.744833642896126,0.21597142292360338,stand
23/10/2020, 15:15:41,-3.0368848,3.4584084,1.2909156,0.01911256,0.2112852,-0.04045897,4.780138142190487,0.21597142292360338,stand
23/10/2020, 15:15:41,-3.0368848,3.4584084,1.2909156,0.026442941,0.16119426,-0.03679378,4.780138142190487,0.16744134015345546,stand
23/10/2020, 15:15:41,3.7218604,4.1721244,2.7542725,0.026442941,0.16119426,-0.03679378,6.232566372082477,0.16744134015345546,stand
23/10/2020, 15:15:41,3.7218604,4.1721244,2.7542725,-0.08962141,-0.17478149,-0.011137449,6.232566372082477,0.19673486688827366,stand
23/10/2020, 15:15:41,2.454895,4.248765,18.982925,-0.08962141,-0.17478149,-0.011137449,19.606885801296002,0.19673486688827366,stand
23/10/2020, 15:15:42,9.029224,-3.5685792,3.9374123,-5.3748255,-2.208962,-2.551114,10.476872911048364,6.3463725806654745,stand
23/10/2020, 15:15:42,9.292676,-3.8679566,3.8152664,-5.3748255,-2.208962,-2.551114,10.764347298201946,6.3463725806654745,stand
23/10/2020, 15:15:42,9.292676,-3.8679566,3.8152664,-5.0864973,-2.0354764,-2.6708436,10.764347298201946,6.094999980096614,stand
23/10/2020, 15:15:42,10.008787,-4.164939,3.9278321,-5.0864973,-2.0354764,-2.6708436,11.53041203926057,6.094999980096614,stand
23/10/2020, 15:15:42,10.008787,-4.164939,3.9278321,-4.8726945,-1.8558819,-2.8406641,11.53041203926057,5.937745544830735,stand
23/10/2020, 15:15:42,10.497371,-4.6966333,3.7458107,-4.8726945,-1.8558819,-2.8406641,12.094802805543706,5.937745544830735,stand
23/10/2020, 15:15:42,10.497371,-4.6966333,3.7458107,-4.7407475,-1.7679174,-3.0288105,12.094802805543706,5.896940848220275,stand
23/10/2020, 15:15:42,10.928474,-5.149292,3.767366,-4.7407475,-1.7679174,-3.0288105,12.654635805724649,5.896940848220275,stand
23/10/2020, 15:15:42,10.928474,-5.149292,3.767366,-4.583144,-1.7508131,-3.2010746,12.654635805724649,5.858108555468402,stand
23/10/2020, 15:15:42,11.464959,-5.1971927,3.8631666,-4.583144,-1.7508131,-3.2010746,13.167389861991767,5.858108555468402,stand
23/10/2020, 15:15:42,11.464959,-5.1971927,3.8631666,-4.3241377,-1.7776912,-3.3672297,13.167389861991767,5.761648093907693,stand
23/10/2020, 15:15:42,12.300821,-5.2043777,3.7362306,-4.3241377,-1.7776912,-3.3672297,13.869216657110323,5.761648093907693,stand
23/10/2020, 15:15:42,12.300821,-5.2043777,3.7362306,-4.0626874,-1.7728043,-3.511394,13.869216657110323,5.65492279540492,stand
23/10/2020, 15:15:42,13.182188,-5.101392,3.5709743,-4.0626874,-1.7728043,-3.511394,14.5789621507141,5.65492279540492,stand
23/10/2020, 15:15:42,13.182188,-5.101392,3.5709743,-3.8220067,-1.6995006,-3.6127975,14.5789621507141,5.527055559339619,stand
23/10/2020, 15:15:42,14.04679,-5.118157,3.4775686,-3.8220067,-1.6995006,-3.6127975,15.34931029282274,5.527055559339619,stand
23/10/2020, 15:15:42,14.04679,-5.118157,3.4775686,-3.62653,-1.5284584,-3.6995404,15.34931029282274,5.401342730753201,stand
23/10/2020, 15:15:42,14.873072,-5.3001785,3.1302907,-3.62653,-1.5284584,-3.6995404,16.096548496571735,5.401342730753201,stand
23/10/2020, 15:15:42,14.873072,-5.3001785,3.1302907,-3.5642216,-1.3158773,-3.7801745,16.096548496571735,5.3595641689409845,stand
23/10/2020, 15:15:42,15.517332,-5.4606447,2.7111623,-3.5642216,-1.3158773,-3.7801745,16.672031572100728,5.3595641689409845,stand
23/10/2020, 15:15:42,15.517332,-5.4606447,2.7111623,-3.589878,-1.149722,-3.8266003,16.672031572100728,5.37140160795995,stand
23/10/2020, 15:15:42,15.867005,-5.53489,2.5818312,-3.589878,-1.149722,-3.8266003,17.00184461756767,5.37140160795995,stand
23/10/2020, 15:15:42,15.867005,-5.53489,2.5818312,-3.6521862,-1.0361011,-3.814383,17.00184461756767,5.381587786840034,stand
23/10/2020, 15:15:42,15.922091,-5.7312818,2.5004005,-3.6521862,-1.0361011,-3.814383,17.105921790911964,5.381587786840034,stand
23/10/2020, 15:15:42,15.922091,-5.7312818,2.5004005,-3.716938,-0.9200368,-3.7569616,17.105921790911964,5.364406423822887,stand
23/10/2020, 15:15:42,15.977176,-6.0737696,2.5291407,-3.716938,-0.9200368,-3.7569616,17.278812843136656,5.364406423822887,stand
23/10/2020, 15:15:42,15.977176,-6.0737696,2.5291407,-3.802459,-0.7868682,-3.6176844,17.278812843136656,5.307117504389503,stand
23/10/2020, 15:15:42,15.8215,-6.1791506,2.5243506,-3.802459,-0.7868682,-3.6176844,17.171898694499177,5.307117504389503,stand
23/10/2020, 15:15:42,15.8215,-6.1791506,2.5243506,-3.9344058,-0.6952385,-3.4344249,17.171898694499177,5.268603211149782,stand
23/10/2020, 15:15:42,15.579602,-6.05461,2.5243506,-3.9344058,-0.6952385,-3.4344249,16.904279094583398,5.268603211149782,stand
23/10/2020, 15:15:43,10.013577,-2.7590625,2.6967921,3.2322624,-0.7184514,-0.36910436,10.731115849637268,3.3316558134803227,stand
23/10/2020, 15:15:43,10.782378,-2.5578809,2.454895,3.2322624,-0.7184514,-0.36910436,11.350283860867753,3.3316558134803227,stand
23/10/2020, 15:15:43,10.782378,-2.5578809,2.454895,3.116198,-0.72456,-0.47783834,11.350283860867753,3.2348117518496804,stand
23/10/2020, 15:15:43,11.373948,-2.2848487,2.2489235,3.116198,-0.72456,-0.47783834,11.817143730364355,3.2348117518496804,stand
23/10/2020, 15:15:43,11.373948,-2.2848487,2.2489235,2.9329386,-0.67446905,-0.5499204,11.817143730364355,3.059321757843944,stand
23/10/2020, 15:15:43,11.891273,-2.0333717,1.9064356,2.9329386,-0.67446905,-0.5499204,12.213576866918872,3.059321757843944,stand
23/10/2020, 15:15:43,11.891273,-2.0333717,1.9064356,2.6287277,-0.6060522,-0.6122286,12.213576866918872,2.7662849283164026,stand
23/10/2020, 15:15:43,12.015814,-1.9327809,1.8489552,2.6287277,-0.6060522,-0.6122286,12.309917098035056,2.7662849283164026,stand
23/10/2020, 15:15:43,12.015814,-1.9327809,1.8489552,2.2756479,-0.47044018,-0.6684282,12.309917098035056,2.4179916180597227,stand
23/10/2020, 15:15:43,11.855348,-2.0309765,1.8369801,2.2756479,-0.47044018,-0.6684282,12.167523539866297,2.4179916180597227,stand
23/10/2020, 15:15:43,11.855348,-2.0309765,1.8369801,1.9751023,-0.27374163,-0.73073643,12.167523539866297,2.123661775086855,stand
23/10/2020, 15:15:43,11.208692,-2.454895,2.064507,1.9751023,-0.27374163,-0.73073643,11.658621962207338,2.123661775086855,stand
23/10/2020, 15:15:43,11.208692,-2.454895,2.064507,1.7173173,-0.07948654,-0.73562336,11.658621962207338,1.8699301305976241,stand
23/10/2020, 15:15:43,10.226734,-2.682422,2.3830445,1.7173173,-0.07948654,-0.73562336,10.83791400494189,1.8699301305976241,stand
23/10/2020, 15:15:43,10.226734,-2.682422,2.3830445,1.510845,0.047573376,-0.7014149,10.83791400494189,1.6664028669582938,stand
23/10/2020, 15:15:43,9.266331,-2.6273365,2.5267458,1.510845,0.047573376,-0.7014149,9.957521097519393,1.6664028669582938,stand
23/10/2020, 15:15:43,9.266331,-2.6273365,2.5267458,1.3727895,0.085447006,-0.6696499,9.957521097519393,1.5297984165428367,stand
23/10/2020, 15:15:43,8.605306,-2.6297317,2.694397,1.3727895,0.085447006,-0.6696499,9.39289887774038,1.5297984165428367,stand
23/10/2020, 15:15:43,8.605306,-2.6297317,2.694397,1.2652771,0.08789047,-0.5829071,9.39289887774038,1.3958623351155468,stand
23/10/2020, 15:15:43,8.260423,-2.4860303,2.7015822,1.2652771,0.08789047,-0.5829071,9.03955067974656,1.3958623351155468,stand
23/10/2020, 15:15:43,8.260423,-2.4860303,2.7015822,1.1369956,0.037799533,-0.4643993,9.03955067974656,1.2287613322844118,stand
23/10/2020, 15:15:43,8.186177,-2.1411476,2.5363257,1.1369956,0.037799533,-0.4643993,8.8335134093923,1.2287613322844118,stand
23/10/2020, 15:15:43,8.186177,-2.1411476,2.5363257,0.9891662,-0.026952155,-0.3336742,8.8335134093923,1.0442770977520246,stand
23/10/2020, 15:15:43,8.174202,-1.8585353,2.454895,0.9891662,-0.026952155,-0.3336742,8.734886418852682,1.0442770977520246,stand
23/10/2020, 15:15:43,8.174202,-1.8585353,2.454895,0.84500206,-0.05505195,-0.17484927,8.734886418852682,0.8646568441603623,stand
23/10/2020, 15:15:43,8.246053,-1.7603394,2.3662794,0.84500206,-0.05505195,-0.17484927,8.757594337546212,0.8646568441603623,stand
23/10/2020, 15:15:43,8.246053,-1.7603394,2.3662794,0.7338247,-0.057495408,-0.019689558,8.757594337546212,0.7363369115922807,stand
23/10/2020, 15:15:43,8.370594,-1.8226099,2.2896388,0.7338247,-0.057495408,-0.019689558,8.86742334724219,0.7363369115922807,stand
23/10/2020, 15:15:43,8.370594,-1.8226099,2.2896388,0.65929914,-0.050165027,0.0927096,8.86742334724219,0.6676727864470577,stand
23/10/2020, 15:15:43,8.533455,-1.8657203,2.208208,0.65929914,-0.050165027,0.0927096,9.009825054996195,0.6676727864470577,stand
23/10/2020, 15:15:44,9.465117,-1.7723145,2.2968237,-0.7456904,0.48250926,0.060944624,9.899744773451317,0.8902716492391842,stand
23/10/2020, 15:15:44,9.469908,-1.8681153,2.5171657,-0.7456904,0.48250926,0.060944624,9.975225849823982,0.8902716492391842,stand
23/10/2020, 15:15:44,9.469908,-1.8681153,2.5171657,-0.80433345,0.4764006,0.06460981,9.975225849823982,0.9370615074186314,stand
23/10/2020, 15:15:44,9.438772,-2.0094216,2.572251,-0.80433345,0.4764006,0.06460981,9.987225411138844,0.9370615074186314,stand
23/10/2020, 15:15:44,9.438772,-2.0094216,2.572251,-0.85320264,0.46662676,0.060944624,9.987225411138844,0.974376482741671,stand
23/10/2020, 15:15:44,9.565708,-2.0812721,2.5027955,-0.85320264,0.46662676,0.060944624,10.10437783206137,0.974376482741671,stand
23/10/2020, 15:15:44,9.565708,-2.0812721,2.5027955,-0.8959632,0.45929638,0.060944624,10.10437783206137,1.0086711303381921,stand
23/10/2020, 15:15:44,9.70941,-2.1507277,2.3566992,-0.8959632,0.45929638,0.060944624,10.220190707209843,1.0086711303381921,stand
23/10/2020, 15:15:44,9.70941,-2.1507277,2.3566992,-0.9155109,0.4641833,0.049949054,10.220190707209843,1.0276775951644415,stand
23/10/2020, 15:15:44,9.891431,-2.1171973,2.208208,-0.9155109,0.4641833,0.049949054,10.35370038198434,1.0276775951644415,stand
23/10/2020, 15:15:44,9.891431,-2.1171973,2.208208,-0.8959632,0.47884408,0.046283863,10.35370038198434,1.0169483206690453,stand
23/10/2020, 15:15:44,9.881851,-2.2441335,2.2058132,-0.8959632,0.47884408,0.046283863,10.370763223909107,1.0169483206690453,stand
23/10/2020, 15:15:44,9.881851,-2.2441335,2.2058132,-0.847094,0.49961346,0.056057703,10.370763223909107,0.9850504165381055,stand
23/10/2020, 15:15:44,9.833951,-2.4165747,2.179468,-0.847094,0.49961346,0.056057703,10.358402674125701,0.9850504165381055,stand
23/10/2020, 15:15:44,9.833951,-2.4165747,2.179468,-0.7774554,0.51916116,0.06705327,10.358402674125701,0.937262684160956,stand
23/10/2020, 15:15:44,9.75731,-2.4501052,2.2513185,-0.7774554,0.51916116,0.06705327,10.309051701238646,0.937262684160956,stand
23/10/2020, 15:15:44,9.75731,-2.4501052,2.2513185,-0.693156,0.5216046,0.07071846,10.309051701238646,0.8703664185696225,stand
23/10/2020, 15:15:44,9.639954,-2.4692652,2.3878345,-0.693156,0.5216046,0.07071846,10.233656738364177,0.8703664185696225,stand
23/10/2020, 15:15:44,9.639954,-2.4692652,2.3878345,-0.5929742,0.49839175,0.07682711,10.233656738364177,0.7784055008812075,stand
23/10/2020, 15:15:44,9.592053,-2.5387208,2.411785,-0.5929742,0.49839175,0.07682711,10.211233939286323,0.7784055008812075,stand
23/10/2020, 15:15:44,9.592053,-2.5387208,2.411785,-0.48668367,0.451966,0.08904441,10.211233939286323,0.6701217440733674,stand
23/10/2020, 15:15:44,9.625584,-2.5243506,2.4189699,-0.48668367,0.451966,0.08904441,10.240879941561566,0.6701217440733674,stand
23/10/2020, 15:15:44,9.625584,-2.5243506,2.4189699,-0.3730628,0.406762,0.08904441,10.240879941561566,0.5590707281733389,stand
23/10/2020, 15:15:44,9.730965,-2.5243506,2.3447242,-0.3730628,0.406762,0.08904441,10.322875126082655,0.5590707281733389,stand
23/10/2020, 15:15:44,9.730965,-2.5243506,2.3447242,-0.2728809,0.37255356,0.07682711,10.322875126082655,0.4681479997245425,stand
23/10/2020, 15:15:44,9.70941,-2.3998096,2.2417383,-0.2728809,0.37255356,0.07682711,10.249737254832558,0.4681479997245425,stand
23/10/2020, 15:15:44,9.70941,-2.3998096,2.2417383,-0.18369462,0.36033624,0.06705327,10.249737254832558,0.40997812406556444,stand
23/10/2020, 15:15:44,9.639954,-2.2896388,2.1579127,-0.18369462,0.36033624,0.06705327,10.140401306770391,0.40997812406556444,stand
23/10/2020, 15:15:44,9.639954,-2.2896388,2.1579127,-0.12505159,0.3627797,0.049949054,10.140401306770391,0.3869650154531738,stand
23/10/2020, 15:15:44,9.575289,-2.186653,1.9279908,-0.12505159,0.3627797,0.049949054,10.009233461188924,0.3869650154531738,stand
23/10/2020, 15:15:45,9.400452,-1.9758912,2.2776637,-0.34251952,-0.019621775,0.11347901,9.87220287185652,0.36136148476917446,stand
23/10/2020, 15:15:45,9.582474,-2.0070264,2.320774,-0.34251952,-0.019621775,0.11347901,10.061707146026505,0.36136148476917446,stand
23/10/2020, 15:15:45,9.582474,-2.0070264,2.320774,-0.29120684,-0.061160598,0.08904441,10.061707146026505,0.3105977252049367,stand
23/10/2020, 15:15:45,9.673484,-2.1315675,2.4165747,-0.29120684,-0.061160598,0.08904441,10.196063114916909,0.3105977252049367,stand
23/10/2020, 15:15:45,9.673484,-2.1315675,2.4165747,-0.22156826,-0.090482116,0.07071846,10.196063114916909,0.24956082658195122,stand
23/10/2020, 15:15:45,9.745335,-2.2345533,2.555486,-0.22156826,-0.090482116,0.07071846,10.319655230946559,0.24956082658195122,stand
23/10/2020, 15:15:45,9.745335,-2.2345533,2.555486,-0.12871677,-0.11247326,0.058501165,10.319655230946559,0.1806671689248306,stand
23/10/2020, 15:15:45,9.69504,-2.315984,2.7183473,-0.12871677,-0.11247326,0.058501165,10.331843484037199,0.1806671689248306,stand
23/10/2020, 15:15:45,9.69504,-2.315984,2.7183473,-0.01631761,-0.13202094,0.051170785,10.331843484037199,0.14252803587326995,stand
23/10/2020, 15:15:45,9.5633135,-2.3878345,2.8907888,-0.01631761,-0.13202094,0.051170785,10.272067877456855,0.14252803587326995,stand
23/10/2020, 15:15:45,9.5633135,-2.3878345,2.8907888,0.10829885,-0.15156862,0.040175214,10.272067877456855,0.19056688173654915,stand
23/10/2020, 15:15:45,9.3453665,-2.3926246,2.9889846,0.10829885,-0.15156862,0.040175214,10.099235417188192,0.19056688173654915,stand
23/10/2020, 15:15:45,9.3453665,-2.3926246,2.9889846,0.23169358,-0.18211186,0.031623103,10.099235417188192,0.296389381204355,stand
23/10/2020, 15:15:45,9.091495,-2.4045997,3.1231055,0.23169358,-0.18211186,0.031623103,9.909145322470684,0.296389381204355,stand
23/10/2020, 15:15:45,9.091495,-2.4045997,3.1231055,0.35386658,-0.2199855,0.032844834,9.909145322470684,0.41796406274437925,stand
23/10/2020, 15:15:45,8.964559,-2.3638844,3.180586,0.35386658,-0.2199855,0.032844834,9.801397275028648,0.41796406274437925,stand
23/10/2020, 15:15:45,8.964559,-2.3638844,3.180586,0.47115266,-0.24930702,0.041396942,9.801397275028648,0.5346517837286291,stand
23/10/2020, 15:15:45,8.935819,-2.2920337,3.2811768,0.47115266,-0.24930702,0.041396942,9.791240724551585,0.5346517837286291,stand
23/10/2020, 15:15:45,8.935819,-2.2920337,3.2811768,0.5823301,-0.267633,0.056057703,9.791240724551585,0.6433336912292105,stand
23/10/2020, 15:15:45,8.897498,-2.2632935,3.307522,0.5823301,-0.267633,0.056057703,9.758466715802363,0.6433336912292105,stand
23/10/2020, 15:15:45,8.897498,-2.2632935,3.307522,0.6873989,-0.2688547,0.07438365,9.758466715802363,0.7418443528525072,stand
23/10/2020, 15:15:45,8.902288,-2.196233,3.2476466,0.6873989,-0.2688547,0.07438365,9.727352527731734,0.7418443528525072,stand
23/10/2020, 15:15:45,8.902288,-2.196233,3.2476466,0.7558158,-0.24686356,0.08537922,9.727352527731734,0.7996804096582647,stand
23/10/2020, 15:15:45,8.923843,-2.069297,3.1350808,0.7558158,-0.24686356,0.08537922,9.682236458417108,0.7996804096582647,stand
23/10/2020, 15:15:45,8.923843,-2.069297,3.1350808,0.7851373,-0.21021165,0.09148787,9.682236458417108,0.8179239212933762,stand
23/10/2020, 15:15:45,8.916658,-1.8034497,2.9817994,0.7851373,-0.21021165,0.09148787,9.573419216618413,0.8179239212933762,stand
23/10/2020, 15:15:45,8.916658,-1.8034497,2.9817994,0.7765852,-0.16256419,0.08660095,9.573419216618413,0.798129968167539,stand
23/10/2020, 15:15:45,8.995694,-1.6286134,2.8548634,0.7765852,-0.16256419,0.08660095,9.577324258053853,0.798129968167539,stand
23/10/2020, 15:15:45,8.995694,-1.6286134,2.8548634,0.72527254,-0.102699414,0.07804884,9.577324258053853,0.7366539506066706,stand
23/10/2020, 15:15:45,8.983719,-1.4441968,2.7806177,0.72527254,-0.102699414,0.07804884,9.514449227309491,0.7366539506066706,stand
23/10/2020, 15:15:46,9.326206,-1.9758912,2.9817994,-0.17269905,-0.1674511,-0.045345888,9.988663365583122,0.24478782954146322,stand
23/10/2020, 15:15:46,9.326206,-1.9758912,2.9817994,-0.15315138,-0.1466817,-0.041680697,9.988663365583122,0.21612067258625117,stand
23/10/2020, 15:15:46,9.2328005,-1.9303858,3.0847852,-0.15315138,-0.1466817,-0.041680697,9.924056332416434,0.21612067258625117,stand
23/10/2020, 15:15:46,9.2328005,-1.9303858,3.0847852,-0.13360369,-0.13690786,-0.04656762,9.924056332416434,0.19688131439994686,stand
23/10/2020, 15:15:46,9.192085,-1.8561403,3.0368848,-0.13360369,-0.13690786,-0.04656762,9.857096803050412,0.19688131439994686,stand
23/10/2020, 15:15:46,9.192085,-1.8561403,3.0368848,-0.14582099,-0.16256419,-0.06978049,9.857096803050412,0.22926009999146815,stand
23/10/2020, 15:15:46,9.309442,-1.839375,3.1350808,-0.14582099,-0.16256419,-0.06978049,9.993884852890716,0.22926009999146815,stand
23/10/2020, 15:15:46,9.309442,-1.839375,3.1350808,-0.15559483,-0.18455532,-0.08321952,9.993884852890716,0.2553348885000572,stand
23/10/2020, 15:15:46,9.465117,-1.8872755,3.1614258,-0.15559483,-0.18455532,-0.08321952,10.156026307169174,0.2553348885000572,stand
23/10/2020, 15:15:46,9.465117,-1.8872755,3.1614258,-0.17514251,-0.17111629,-0.08444125,10.156026307169174,0.2590096716585859,stand
23/10/2020, 15:15:46,9.72857,-1.8130299,3.2117214,-0.17514251,-0.17111629,-0.08444125,10.404196546998197,0.2590096716585859,stand
23/10/2020, 15:15:46,9.72857,-1.8130299,3.2117214,-0.20568576,-0.1259123,-0.094215095,10.404196546998197,0.2589150895581358,stand
23/10/2020, 15:15:46,9.7812605,-1.6908839,3.2452517,-0.20568576,-0.1259123,-0.094215095,10.443361689025787,0.2589150895581358,stand
23/10/2020, 15:15:46,9.7812605,-1.6908839,3.2452517,-0.25822014,-0.081930004,-0.09665855,10.443361689025787,0.2876335161521038,stand
23/10/2020, 15:15:46,9.659114,-1.6262183,3.0823903,-0.25822014,-0.081930004,-0.09665855,10.268602488050314,0.2876335161521038,stand
23/10/2020, 15:15:46,9.659114,-1.6262183,3.0823903,-0.31930667,-0.053830218,-0.08932817,10.268602488050314,0.3359076730117692,stand
23/10/2020, 15:15:46,9.663904,-1.5352076,3.1422658,-0.31930667,-0.053830218,-0.08932817,10.277243842410275,0.3359076730117692,stand
23/10/2020, 15:15:46,9.663904,-1.5352076,3.1422658,-0.38772357,-0.031839076,-0.08932817,10.277243842410275,0.39915261698612853,stand
23/10/2020, 15:15:46,9.642349,-1.5352076,3.056045,-0.38772357,-0.031839076,-0.08932817,10.230893058403169,0.39915261698612853,stand
23/10/2020, 15:15:46,9.642349,-1.5352076,3.056045,-0.45736217,0.0011476353,-0.08444125,10.230893058403169,0.46509332528487735,stand
23/10/2020, 15:15:46,9.74773,-1.4897022,3.1039455,-0.45736217,0.0011476353,-0.08444125,10.33788834689832,0.46509332528487735,stand
23/10/2020, 15:15:46,9.74773,-1.4897022,3.1039455,-0.51111823,0.041464724,-0.073445685,10.33788834689832,0.5180303468873285,stand
23/10/2020, 15:15:46,9.654325,-1.4585669,3.1901662,-0.51111823,0.041464724,-0.073445685,10.271833340790426,0.5180303468873285,stand
23/10/2020, 15:15:46,9.654325,-1.4585669,3.1901662,-0.56853956,0.08789047,-0.067337036,10.271833340790426,0.5792203742957618,stand
23/10/2020, 15:15:46,9.654325,-1.3723463,3.290757,-0.56853956,0.08789047,-0.067337036,10.29166642104278,0.5792203742957618,stand
23/10/2020, 15:15:46,9.654325,-1.3723463,3.290757,-0.62107396,0.1294293,-0.07100222,10.29166642104278,0.6383777279489183,stand
23/10/2020, 15:15:46,9.491463,-1.3699512,3.3147073,-0.62107396,0.1294293,-0.07100222,10.146522315424649,0.6383777279489183,stand
23/10/2020, 15:15:46,9.491463,-1.3699512,3.3147073,-0.6711649,0.1746333,-0.06978049,10.146522315424649,0.6970139077037436,stand
23/10/2020, 15:15:46,9.374106,-1.5232325,3.319497,-0.6711649,0.1746333,-0.06978049,10.060475590805694,0.6970139077037436,stand
23/10/2020, 15:15:46,9.374106,-1.5232325,3.319497,-0.68949085,0.21617213,-0.05878492,10.060475590805694,0.7249715132297248,stand
23/10/2020, 15:15:47,9.369317,-1.961521,3.2189064,1.0722438,-0.103921145,0.021849263,10.099159630884412,1.0774895740440125,stand
23/10/2020, 15:15:47,9.369317,-1.961521,3.2189064,0.9940531,-0.06726924,0.026736183,10.099159630884412,0.9966853017182234,stand
23/10/2020, 15:15:47,9.314231,-1.9782863,3.1542408,0.9940531,-0.06726924,0.026736183,10.030839918990399,0.9966853017182234,stand
23/10/2020, 15:15:47,9.314231,-1.9782863,3.1542408,0.9280797,-0.036725998,0.032844834,10.030839918990399,0.9293866562011365,stand
23/10/2020, 15:15:47,9.290281,-2.0070264,3.03928,0.9280797,-0.036725998,0.032844834,9.978712552287446,0.9293866562011365,stand
23/10/2020, 15:15:47,9.290281,-2.0070264,3.03928,0.8755453,-0.008626205,0.030401373,9.978712552287446,0.8761154417952437,stand
23/10/2020, 15:15:47,9.259146,-1.9998415,3.032095,0.8755453,-0.008626205,0.030401373,9.94609196739569,0.8761154417952437,stand
23/10/2020, 15:15:47,9.259146,-1.9998415,3.032095,0.84744555,0.020695316,0.035288293,9.94609196739569,0.8484323873014618,stand
23/10/2020, 15:15:47,9.290281,-2.1243825,3.046465,0.84744555,0.020695316,0.035288293,10.005162470070761,0.8484323873014618,stand
23/10/2020, 15:15:47,9.290281,-2.1243825,3.046465,0.82911956,0.058568943,0.047505595,10.005162470070761,0.8325421025836045,stand
23/10/2020, 15:15:47,9.263936,-2.1267774,3.06323,0.82911956,0.058568943,0.047505595,9.986344247144102,0.8325421025836045,stand
23/10/2020, 15:15:47,9.263936,-2.1267774,3.06323,0.8169023,0.10377296,0.056057703,9.986344247144102,0.8253730236810111,stand
23/10/2020, 15:15:47,9.129815,-2.1291726,3.0847852,0.8169023,0.10377296,0.056057703,9.869285661450022,0.8253730236810111,stand
23/10/2020, 15:15:47,9.129815,-2.1291726,3.0847852,0.8034633,0.14531179,0.06705327,9.869285661450022,0.8192465439328538,stand
23/10/2020, 15:15:47,8.938213,-2.1171973,2.9722195,0.8034633,0.14531179,0.06705327,9.654443056139954,0.8192465439328538,stand
23/10/2020, 15:15:47,8.938213,-2.1171973,2.9722195,0.7851373,0.17707676,0.07927057,9.654443056139954,0.8087524803608339,stand
23/10/2020, 15:15:47,8.701106,-2.047742,2.8380983,0.7851373,0.17707676,0.07927057,9.378555091529758,0.8087524803608339,stand
23/10/2020, 15:15:47,8.701106,-2.047742,2.8380983,0.7668114,0.19295925,0.09637479,9.378555091529758,0.7965682958108403,stand
23/10/2020, 15:15:47,8.485555,-1.951941,2.7566676,0.7668114,0.19295925,0.09637479,9.133122606072908,0.7965682958108403,stand
23/10/2020, 15:15:47,8.485555,-1.951941,2.7566676,0.7399333,0.19295925,0.11836593,9.133122606072908,0.7737861920043041,stand
23/10/2020, 15:15:47,8.418494,-1.8824854,2.6560767,0.7399333,0.19295925,0.11836593,9.026047835376833,0.7737861920043041,stand
23/10/2020, 15:15:47,8.418494,-1.8824854,2.6560767,0.7118335,0.17952022,0.14035708,9.026047835376833,0.7474185690343657,stand
23/10/2020, 15:15:47,8.351434,-1.9040406,2.543511,0.7118335,0.17952022,0.14035708,8.93539389322728,0.7474185690343657,stand
23/10/2020, 15:15:47,8.351434,-1.9040406,2.543511,0.69228584,0.15508562,0.1696786,8.93539389322728,0.7294532580987126,stand
23/10/2020, 15:15:47,8.485555,-1.961521,2.5842261,0.69228584,0.15508562,0.1696786,9.08462591037782,0.7294532580987126,stand
23/10/2020, 15:15:47,8.485555,-1.961521,2.5842261,0.6910641,0.12698583,0.19777839,9.08462591037782,0.7299392508504248,stand
23/10/2020, 15:15:47,8.744217,-1.9950514,2.694397,0.6910641,0.12698583,0.19777839,9.364899070279288,0.7299392508504248,stand
23/10/2020, 15:15:47,8.744217,-1.9950514,2.694397,0.7008379,0.10865988,0.21366088,9.364899070279288,0.7406967784079326,stand
23/10/2020, 15:15:47,9.050779,-1.961521,2.7566676,0.7008379,0.10865988,0.21366088,9.66247317162695,0.7406967784079326,stand
23/10/2020, 15:15:47,9.050779,-1.961521,2.7566676,0.7154987,0.10988161,0.20999569,9.66247317162695,0.753731070171308,stand
23/10/2020, 15:15:48,8.629255,-2.7734327,0.30895755,1.2041907,-0.19921608,0.30162543,9.069257457229634,1.2572749360110074,stand
23/10/2020, 15:15:48,9.09868,-2.792593,0.15328126,1.2041907,-0.19921608,0.30162543,9.518825570314739,1.2572749360110074,stand
23/10/2020, 15:15:48,9.09868,-2.792593,0.15328126,1.184643,-0.27129817,0.30162543,9.518825570314739,1.2521819781450907,stand
23/10/2020, 15:15:48,9.654325,-2.794988,0.2682422,1.184643,-0.27129817,0.30162543,10.054346995194194,1.2521819781450907,stand
23/10/2020, 15:15:48,9.654325,-2.794988,0.2682422,1.1650953,-0.28229374,0.2845212,10.054346995194194,1.2321076207492039,stand
23/10/2020, 15:15:48,10.0063925,-2.694397,0.5292993,1.1650953,-0.28229374,0.2845212,10.376310676621804,1.2321076207492039,stand
23/10/2020, 15:15:48,10.0063925,-2.694397,0.5292993,1.1382173,-0.21143338,0.26130834,10.376310676621804,1.186812881001756,stand
23/10/2020, 15:15:48,10.037527,-2.5985963,0.7496411,1.1382173,-0.21143338,0.26130834,10.395509352021778,1.186812881001756,stand
23/10/2020, 15:15:48,10.037527,-2.5985963,0.7496411,1.1015654,-0.102699414,0.25642142,10.395509352021778,1.135669563436186,stand
23/10/2020, 15:15:48,9.649534,-2.5962012,0.9508228,1.1015654,-0.102699414,0.25642142,10.037820245643239,1.135669563436186,stand
23/10/2020, 15:15:48,9.649534,-2.5962012,0.9508228,1.0526962,-0.031839076,0.26741698,10.037820245643239,1.086597864225075,stand
23/10/2020, 15:15:48,9.0891,-2.565066,1.1448194,1.0526962,-0.031839076,0.26741698,9.51324929796463,1.086597864225075,stand
23/10/2020, 15:15:48,9.0891,-2.565066,1.1448194,0.99771833,-0.026952155,0.2881864,9.51324929796463,1.0388549922130557,stand
23/10/2020, 15:15:48,8.708291,-2.44771,1.3388159,0.99771833,-0.026952155,0.2881864,9.144290327374286,1.0388549922130557,stand
23/10/2020, 15:15:48,8.708291,-2.44771,1.3388159,0.96595335,-0.08559519,0.3052906,9.144290327374286,1.0166586287716073,stand
23/10/2020, 15:15:48,8.495134,-2.3303542,1.5304176,0.96595335,-0.08559519,0.3052906,8.940919212272048,1.0166586287716073,stand
23/10/2020, 15:15:48,8.495134,-2.3303542,1.5304176,0.95007086,-0.18822052,0.3138427,8.940919212272048,1.0181153406347747,stand
23/10/2020, 15:15:48,8.528665,-2.4620802,1.3795313,0.95007086,-0.18822052,0.3138427,8.983488481044608,1.0181153406347747,stand
23/10/2020, 15:15:48,8.528665,-2.4620802,1.3795313,0.9207493,-0.33482814,0.33216867,8.983488481044608,1.0345168883687013,stand
23/10/2020, 15:15:48,9.043594,-2.7686427,1.1903248,0.9207493,-0.33482814,0.33216867,9.532515630464836,1.0345168883687013,stand
23/10/2020, 15:15:48,9.043594,-2.7686427,1.1903248,0.8828757,-0.4887661,0.3456077,9.532515630464836,1.0666801082144977,stand
23/10/2020, 15:15:48,9.798025,-2.912344,1.1639795,0.8828757,-0.4887661,0.3456077,10.287754481445166,1.0666801082144977,stand
23/10/2020, 15:15:48,9.798025,-2.912344,1.1639795,0.8731019,-0.5803959,0.3333904,10.287754481445166,1.1001433786354486,stand
23/10/2020, 15:15:48,10.602752,-3.032095,1.1615845,0.8731019,-0.5803959,0.3333904,11.088788150607906,1.1001433786354486,stand
23/10/2020, 15:15:48,10.602752,-3.032095,1.1615845,0.8914278,-0.5535178,0.29307333,11.088788150607906,1.089457433425147,stand
23/10/2020, 15:15:48,11.05541,-3.0943654,1.3675562,0.8914278,-0.5535178,0.29307333,11.561462094130373,1.089457433425147,stand
23/10/2020, 15:15:48,11.05541,-3.0943654,1.3675562,0.9390753,-0.4313448,0.25031278,11.561462094130373,1.0632860530590353,stand
23/10/2020, 15:15:48,10.995535,-3.1231055,1.453777,0.9390753,-0.4313448,0.25031278,11.522544997996453,1.0632860530590353,stand
23/10/2020, 15:15:48,10.995535,-3.1231055,1.453777,0.9928314,-0.28840238,0.22221299,11.522544997996453,1.0574822690634738,stand
23/10/2020, 15:15:48,10.547667,-2.9913795,1.4154567,0.9928314,-0.28840238,0.22221299,11.054643299918936,1.0574822690634738,stand
23/10/2020, 15:15:49,9.465117,-1.7148341,2.6560767,0.18526785,-0.024508694,0.3614902,9.979170690664692,0.40693981139971525,stand
23/10/2020, 15:15:49,9.486672,-1.585503,2.668052,0.18526785,-0.024508694,0.3614902,9.98144649885125,0.40693981139971525,stand
23/10/2020, 15:15:49,9.486672,-1.585503,2.668052,0.16816363,-0.002517555,0.34682944,9.98144649885125,0.3854555836949809,stand
23/10/2020, 15:15:49,9.402847,-1.5783179,2.6369166,0.16816363,-0.002517555,0.34682944,9.892317920731154,0.3854555836949809,stand
23/10/2020, 15:15:49,9.402847,-1.5783179,2.6369166,0.1388421,0.017030125,0.33461213,9.892317920731154,0.362674004895588,stand
23/10/2020, 15:15:49,9.216036,-1.4992822,2.6345215,0.1388421,0.017030125,0.33461213,9.70174558246861,0.362674004895588,stand
23/10/2020, 15:15:49,9.216036,-1.4992822,2.6345215,0.09485982,0.018251857,0.3285035,9.70174558246861,0.34241211867672905,stand
23/10/2020, 15:15:49,9.06994,-1.5088624,2.6393116,0.09485982,0.018251857,0.3285035,9.565899629872748,0.34241211867672905,stand
23/10/2020, 15:15:49,9.06994,-1.5088624,2.6393116,0.06309484,-0.022065235,0.3285035,9.565899629872748,0.33523480723898763,stand
23/10/2020, 15:15:49,8.844808,-1.5136524,2.699187,0.06309484,-0.022065235,0.3285035,9.370559018520744,0.33523480723898763,stand
23/10/2020, 15:15:49,8.844808,-1.5136524,2.699187,0.039881974,-0.1259123,0.29918197,9.370559018520744,0.3270387248862903,stand
23/10/2020, 15:15:49,8.890313,-1.5232325,2.8692336,0.039881974,-0.1259123,0.29918197,9.46522089041339,0.3270387248862903,stand
23/10/2020, 15:15:49,8.890313,-1.5232325,2.8692336,0.034995053,-0.18699878,0.2600866,9.46522089041339,0.32223940878996143,stand
23/10/2020, 15:15:49,8.916658,-1.5663428,3.0368848,0.034995053,-0.18699878,0.2600866,9.548973563034705,0.32223940878996143,stand
23/10/2020, 15:15:49,8.916658,-1.5663428,3.0368848,0.053321004,-0.17722495,0.21976954,9.548973563034705,0.2873159612651823,stand
23/10/2020, 15:15:49,9.043594,-1.6453785,3.1231055,0.053321004,-0.17722495,0.21976954,9.708123268266334,0.2873159612651823,stand
23/10/2020, 15:15:49,9.043594,-1.6453785,3.1231055,0.09363809,-0.15279035,0.17578726,9.708123268266334,0.25102618047538844,stand
23/10/2020, 15:15:49,9.017249,-1.7172291,3.032095,0.09363809,-0.15279035,0.17578726,9.667122486070184,0.25102618047538844,stand
23/10/2020, 15:15:49,9.017249,-1.7172291,3.032095,0.13517691,-0.18333359,0.13180497,9.667122486070184,0.26316639955398147,stand
23/10/2020, 15:15:49,9.017249,-1.7172291,3.032095,0.16083324,-0.21509857,0.10859209,9.667122486070184,0.2897015196176072,stand
23/10/2020, 15:15:49,8.921448,-1.7315992,2.9530592,0.16083324,-0.21509857,0.10859209,9.555690685318508,0.2897015196176072,stand
23/10/2020, 15:15:49,8.981323,-1.695674,2.9937747,0.16083324,-0.21509857,0.10859209,9.61780452962071,0.2897015196176072,stand
23/10/2020, 15:15:49,8.981323,-1.695674,2.9937747,0.18648958,-0.24686356,0.08537922,9.61780452962071,0.3209510745044458,stand
23/10/2020, 15:15:49,9.216036,-1.7339942,3.0416749,0.18648958,-0.24686356,0.08537922,9.858693554858599,0.3209510745044458,stand
23/10/2020, 15:15:49,9.216036,-1.7339942,3.0416749,0.20359379,-0.24686356,0.054835975,9.858693554858599,0.3246521714431754,stand
23/10/2020, 15:15:49,9.364527,-1.7363893,3.2045362,0.20359379,-0.24686356,0.054835975,10.048803969138064,0.3246521714431754,stand
23/10/2020, 15:15:49,9.364527,-1.7363893,3.2045362,0.23535877,-0.2199855,0.013297152,10.048803969138064,0.3224347798490591,stand
23/10/2020, 15:15:49,9.362132,-1.7675245,3.290757,0.23535877,-0.2199855,0.013297152,10.079818499157996,0.3224347798490591,stand
23/10/2020, 15:15:49,9.362132,-1.7675245,3.290757,0.26468033,-0.2199855,-0.041680697,10.079818499157996,0.3466793557393127,stand
23/10/2020, 15:15:49,9.285491,-1.7411792,3.2859669,0.26468033,-0.2199855,-0.041680697,10.002481007955437,0.3466793557393127,stand
23/10/2020, 15:15:50,6.8186207,-2.198628,-0.87418216,1.5719315,0.29558456,0.1818959,7.217461279138278,1.6097903376355034,stand
23/10/2020, 15:15:50,6.6246243,-1.7220191,-1.0106983,1.5719315,0.29558456,0.1818959,6.918996117552237,1.6097903376355034,stand
23/10/2020, 15:15:50,6.6246243,-1.7220191,-1.0106983,1.718539,0.09644258,0.22954337,6.918996117552237,1.7364813918850934,stand
23/10/2020, 15:15:50,6.7467704,-1.1663746,-0.7927515,1.718539,0.09644258,0.22954337,6.8925898715208715,1.7364813918850934,stand
23/10/2020, 15:15:50,6.7467704,-1.1663746,-0.7927515,1.7246476,-0.10025595,0.27841255,6.8925898715208715,1.749849790805789,stand
23/10/2020, 15:15:50,6.6198344,-0.62031007,-0.68976563,1.7246476,-0.10025595,0.27841255,6.684517110212349,1.749849790805789,stand
23/10/2020, 15:15:50,6.6198344,-0.62031007,-0.68976563,1.6256876,-0.2774068,0.3370556,6.684517110212349,1.683276917973985,stand
23/10/2020, 15:15:50,7.0365677,-0.44307864,-0.44547364,1.6256876,-0.2774068,0.3370556,7.064562992236776,1.683276917973985,stand
23/10/2020, 15:15:50,7.0365677,-0.44307864,-0.44547364,1.510845,-0.3250543,0.4103594,7.064562992236776,1.5989707902381451,stand
23/10/2020, 15:15:50,7.1203933,-0.4766089,-0.3879932,1.510845,-0.3250543,0.4103594,7.14686610806224,1.5989707902381451,stand
23/10/2020, 15:15:50,7.1203933,-0.4766089,-0.3879932,1.3960023,-0.30306315,0.48977184,7.14686610806224,1.510147719475127,stand
23/10/2020, 15:15:50,7.173084,-0.7951465,-0.31374758,1.3960023,-0.30306315,0.48977184,7.2238373797763815,1.510147719475127,stand
23/10/2020, 15:15:50,7.173084,-0.7951465,-0.31374758,1.2787162,-0.34704542,0.5276455,7.2238373797763815,1.4261716113782756,stand
23/10/2020, 15:15:50,7.3479204,-1.3028907,-0.48139894,1.2787162,-0.34704542,0.5276455,7.478048105844041,1.4261716113782756,stand
23/10/2020, 15:15:50,7.3479204,-1.3028907,-0.48139894,1.1773126,-0.47044018,0.52642375,7.478048105844041,1.3727712543410815,stand
23/10/2020, 15:15:50,7.7622585,-1.707649,-0.5412744,1.1773126,-0.47044018,0.52642375,7.9662852428123365,1.3727712543410815,stand
23/10/2020, 15:15:50,7.7622585,-1.707649,-0.5412744,1.1321087,-0.6182695,0.5227586,7.9662852428123365,1.3918346948695723,stand
23/10/2020, 15:15:50,8.590936,-1.8920655,-0.55324954,1.1321087,-0.6182695,0.5227586,8.814202931957645,1.3918346948695723,stand
23/10/2020, 15:15:50,8.590936,-1.8920655,-0.55324954,1.1602085,-0.72211653,0.4555634,8.814202931957645,1.4405117042061666,stand
23/10/2020, 15:15:50,9.534574,-2.0213966,-0.49097902,1.1602085,-0.72211653,0.4555634,9.758852270296604,1.4405117042061666,stand
23/10/2020, 15:15:50,9.534574,-2.0213966,-0.49097902,1.2286253,-0.75021636,0.31750792,9.758852270296604,1.474162812182097,stand
23/10/2020, 15:15:50,10.322535,-2.2920337,-0.41912845,1.2286253,-0.75021636,0.31750792,10.582240158734049,1.474162812182097,stand
23/10/2020, 15:15:50,10.322535,-2.2920337,-0.41912845,1.3300289,-0.6952385,0.17090033,10.582240158734049,1.5104768474794135,stand
23/10/2020, 15:15:50,10.8925495,-2.6369166,-0.4047583,1.3300289,-0.6952385,0.17090033,11.214490339261053,1.5104768474794135,stand
23/10/2020, 15:15:50,10.8925495,-2.6369166,-0.4047583,1.4094414,-0.59627837,0.053614244,11.214490339261053,1.5313220776213325,stand
23/10/2020, 15:15:50,11.306888,-2.8620484,-0.30895755,1.4094414,-0.59627837,0.053614244,11.667582591951515,1.5313220776213325,stand
23/10/2020, 15:15:50,11.306888,-2.8620484,-0.30895755,1.4656409,-0.49853995,-0.05023281,11.667582591951515,1.5489250067056524,stand
23/10/2020, 15:15:50,11.543995,-2.8907888,-0.21076173,1.4656409,-0.49853995,-0.05023281,11.902306444030996,1.5489250067056524,stand
23/10/2020, 15:15:50,11.543995,-2.8907888,-0.21076173,1.4986277,-0.4069102,-0.13819736,11.902306444030996,1.5590251126773924,stand
23/10/2020, 15:15:50,11.543995,-2.8500733,-0.28500733,1.4986277,-0.4069102,-0.13819736,11.894030668358832,1.5590251126773924,stand
23/10/2020, 15:15:51,8.998089,-1.1472144,1.8513502,-0.013874149,0.24060673,0.10859209,9.257926395302498,0.26434131513698433,stand
23/10/2020, 15:15:51,9.187295,-1.1472144,1.8250049,-0.013874149,0.24060673,0.10859209,9.436796734319707,0.26434131513698433,stand
23/10/2020, 15:15:51,9.187295,-1.1472144,1.8250049,-0.022426259,0.20395482,0.06705327,9.436796734319707,0.21586256150578106,stand
23/10/2020, 15:15:51,9.455538,-1.2430152,1.839375,-0.022426259,0.20395482,0.06705327,9.712650626160507,0.21586256150578106,stand
23/10/2020, 15:15:51,9.455538,-1.2430152,1.839375,-0.02731318,0.18562888,0.021849263,9.712650626160507,0.1888954201893661,stand
23/10/2020, 15:15:51,9.625584,-1.4010864,1.9399658,-0.02731318,0.18562888,0.021849263,9.918587162170345,0.1888954201893661,stand
23/10/2020, 15:15:51,9.625584,-1.4010864,1.9399658,-0.018761069,0.18196368,-0.03312859,9.918587162170345,0.18590390732852255,stand
23/10/2020, 15:15:51,9.7812605,-1.4992822,2.088457,-0.018761069,0.18196368,-0.03312859,10.113483925395533,0.18590390732852255,stand
23/10/2020, 15:15:51,9.7812605,-1.4992822,2.088457,-0.0028785784,0.18440714,-0.08566298,10.113483925395533,0.20335296402805264,stand
23/10/2020, 15:15:51,9.77647,-1.5687379,2.1435425,-0.0028785784,0.18440714,-0.08566298,10.130897409534612,0.20335296402805264,stand
23/10/2020, 15:15:51,9.77647,-1.5687379,2.1435425,-0.008987229,0.18074195,-0.11864969,10.130897409534612,0.21639355894018814,stand
23/10/2020, 15:15:51,9.704619,-1.5998731,2.0501368,-0.008987229,0.18074195,-0.11864969,10.047004160049635,0.21639355894018814,stand
23/10/2020, 15:15:51,9.704619,-1.5998731,2.0501368,-0.03586529,0.16119426,-0.12964526,10.047004160049635,0.2099471431179504,stand
23/10/2020, 15:15:51,9.642349,-1.6860938,1.9687061,-0.03586529,0.16119426,-0.12964526,9.98466900222825,0.2099471431179504,stand
23/10/2020, 15:15:51,9.642349,-1.6860938,1.9687061,-0.07618238,0.13187274,-0.12353662,9.98466900222825,0.19610066584916636,stand
23/10/2020, 15:15:51,9.577683,-1.6932789,1.839375,-0.07618238,0.13187274,-0.12353662,9.898611729368652,0.19610066584916636,stand
23/10/2020, 15:15:51,9.577683,-1.6932789,1.839375,-0.11283428,0.11721199,-0.10398893,9.898611729368652,0.1930904542985518,stand
23/10/2020, 15:15:51,9.381292,-1.6765138,1.8058448,-0.11283428,0.11721199,-0.10398893,9.699506167958374,0.1930904542985518,stand
23/10/2020, 15:15:51,9.381292,-1.6765138,1.8058448,-0.1262733,0.10865988,-0.062450107,9.699506167958374,0.17790989971159343,stand
23/10/2020, 15:15:51,9.251961,-1.7172291,1.7771046,-0.1262733,0.10865988,-0.062450107,9.576312155276952,0.17790989971159343,stand
23/10/2020, 15:15:51,9.251961,-1.7172291,1.7771046,-0.11283428,0.09644258,-0.014802639,9.576312155276952,0.14917058911344414,stand
23/10/2020, 15:15:51,9.189691,-1.6813037,1.8705103,-0.11283428,0.09644258,-0.014802639,9.527644217426705,0.14917058911344414,stand
23/10/2020, 15:15:51,9.189691,-1.6813037,1.8705103,-0.07007373,0.06712106,0.016962342,9.527644217426705,0.09850525557884712,stand
23/10/2020, 15:15:51,9.096285,-1.705254,2.047742,-0.07007373,0.06712106,0.016962342,9.478583031287895,0.09850525557884712,stand
23/10/2020, 15:15:51,9.096285,-1.705254,2.047742,-0.0065437686,0.031690884,0.029179644,9.478583031287895,0.043572751514965175,stand
23/10/2020, 15:15:51,9.048384,-1.6477735,2.2249732,-0.0065437686,0.031690884,0.029179644,9.462500255394477,0.043572751514965175,stand
23/10/2020, 15:15:51,9.048384,-1.6477735,2.2249732,0.06431657,-0.006182745,0.054835975,9.462500255394477,0.08474568888146469,stand
23/10/2020, 15:15:51,9.002879,-1.6621436,2.3064039,0.06431657,-0.006182745,0.054835975,9.44108325367107,0.08474568888146469,stand
23/10/2020, 15:15:51,9.002879,-1.6621436,2.3064039,0.10707712,-0.050165027,0.08537922,9.44108325367107,0.14584804171440613,stand
23/10/2020, 15:15:51,9.091495,-1.575923,2.198628,0.10707712,-0.050165027,0.08537922,9.48539779823463,0.14584804171440613,stand
23/10/2020, 15:15:52,9.216036,-1.83219,3.2069314,0.08386426,-0.028173884,-0.3544436,9.928577223790668,0.3653180173312299,stand
23/10/2020, 15:15:52,9.182506,-1.7363893,3.1159205,0.08386426,-0.028173884,-0.3544436,9.85101100383414,0.3653180173312299,stand
23/10/2020, 15:15:52,9.182506,-1.7363893,3.1159205,0.013003912,-0.026952155,-0.32756552,9.85101100383414,0.32892961394119036,stand
23/10/2020, 15:15:52,9.287886,-1.6789087,3.0177248,0.013003912,-0.026952155,-0.32756552,9.909097701921695,0.32892961394119036,stand
23/10/2020, 15:15:52,9.287886,-1.6789087,3.0177248,-0.07862584,-0.039169457,-0.31901342,9.909097701921695,0.33088643006397517,stand
23/10/2020, 15:15:52,9.381292,-1.7244141,3.03928,-0.07862584,-0.039169457,-0.31901342,10.010967615112204,0.33088643006397517,stand
23/10/2020, 15:15:52,9.381292,-1.7244141,3.03928,-0.1543731,-0.052608486,-0.30068746,10.010967615112204,0.34206966391791066,stand
23/10/2020, 15:15:52,9.529783,-1.7004639,3.171006,-0.1543731,-0.052608486,-0.30068746,10.186443198743607,0.34206966391791066,stand
23/10/2020, 15:15:52,9.529783,-1.7004639,3.171006,-0.2032423,-0.039169457,-0.2811398,10.186443198743607,0.3491149692224314,stand
23/10/2020, 15:15:52,9.649534,-1.705254,3.2069314,-0.2032423,-0.039169457,-0.2811398,10.310470917104372,0.3491149692224314,stand
23/10/2020, 15:15:52,9.649534,-1.705254,3.2069314,-0.2276769,-0.0049610147,-0.2689225,10.310470917104372,0.35239281610336276,stand
23/10/2020, 15:15:52,9.697434,-1.8848804,3.2356715,-0.2276769,-0.0049610147,-0.2689225,10.395315234852438,0.35239281610336276,stand
23/10/2020, 15:15:52,9.697434,-1.8848804,3.2356715,-0.2398942,0.041464724,-0.24448788,10.395315234852438,0.34502590199584504,stand
23/10/2020, 15:15:52,9.639954,-2.047742,3.293152,-0.2398942,0.041464724,-0.24448788,10.390707542201326,0.34502590199584504,stand
23/10/2020, 15:15:52,9.639954,-2.047742,3.293152,-0.23745075,0.085447006,-0.20294906,10.390707542201326,0.3238400386520651,stand
23/10/2020, 15:15:52,9.536968,-2.0621119,3.293152,-0.23745075,0.085447006,-0.20294906,10.298102692103232,0.3238400386520651,stand
23/10/2020, 15:15:52,9.536968,-2.0621119,3.293152,-0.23012036,0.11110334,-0.15896678,10.298102692103232,0.3009481182978297,stand
23/10/2020, 15:15:52,9.402847,-2.0333717,3.3171022,-0.23012036,0.11110334,-0.15896678,10.17601614293891,0.3009481182978297,stand
23/10/2020, 15:15:52,9.402847,-2.0333717,3.3171022,-0.20812923,0.11232507,-0.13331045,10.17601614293891,0.27148917787546273,stand
23/10/2020, 15:15:52,9.261541,-2.047742,3.276387,-0.20812923,0.11232507,-0.13331045,10.035143593929243,0.27148917787546273,stand
23/10/2020, 15:15:52,9.261541,-2.047742,3.276387,-0.18491635,0.09155566,-0.107654124,10.035143593929243,0.23273569845356717,stand
23/10/2020, 15:15:52,9.187295,-2.047742,3.3099172,-0.18491635,0.09155566,-0.107654124,9.97773458644374,0.23273569845356717,stand
23/10/2020, 15:15:52,9.187295,-2.047742,3.3099172,-0.16659041,0.07933836,-0.08566298,9.97773458644374,0.20343324569441476,stand
23/10/2020, 15:15:52,9.16574,-2.0046315,3.2644117,-0.16659041,0.07933836,-0.08566298,9.93406871247504,0.20343324569441476,stand
23/10/2020, 15:15:52,9.16574,-2.0046315,3.2644117,-0.15315138,0.06956452,-0.06000665,9.93406871247504,0.17859273518288143,stand
23/10/2020, 15:15:52,9.12263,-2.0405567,3.2500417,-0.15315138,0.06956452,-0.06000665,9.896919875255504,0.17859273518288143,stand
23/10/2020, 15:15:52,9.12263,-2.0405567,3.2500417,-0.14337753,0.057347216,-0.04045897,9.896919875255504,0.15963316323389015,stand
23/10/2020, 15:15:52,9.093889,-1.947151,3.175796,-0.14337753,0.057347216,-0.04045897,9.827303734320227,0.15963316323389015,stand
23/10/2020, 15:15:52,9.093889,-1.947151,3.175796,-0.13238196,0.046351645,-0.03923724,9.827303734320227,0.14564689980142528,stand
23/10/2020, 15:15:52,9.134604,-1.949546,3.0967603,-0.13238196,0.046351645,-0.03923724,9.840307528033179,0.14564689980142528,stand
23/10/2020, 15:15:53,8.566985,-2.1459377,1.5687379,1.8199426,-0.25419396,0.66325754,8.969906423259824,1.9536417730568112,stand
23/10/2020, 15:15:53,8.566985,-2.1459377,1.5687379,1.8663684,-0.28229374,0.652262,8.969906423259824,1.9971145404120214,stand
23/10/2020, 15:15:53,8.52148,-1.961521,1.4729371,1.8663684,-0.28229374,0.652262,8.867509411141198,1.9971145404120214,stand
23/10/2020, 15:15:53,8.52148,-1.961521,1.4729371,1.9091289,-0.30550662,0.638823,8.867509411141198,2.036222546007299,stand
23/10/2020, 15:15:53,8.552615,-1.8633252,1.4298267,1.9091289,-0.30550662,0.638823,8.869250904807297,2.036222546007299,stand
23/10/2020, 15:15:53,8.552615,-1.8633252,1.4298267,1.9445591,-0.32627603,0.6376012,8.869250904807297,2.072269629997436,stand
23/10/2020, 15:15:53,8.643626,-1.7914747,1.4441968,1.9445591,-0.32627603,0.6376012,8.944683346414726,2.072269629997436,stand
23/10/2020, 15:15:53,8.643626,-1.7914747,1.4441968,1.9738806,-0.3629279,0.6449316,8.944683346414726,2.1080460793677678,stand
23/10/2020, 15:15:53,8.868757,-1.7627344,1.4968873,1.9738806,-0.3629279,0.6449316,9.165301926361778,2.1080460793677678,stand
23/10/2020, 15:15:53,8.868757,-1.7627344,1.4968873,2.0093107,-0.40080157,0.64981854,9.165301926361778,2.149473333465686,stand
23/10/2020, 15:15:53,9.15616,-1.7339942,1.5950831,2.0093107,-0.40080157,0.64981854,9.454432750547438,2.149473333465686,stand
23/10/2020, 15:15:53,9.15616,-1.7339942,1.5950831,2.0545146,-0.41668403,0.63515776,9.454432750547438,2.1904523277211174,stand
23/10/2020, 15:15:53,9.517808,-1.6238233,1.719624,2.0545146,-0.41668403,0.63515776,9.807271653318082,2.1904523277211174,stand
23/10/2020, 15:15:53,9.517808,-1.6238233,1.719624,2.0911665,-0.4142406,0.6058362,9.807271653318082,2.2162152660074304,stand
23/10/2020, 15:15:53,9.721385,-1.6190332,1.6860938,2.0911665,-0.4142406,0.6058362,9.998475246038694,2.2162152660074304,stand
23/10/2020, 15:15:53,9.721385,-1.6190332,1.6860938,2.0948317,-0.39713636,0.5850668,9.998475246038694,2.2109591394781054,stand
23/10/2020, 15:15:53,9.817185,-1.587898,1.5663428,2.0948317,-0.39713636,0.5850668,10.067372010008196,2.2109591394781054,stand
23/10/2020, 15:15:53,9.817185,-1.587898,1.5663428,2.066732,-0.37270176,0.5850668,10.067372010008196,2.1800437219369297,stand
23/10/2020, 15:15:53,9.927357,-1.5735279,1.5256275,2.066732,-0.37270176,0.5850668,10.166412388294795,2.1800437219369297,stand
23/10/2020, 15:15:53,9.927357,-1.5735279,1.5256275,2.0190845,-0.36048445,0.5936189,10.166412388294795,2.135189570852658,stand
23/10/2020, 15:15:53,9.944121,-1.5112574,1.3747413,2.0190845,-0.36048445,0.5936189,10.151815713595711,2.135189570852658,stand
23/10/2020, 15:15:53,9.944121,-1.5112574,1.3747413,1.9641068,-0.36537138,0.59728414,10.151815713595711,2.085176275276454,stand
23/10/2020, 15:15:53,10.042317,-1.5232325,1.3052857,1.9641068,-0.36537138,0.59728414,10.240710250560621,2.085176275276454,stand
23/10/2020, 15:15:53,10.042317,-1.5232325,1.3052857,1.9140159,-0.37148005,0.607058,10.240710250560621,2.0420513341745563,stand
23/10/2020, 15:15:53,9.984837,-1.5567628,1.4202466,1.9140159,-0.37148005,0.607058,10.204781838205347,2.0420513341745563,stand
23/10/2020, 15:15:53,9.984837,-1.5567628,1.4202466,1.8798074,-0.3629279,0.6168318,10.204781838205347,2.0114357556634053,stand
23/10/2020, 15:15:53,9.980047,-1.4849122,1.4585669,1.8798074,-0.3629279,0.6168318,10.19478906893411,2.0114357556634053,stand
23/10/2020, 15:15:53,9.980047,-1.4849122,1.4585669,1.8639249,-0.3458237,0.6253839,10.19478906893411,1.9962251780911489,stand
23/10/2020, 15:15:53,9.7812605,-1.4825171,1.4968873,1.8639249,-0.3458237,0.6253839,10.005577717928587,1.9962251780911489,stand
23/10/2020, 15:15:53,9.7812605,-1.4825171,1.4968873,1.8553728,-0.3287195,0.6547054,10.005577717928587,1.9947691225148925,stand
23/10/2020, 15:15:54,10.066268,-1.8369801,1.6238233,0.3575318,0.07933836,0.048727322,10.36055253127634,0.3694562285152187,stand
23/10/2020, 15:15:54,10.066268,-1.8369801,1.6238233,0.3575318,0.10621642,0.03406656,10.36055253127634,0.3745282861887176,stand
23/10/2020, 15:15:54,10.164463,-1.8106349,1.698069,0.3575318,0.10621642,0.03406656,10.463180480655321,0.3745282861887176,stand
23/10/2020, 15:15:54,10.164463,-1.8106349,1.698069,0.35264486,0.1501987,0.035288293,10.463180480655321,0.3849198751953182,stand
23/10/2020, 15:15:54,10.1189575,-1.8369801,1.7435743,0.35264486,0.1501987,0.035288293,10.431100056664773,0.3849198751953182,stand
23/10/2020, 15:15:54,10.1189575,-1.8369801,1.7435743,0.33554065,0.18318541,0.041396942,10.431100056664773,0.38452325267407717,stand
23/10/2020, 15:15:54,10.042317,-1.8345851,1.8010547,0.33554065,0.18318541,0.041396942,10.366177648588696,0.38452325267407717,stand
23/10/2020, 15:15:54,10.042317,-1.8345851,1.8010547,0.29766703,0.20762001,0.047505595,10.366177648588696,0.36601708795422777,stand
23/10/2020, 15:15:54,9.867481,-1.7531544,1.7771046,0.29766703,0.20762001,0.047505595,10.178351389802646,0.36601708795422777,stand
23/10/2020, 15:15:54,9.867481,-1.7531544,1.7771046,0.2487978,0.22594596,0.057279434,10.178351389802646,0.34092940582030573,stand
23/10/2020, 15:15:54,9.683064,-1.7268091,1.8489552,0.2487978,0.22594596,0.057279434,10.008108829047002,0.34092940582030573,stand
23/10/2020, 15:15:54,9.683064,-1.7268091,1.8489552,0.19504169,0.24671538,0.06705327,10.008108829047002,0.3215678473420296,stand
23/10/2020, 15:15:54,9.491463,-1.6693287,1.8082398,0.19504169,0.24671538,0.06705327,9.805317630760198,0.3215678473420296,stand
23/10/2020, 15:15:54,9.491463,-1.6693287,1.8082398,0.12906826,0.2687065,0.07927057,9.805317630760198,0.30845683893659254,stand
23/10/2020, 15:15:54,9.333391,-1.6453785,1.707649,0.12906826,0.2687065,0.07927057,9.629928685628045,0.30845683893659254,stand
23/10/2020, 15:15:54,9.333391,-1.6453785,1.707649,0.048434082,0.28336725,0.10126171,9.629928685628045,0.3047897490187303,stand
23/10/2020, 15:15:54,9.208851,-1.6381935,1.583108,0.048434082,0.28336725,0.10126171,9.486455758248031,0.3047897490187303,stand
23/10/2020, 15:15:54,9.208851,-1.6381935,1.583108,-0.04686086,0.27114996,0.13424844,9.486455758248031,0.3061713328054161,stand
23/10/2020, 15:15:54,9.19927,-1.6334034,1.4441968,-0.04686086,0.27114996,0.13424844,9.454114675257374,0.3061713328054161,stand
23/10/2020, 15:15:54,9.19927,-1.6334034,1.4441968,-0.14948618,0.24305019,0.15990476,9.454114675257374,0.3270918010406536,stand
23/10/2020, 15:15:54,9.378897,-1.5328126,1.3196558,-0.14948618,0.24305019,0.15990476,9.594514546221193,0.3270918010406536,stand
23/10/2020, 15:15:54,9.378897,-1.5328126,1.3196558,-0.24966805,0.22105904,0.17945243,9.594514546221193,0.37868774547165523,stand
23/10/2020, 15:15:54,9.690249,-1.4441968,1.1879297,-0.24966805,0.22105904,0.17945243,9.869033175239574,0.37868774547165523,stand
23/10/2020, 15:15:54,9.690249,-1.4441968,1.1879297,-0.33518916,0.21372867,0.1941132,9.869033175239574,0.4423930952255771,stand
23/10/2020, 15:15:54,9.980047,-1.4873072,1.1615845,-0.33518916,0.21372867,0.1941132,10.156904245626624,0.4423930952255771,stand
23/10/2020, 15:15:54,9.980047,-1.4873072,1.1615845,-0.4060495,0.22961116,0.20877396,10.156904245626624,0.5110616762556006,stand
23/10/2020, 15:15:54,10.245894,-1.5567628,1.2286451,-0.4060495,0.22961116,0.20877396,10.436064005256865,0.5110616762556006,stand
23/10/2020, 15:15:54,10.245894,-1.5567628,1.2286451,-0.46713597,0.26626304,0.22099125,10.436064005256865,0.5813339403546629,stand
23/10/2020, 15:15:54,10.284214,-1.6717237,1.3867164,-0.46713597,0.26626304,0.22099125,10.511075134884093,0.5813339403546629,stand
23/10/2020, 15:15:54,10.284214,-1.6717237,1.3867164,-0.5135617,0.31513223,0.2185478,10.511075134884093,0.6409501636641252,stand
23/10/2020, 15:15:55,9.235196,-1.6741188,2.9674294,0.3770795,-0.38369733,-0.26770076,9.843635411306682,0.6008962297420312,stand
23/10/2020, 15:15:55,9.235196,-1.6741188,2.9674294,0.35386658,-0.35804102,-0.24937479,9.843635411306682,0.5617852899867491,stand
23/10/2020, 15:15:55,9.249566,-1.6789087,2.943479,0.35386658,-0.35804102,-0.24937479,9.850750025258716,0.5617852899867491,stand
23/10/2020, 15:15:55,9.249566,-1.6789087,2.943479,0.3233233,-0.34338024,-0.23227058,9.850750025258716,0.525735273096709,stand
23/10/2020, 15:15:55,9.3381815,-1.6357985,2.9578493,0.3233233,-0.34338024,-0.23227058,9.931079624011225,0.525735273096709,stand
23/10/2020, 15:15:55,9.3381815,-1.6357985,2.9578493,0.28789318,-0.344602,-0.22005329,9.931079624011225,0.5000564567229436,stand
23/10/2020, 15:15:55,9.472302,-1.6549586,2.926714,0.28789318,-0.344602,-0.22005329,10.05132110463684,0.5000564567229436,stand
23/10/2020, 15:15:55,9.472302,-1.6549586,2.926714,0.25368473,-0.34338024,-0.20294906,10.05132110463684,0.4727094823040733,stand
23/10/2020, 15:15:55,9.599238,-1.7172291,2.9626393,0.25368473,-0.34338024,-0.20294906,10.191736135977642,0.4727094823040733,stand
23/10/2020, 15:15:55,9.599238,-1.7172291,2.9626393,0.23047185,-0.3287195,-0.17851445,10.191736135977642,0.43936452980840746,stand
23/10/2020, 15:15:55,9.666299,-1.7962648,3.04886,0.23047185,-0.3287195,-0.17851445,10.293660604122321,0.43936452980840746,stand
23/10/2020, 15:15:55,9.666299,-1.7962648,3.04886,0.22558494,-0.30184144,-0.15285812,10.293660604122321,0.4066477888358387,stand
23/10/2020, 15:15:55,9.721385,-1.8992506,3.1231055,0.22558494,-0.30184144,-0.15285812,10.38586864102422,0.4066477888358387,stand
23/10/2020, 15:15:55,9.721385,-1.8992506,3.1231055,0.2439109,-0.27251992,-0.13086699,10.38586864102422,0.38844021139722074,stand
23/10/2020, 15:15:55,9.613608,-1.961521,3.171006,0.2439109,-0.27251992,-0.13086699,10.311367963544134,0.38844021139722074,stand
23/10/2020, 15:15:55,9.613608,-1.961521,3.171006,0.2768976,-0.26274607,-0.114984505,10.311367963544134,0.3986592749251894,stand
23/10/2020, 15:15:55,9.508228,-2.0429518,3.2380664,0.2768976,-0.26274607,-0.114984505,10.250128381036022,0.3986592749251894,stand
23/10/2020, 15:15:55,9.508228,-2.0429518,3.2380664,0.31232774,-0.26641124,-0.107654124,10.250128381036022,0.42439719685370014,stand
23/10/2020, 15:15:55,9.412427,-2.0213966,3.2620168,0.31232774,-0.26641124,-0.107654124,10.164673081533879,0.42439719685370014,stand
23/10/2020, 15:15:55,9.412427,-2.0213966,3.2620168,0.34775794,-0.28718066,-0.09665855,10.164673081533879,0.4612495959489751,stand
23/10/2020, 15:15:55,9.381292,-2.0094216,3.2428565,0.34775794,-0.28718066,-0.09665855,10.127316497361665,0.4612495959489751,stand
23/10/2020, 15:15:55,9.381292,-2.0094216,3.2428565,0.38196635,-0.30672833,-0.088106446,10.127316497361665,0.4977381948814469,stand
23/10/2020, 15:15:55,9.467513,-1.9878663,3.300337,0.38196635,-0.30672833,-0.088106446,10.221430485842687,0.4977381948814469,stand
23/10/2020, 15:15:55,9.467513,-1.9878663,3.300337,0.41617483,-0.30795008,-0.08199779,10.221430485842687,0.5241739951576769,stand
23/10/2020, 15:15:55,9.5561285,-1.9950514,3.3793726,0.41617483,-0.30795008,-0.08199779,10.330536342173419,0.5241739951576769,stand
23/10/2020, 15:15:55,9.5561285,-1.9950514,3.3793726,0.44916153,-0.28840238,-0.07711087,10.330536342173419,0.5393218872883717,stand
23/10/2020, 15:15:55,9.539363,-2.0429518,3.4751735,0.44916153,-0.28840238,-0.07711087,10.356154088142778,0.5393218872883717,stand
23/10/2020, 15:15:55,9.539363,-2.0429518,3.4751735,0.48336995,-0.25419396,-0.07466742,10.356154088142778,0.5512134780398981,stand
23/10/2020, 15:15:55,9.445957,-2.0621119,3.5182838,0.48336995,-0.25419396,-0.07466742,10.288670158309953,0.5512134780398981,stand
23/10/2020, 15:15:55,9.445957,-2.0621119,3.5182838,0.51024806,-0.2163203,-0.07588914,10.288670158309953,0.5593806613315558,stand
23/10/2020, 15:15:56,9.733359,0.1460962,1.8082398,0.6751816,0.32857126,0.16479167,9.900977695051617,0.7687558769328483,stand
23/10/2020, 15:15:56,9.608819,0.021555176,1.829795,0.6751816,0.32857126,0.16479167,9.78151404969899,0.7687558769328483,stand
23/10/2020, 15:15:56,9.608819,0.021555176,1.829795,0.5371261,0.32490608,0.19533493,9.78151404969899,0.6574375771426079,stand
23/10/2020, 15:15:56,9.491463,-0.1460962,1.9136207,0.5371261,0.32490608,0.19533493,9.68355062211087,0.6574375771426079,stand
23/10/2020, 15:15:56,9.491463,-0.1460962,1.9136207,0.43450075,0.30413666,0.19289146,9.68355062211087,0.5643555014860777,stand
23/10/2020, 15:15:56,9.431587,-0.22513184,1.8681153,0.43450075,0.30413666,0.19289146,9.617451669512135,0.5643555014860777,stand
23/10/2020, 15:15:56,9.431587,-0.22513184,1.8681153,0.33798409,0.27114996,0.17945243,9.617451669512135,0.4689975697318598,stand
23/10/2020, 15:15:56,9.4507475,-0.16765137,1.7339942,0.33798409,0.27114996,0.17945243,9.609967281101975,0.4689975697318598,stand
23/10/2020, 15:15:56,9.4507475,-0.16765137,1.7339942,0.21336764,0.2235025,0.17456552,9.609967281101975,0.3548975072702784,stand
23/10/2020, 15:15:56,9.481883,-0.0023950196,1.5783179,0.21336764,0.2235025,0.17456552,9.612346187251243,0.3548975072702784,stand
23/10/2020, 15:15:56,9.481883,-0.0023950196,1.5783179,0.05820792,0.18074195,0.1782307,9.612346187251243,0.2604265700709625,stand
23/10/2020, 15:15:56,9.565708,0.050295413,1.4058765,0.05820792,0.18074195,0.1782307,9.668598193138296,0.2604265700709625,stand
23/10/2020, 15:15:56,9.565708,0.050295413,1.4058765,-0.13849062,0.15386389,0.19533493,9.668598193138296,0.28462164663682893,stand
23/10/2020, 15:15:56,9.601634,0.119750984,1.4226416,-0.13849062,0.15386389,0.19533493,9.707194521626482,0.28462164663682893,stand
23/10/2020, 15:15:56,9.601634,0.119750984,1.4226416,-0.358402,0.14897697,0.20510878,9.707194521626482,0.4389940208863508,stand
23/10/2020, 15:15:56,9.685459,0.30177248,1.341211,-0.358402,0.14897697,0.20510878,9.782537102583131,0.4389940208863508,stand
23/10/2020, 15:15:56,9.685459,0.30177248,1.341211,-0.589309,0.15142043,0.20999569,9.782537102583131,0.6436702614760917,stand
23/10/2020, 15:15:56,9.656719,0.39757326,1.3244458,-0.589309,0.15142043,0.20999569,9.755226658027716,0.6436702614760917,stand
23/10/2020, 15:15:56,9.656719,0.39757326,1.3244458,-0.87397206,0.1501987,0.24053894,9.755226658027716,0.9188284873429068,stand
23/10/2020, 15:15:56,9.539363,0.44786867,1.214275,-0.87397206,0.1501987,0.24053894,9.62675930991061,0.9188284873429068,stand
23/10/2020, 15:15:56,9.539363,0.44786867,1.214275,-1.2184999,0.13309447,0.2881864,9.62675930991061,1.259169386789982,stand
23/10/2020, 15:15:56,9.513018,0.4981641,1.0753639,-1.2184999,0.13309447,0.2881864,9.58655724511338,1.259169386789982,stand
23/10/2020, 15:15:56,9.513018,0.4981641,1.0753639,-1.5960145,0.09399912,0.34316424,9.58655724511338,1.635194119875812,stand
23/10/2020, 15:15:56,9.472302,0.51492923,1.0705738,-1.5960145,0.09399912,0.34316424,9.546506892445755,1.635194119875812,stand
23/10/2020, 15:15:56,9.472302,0.51492923,1.0705738,-1.9503162,0.043908186,0.38470307,9.546506892445755,1.9883806538521125,stand
23/10/2020, 15:15:56,9.462723,0.3544629,1.1280543,-1.9503162,0.043908186,0.38470307,9.536313372433082,1.9883806538521125,stand
23/10/2020, 15:15:56,9.462723,0.3544629,1.1280543,-2.2300925,-0.0012958248,0.4152463,9.536313372433082,2.268423207330649,stand
23/10/2020, 15:15:56,9.498648,0.019160157,1.2813355,-2.2300925,-0.0012958248,0.4152463,9.584701124263217,2.268423207330649,stand
23/10/2020, 15:15:56,9.498648,0.019160157,1.2813355,-2.4390082,-0.031839076,0.43357226,9.584701124263217,2.4774502635896862,stand
23/10/2020, 15:15:56,9.565708,-0.43349856,1.4825171,-2.4390082,-0.031839076,0.43357226,9.689610447965316,2.4774502635896862,stand
23/10/2020, 15:15:57,6.023474,-0.46942386,3.7601807,1.1821996,3.171537,1.8642181,7.116288314984904,3.8641365816687685,stand
23/10/2020, 15:15:57,5.240303,-0.42152345,3.6212697,1.1821996,3.171537,1.8642181,6.3837334082784745,3.8641365816687685,stand
23/10/2020, 15:15:57,5.240303,-0.42152345,3.6212697,1.1101174,2.989499,1.9375219,6.3837334082784745,3.731414850815366,stand
23/10/2020, 15:15:57,4.7780643,-0.33290774,3.5901344,1.1101174,2.989499,1.9375219,5.985799063588471,3.731414850815366,stand
23/10/2020, 15:15:57,4.7780643,-0.33290774,3.5901344,1.0954567,2.7891355,1.9472958,5.985799063588471,3.573690374186323,stand
23/10/2020, 15:15:57,4.382886,-0.12933107,3.8631666,1.0954567,2.7891355,1.9472958,5.843840481964287,3.573690374186323,stand
23/10/2020, 15:15:57,4.382886,-0.12933107,3.8631666,1.1431042,2.5472329,1.9301916,5.843840481964287,3.394218942421766,stand
23/10/2020, 15:15:57,4.1170387,0.083825685,4.0978785,1.1431042,2.5472329,1.9301916,5.809444247482094,3.394218942421766,stand
23/10/2020, 15:15:57,4.1170387,0.083825685,4.0978785,1.2237384,2.2992218,1.8898745,5.809444247482094,3.218008995073693,stand
23/10/2020, 15:15:57,3.7697608,0.3784131,4.5313773,1.2237384,2.2992218,1.8898745,5.906578849252832,3.218008995073693,stand
23/10/2020, 15:15:57,3.7697608,0.3784131,4.5313773,1.275051,2.0377715,1.8507792,5.906578849252832,3.0337519907314516,stand
23/10/2020, 15:15:57,3.5925295,0.68737066,4.7014236,1.275051,2.0377715,1.8507792,5.9566879365362055,3.0337519907314516,stand
23/10/2020, 15:15:57,3.5925295,0.68737066,4.7014236,1.2945987,1.7934257,1.8483356,5.9566879365362055,2.8824826166496553,stand
23/10/2020, 15:15:57,3.5997145,0.8909473,5.029541,1.2945987,1.7934257,1.8483356,6.2488410522184,2.8824826166496553,stand
23/10/2020, 15:15:57,3.5997145,0.8909473,5.029541,1.2701641,1.5955054,1.8849876,6.2488410522184,2.777072647714324,stand
23/10/2020, 15:15:57,3.4536183,0.7879615,5.3169436,1.2701641,1.5955054,1.8849876,6.3889163640918865,2.777072647714324,stand
23/10/2020, 15:15:57,3.4536183,0.7879615,5.3169436,1.2102994,1.511206,1.9143091,6.3889163640918865,2.7227096316052277,stand
23/10/2020, 15:15:57,3.3434474,0.7831714,5.853428,1.2102994,1.511206,1.9143091,6.786355157470856,2.7227096316052277,stand
23/10/2020, 15:15:57,3.3434474,0.7831714,5.853428,1.1895299,1.4867713,1.9240829,6.786355157470856,2.706947601362551,stand
23/10/2020, 15:15:57,3.0895753,1.0106983,6.569539,1.1895299,1.4867713,1.9240829,7.329790594670341,2.706947601362551,stand
23/10/2020, 15:15:57,3.0895753,1.0106983,6.569539,1.1919734,1.4354588,1.8837658,7.329790594670341,2.651398925011792,stand
23/10/2020, 15:15:57,2.9051588,1.0035132,6.871311,1.1919734,1.4354588,1.8837658,7.527410153936731,2.651398925011792,stand
23/10/2020, 15:15:57,2.9051588,1.0035132,6.871311,1.1467694,1.3132857,1.8300097,7.527410153936731,2.5275946899777715,stand
23/10/2020, 15:15:57,2.7207422,0.89573735,7.448511,1.1467694,1.3132857,1.8300097,7.980294582145803,2.5275946899777715,stand
23/10/2020, 15:15:57,2.7207422,0.89573735,7.448511,1.1333303,1.1336914,1.7848057,7.980294582145803,2.3990050349554366,stand
23/10/2020, 15:15:57,2.8931837,0.81909674,8.413704,1.1333303,1.1336914,1.7848057,8.934866818981192,2.3990050349554366,stand
23/10/2020, 15:15:57,2.8931837,0.81909674,8.413704,1.1003437,0.9675361,1.6870673,8.934866818981192,2.2345197092027007,stand
23/10/2020, 15:15:57,3.3458424,1.0178833,8.794512,1.1003437,0.9675361,1.6870673,9.464363963566228,2.2345197092027007,stand
23/10/2020, 15:15:57,3.3458424,1.0178833,8.794512,1.0209312,0.87590635,1.552677,9.464363963566228,2.0543413814839653,stand
23/10/2020, 15:15:57,3.779341,1.4441968,9.204061,1.0209312,0.87590635,1.552677,10.054046618559072,2.0543413814839653,stand
23/10/2020, 15:15:58,-1.6813037,5.5947657,7.1060233,0.08386426,-0.2969545,0.15990476,9.199116935628183,0.3475409750987218,stand
23/10/2020, 15:15:58,-1.7268091,5.606741,7.31918,0.08386426,-0.2969545,0.15990476,9.380181765931594,0.3475409750987218,stand
23/10/2020, 15:15:58,-1.7268091,5.606741,7.31918,0.060651384,-0.33116293,0.145244,9.380181765931594,0.3666651013272406,stand
23/10/2020, 15:15:58,-1.5663428,5.6522465,7.448511,0.060651384,-0.33116293,0.145244,9.48059270504924,0.3666651013272406,stand
23/10/2020, 15:15:58,-1.5663428,5.6522465,7.448511,0.027664673,-0.34338024,0.14157881,9.48059270504924,0.37245118351701567,stand
23/10/2020, 15:15:58,-1.3891114,5.5516553,7.6257424,0.027664673,-0.34338024,0.14157881,9.534277878235377,0.37245118351701567,stand
23/10/2020, 15:15:58,-1.3891114,5.5516553,7.6257424,-0.013874149,-0.3299412,0.13913535,9.534277878235377,0.35834667653951824,stand
23/10/2020, 15:15:58,-1.2286451,5.503755,7.683223,-0.013874149,-0.3299412,0.13913535,9.530624376801034,0.35834667653951824,stand
23/10/2020, 15:15:58,-1.2286451,5.503755,7.683223,-0.03342183,-0.31039354,0.14768746,9.530624376801034,0.345358881350792,stand
23/10/2020, 15:15:58,-1.092129,5.4486694,7.719148,-0.03342183,-0.31039354,0.14768746,9.511361239745522,0.345358881350792,stand
23/10/2020, 15:15:58,-1.092129,5.4486694,7.719148,-0.032200098,-0.30428487,0.15868303,9.511361239745522,0.34468309123751734,stand
23/10/2020, 15:15:58,-1.0562036,5.46304,7.7215433,-0.032200098,-0.30428487,0.15868303,9.517489261824876,0.34468309123751734,stand
23/10/2020, 15:15:58,-1.0562036,5.46304,7.7215433,-0.026091449,-0.2969545,0.17090033,9.517489261824876,0.34361267298563447,stand
23/10/2020, 15:15:58,-0.9388477,5.4175344,7.862849,-0.026091449,-0.2969545,0.17090033,9.594556351979607,0.34361267298563447,stand
23/10/2020, 15:15:58,-0.9388477,5.4175344,7.862849,-0.024869718,-0.28718066,0.1733438,9.594556351979607,0.3363618676225515,stand
23/10/2020, 15:15:58,-0.83586186,5.326524,7.94428,-0.024869718,-0.28718066,0.1733438,9.601151373784354,0.3363618676225515,stand
23/10/2020, 15:15:58,-0.83586186,5.326524,7.94428,-0.032200098,-0.26641124,0.16845687,9.601151373784354,0.31684304294000964,stand
23/10/2020, 15:15:58,-1.0274634,5.271438,8.018526,-0.032200098,-0.26641124,0.16845687,9.650932671838767,0.31684304294000964,stand
23/10/2020, 15:15:58,-1.0274634,5.271438,8.018526,-0.04686086,-0.23708972,0.15623957,9.650932671838767,0.28778165331480626,stand
23/10/2020, 15:15:58,-1.4202466,5.3025737,8.080796,-0.04686086,-0.23708972,0.15623957,9.769015096207648,0.28778165331480626,stand
23/10/2020, 15:15:58,-1.4202466,5.3025737,8.080796,-0.052969508,-0.21387684,0.1489092,9.769015096207648,0.2659380034135422,stand
23/10/2020, 15:15:58,-1.7411792,5.48699,8.183782,-0.052969508,-0.21387684,0.1489092,10.005650691265032,0.2659380034135422,stand
23/10/2020, 15:15:58,-1.7411792,5.48699,8.183782,-0.06396508,-0.21387684,0.14157881,10.005650691265032,0.2643471106284067,stand
23/10/2020, 15:15:58,-1.9639161,5.489385,8.3179035,-0.06396508,-0.21387684,0.14157881,10.157649055439844,0.2643471106284067,stand
23/10/2020, 15:15:58,-1.9639161,5.489385,8.3179035,-0.07862584,-0.22975934,0.14035708,10.157649055439844,0.2804843748447563,stand
23/10/2020, 15:15:58,-1.8824854,5.4319043,8.466394,-0.07862584,-0.22975934,0.14035708,10.233727096725431,0.2804843748447563,stand
23/10/2020, 15:15:58,-1.8824854,5.4319043,8.466394,-0.07129546,-0.22487241,0.1611265,10.233727096725431,0.28567882506951203,stand
23/10/2020, 15:15:58,-1.6334034,5.398374,8.5598,-0.07129546,-0.22487241,0.1611265,10.25088425564001,0.28567882506951203,stand
23/10/2020, 15:15:58,-1.6334034,5.398374,8.5598,-0.03464356,-0.20165955,0.18922628,10.25088425564001,0.2786993636487464,stand
23/10/2020, 15:15:58,-1.4394068,5.3097587,8.466394,-0.03464356,-0.20165955,0.18922628,10.096794709745392,0.2786993636487464,stand
23/10/2020, 15:15:59,-0.7209009,5.1900077,7.3934255,-0.2716592,-0.08681692,-0.108875856,9.061932353863432,0.30527012358065714,stand
23/10/2020, 15:15:59,-0.78556645,5.1612673,7.2832546,-0.2716592,-0.08681692,-0.108875856,8.961115583290603,0.30527012358065714,stand
23/10/2020, 15:15:59,-0.78556645,5.1612673,7.2832546,-0.3742845,-0.10636461,-0.11864969,8.961115583290603,0.4067924167995499,stand
23/10/2020, 15:15:59,-0.78556645,5.1924024,7.0102224,-0.3742845,-0.10636461,-0.11864969,8.759073896916972,0.4067924167995499,stand
23/10/2020, 15:15:59,-0.78556645,5.1924024,7.0102224,-0.5208921,-0.15034689,-0.15041466,8.759073896916972,0.5626342686679228,stand
23/10/2020, 15:15:59,-0.7544312,5.3145485,6.710845,-0.5208921,-0.15034689,-0.15041466,8.593545986611394,0.5626342686679228,stand
23/10/2020, 15:15:59,-0.7544312,5.3145485,6.710845,-0.7762337,-0.22975934,-0.19439694,8.593545986611394,0.8325372297358355,stand
23/10/2020, 15:15:59,-0.7759864,5.654641,6.133645,-0.7762337,-0.22975934,-0.19439694,8.378467825130471,0.8325372297358355,stand
23/10/2020, 15:15:59,-0.7759864,5.654641,6.133645,-1.2343824,-0.3177239,-0.24204442,8.378467825130471,1.297395030292138,stand
23/10/2020, 15:15:59,-0.65384036,6.0617948,5.6450615,-1.2343824,-0.3177239,-0.24204442,8.309006087696766,1.297395030292138,stand
23/10/2020, 15:15:59,-0.65384036,6.0617948,5.6450615,-1.8745689,-0.36903659,-0.28847018,8.309006087696766,1.9322038590856072,stand
23/10/2020, 15:15:59,-0.44307864,6.191126,5.216353,-1.8745689,-0.36903659,-0.28847018,8.107816981426494,1.9322038590856072,stand
23/10/2020, 15:15:59,-0.44307864,6.191126,5.216353,-2.590503,-0.3543758,-0.34833494,8.107816981426494,2.6377310551515643,stand
23/10/2020, 15:15:59,-0.038320314,5.8821683,4.86189,-2.590503,-0.3543758,-0.34833494,7.631470702419627,2.6377310551515643,stand
23/10/2020, 15:15:59,-0.038320314,5.8821683,4.86189,-3.2612326,-0.30550662,-0.4399647,7.631470702419627,3.304926838286988,stand
23/10/2020, 15:15:59,0.19160157,5.017566,4.550537,-3.2612326,-0.30550662,-0.4399647,6.776434885642706,3.304926838286988,stand
23/10/2020, 15:15:59,0.19160157,5.017566,4.550537,-3.8012373,-0.24564183,-0.5377031,6.776434885642706,3.8469299290340944,stand
23/10/2020, 15:15:59,0.53169435,4.0571632,4.5002418,-3.8012373,-0.24564183,-0.5377031,6.08238837094904,3.8469299290340944,stand
23/10/2020, 15:15:59,0.53169435,4.0571632,4.5002418,-4.159204,-0.19066398,-0.6562109,6.08238837094904,4.214966602745512,stand
23/10/2020, 15:15:59,0.66342044,3.0967603,4.267925,-4.159204,-0.19066398,-0.6562109,5.3146244309957655,4.214966602745512,stand
23/10/2020, 15:15:59,0.66342044,3.0967603,4.267925,-4.352237,-0.13935131,-0.8028185,5.3146244309957655,4.427855593106789,stand
23/10/2020, 15:15:59,0.76401126,2.5123756,3.9733377,-4.352237,-0.13935131,-0.8028185,4.76268374089689,4.427855593106789,stand
23/10/2020, 15:15:59,0.76401126,2.5123756,3.9733377,-4.4230976,-0.110029794,-0.97141725,4.76268374089689,4.529851045851474,stand
23/10/2020, 15:15:59,0.7065308,2.090852,3.6907253,-4.4230976,-0.110029794,-0.97141725,4.300267596231799,4.529851045851474,stand
23/10/2020, 15:15:59,0.7065308,2.090852,3.6907253,-4.4402018,-0.11980364,-1.1253552,4.300267596231799,4.582157679480089,stand
23/10/2020, 15:15:59,0.5388794,1.84177,3.0895753,-4.4402018,-0.11980364,-1.1253552,3.6370294756058694,4.582157679480089,stand
23/10/2020, 15:15:59,0.5388794,1.84177,3.0895753,-4.449976,-0.15279035,-1.2609673,3.6370294756058694,4.627706712795412,stand
23/10/2020, 15:15:59,0.52690434,1.6118482,2.668052,-4.449976,-0.15279035,-1.2609673,3.1613579633511892,4.627706712795412,stand
23/10/2020, 15:15:59,0.52690434,1.6118482,2.668052,-4.46708,-0.18455532,-1.3709229,3.1613579633511892,4.676354893834955,stand
23/10/2020, 15:15:59,0.45505372,1.1496094,2.6081765,-4.46708,-0.18455532,-1.3709229,2.8863922572021945,4.676354893834955,stand
23/10/2020, 15:16:00,8.1071415,0.4382886,3.1326857,0.6177603,0.052460294,0.9576945,8.702388152959069,1.1408586989940133,stand
23/10/2020, 15:16:00,8.207732,0.17962648,3.3506324,0.6177603,0.052460294,0.9576945,8.867123052289969,1.1408586989940133,stand
23/10/2020, 15:16:00,8.207732,0.17962648,3.3506324,0.7338247,-0.16134246,0.97113353,8.867123052289969,1.2278560048047378,stand
23/10/2020, 15:16:00,8.660391,-0.026345216,3.539839,0.7338247,-0.16134246,0.97113353,9.355935237368517,1.2278560048047378,stand
23/10/2020, 15:16:00,8.660391,-0.026345216,3.539839,0.9195276,-0.28718066,0.9662466,9.355935237368517,1.364417906475433,stand
23/10/2020, 15:16:00,9.544153,0.0023950196,3.9781277,0.9195276,-0.28718066,0.9662466,10.340037061799904,1.364417906475433,stand
23/10/2020, 15:16:00,9.544153,0.0023950196,3.9781277,1.3288071,-0.3299412,0.87095165,10.340037061799904,1.6226972408649363,stand
23/10/2020, 15:16:00,10.28661,-0.05748047,4.3182206,1.3288071,-0.3299412,0.87095165,11.15637357620972,1.6226972408649363,stand
23/10/2020, 15:16:00,10.28661,-0.05748047,4.3182206,1.9604416,-0.31405872,0.7072398,11.15637357620972,2.107641394940127,stand
23/10/2020, 15:16:00,10.763218,-0.16525635,3.8104763,1.9604416,-0.31405872,0.7072398,11.419014819205206,2.107641394940127,stand
23/10/2020, 15:16:00,10.763218,-0.16525635,3.8104763,2.505333,-0.24319836,0.5032109,11.419014819205206,2.566916405152435,stand
23/10/2020, 15:16:00,11.158397,0.852627,3.3745828,2.505333,-0.24319836,0.5032109,11.688652574237084,2.566916405152435,stand
23/10/2020, 15:16:00,11.158397,0.852627,3.3745828,2.8657434,-0.13935131,0.29796025,11.688652574237084,2.8845596415489725,stand
23/10/2020, 15:16:00,11.096126,2.2608986,3.0608351,2.8657434,-0.13935131,0.29796025,11.73048922580037,2.8845596415489725,stand
23/10/2020, 15:16:00,11.096126,2.2608986,3.0608351,2.9756992,-0.041612916,0.16356994,11.73048922580037,2.9804819087208685,stand
23/10/2020, 15:16:00,10.734478,3.1542408,2.5339308,2.9756992,-0.041612916,0.16356994,11.471663278407625,2.9804819087208685,stand
23/10/2020, 15:16:00,10.734478,3.1542408,2.5339308,2.813209,0.020695316,0.109813824,11.471663278407625,2.81542759979086,stand
23/10/2020, 15:16:00,10.32014,3.5134938,2.3135889,2.813209,0.020695316,0.109813824,11.144622881165814,2.81542759979086,stand
23/10/2020, 15:16:00,10.32014,3.5134938,2.3135889,2.5077765,0.062234137,0.102483444,11.144622881165814,2.5106411356498293,stand
23/10/2020, 15:16:00,9.939331,3.3171022,2.069297,2.5077765,0.062234137,0.102483444,10.680611366618049,2.5106411356498293,stand
23/10/2020, 15:16:00,9.939331,3.3171022,2.069297,2.133927,0.07933836,0.11592247,10.680611366618049,2.1385456488185803,stand
23/10/2020, 15:16:00,9.630374,2.672842,1.9136207,2.133927,0.07933836,0.11592247,10.175958491787851,2.1385456488185803,stand
23/10/2020, 15:16:00,9.630374,2.672842,1.9136207,1.7270912,0.06956452,0.12936151,10.175958491787851,1.733325593358804,stand
23/10/2020, 15:16:00,9.474698,1.9806812,2.0309765,1.7270912,0.06956452,0.12936151,9.890291556730842,1.733325593358804,stand
23/10/2020, 15:16:00,9.474698,1.9806812,2.0309765,1.3214768,0.047573376,0.11225728,9.890291556730842,1.32708925892426,stand
23/10/2020, 15:16:00,9.505833,1.583108,2.2585034,1.3214768,0.047573376,0.11225728,9.897874688105532,1.32708925892426,stand
23/10/2020, 15:16:00,9.505833,1.583108,2.2585034,0.9280797,0.018251857,0.09393133,9.897874688105532,0.932999571344797,stand
23/10/2020, 15:16:00,9.635164,1.2597803,2.2225783,0.9280797,0.018251857,0.09393133,9.968113710708693,0.932999571344797,stand
23/10/2020, 15:16:00,9.635164,1.2597803,2.2225783,0.50291765,-0.012291394,0.08782268,9.968113710708693,0.5106760833202039,stand
23/10/2020, 15:16:00,9.872271,0.9484278,1.9734962,0.50291765,-0.012291394,0.08782268,10.112167374842619,0.5106760833202039,stand
23/10/2020, 15:16:01,9.79084,-3.3123121,-0.05748047,2.1534748,-0.28840238,0.5716278,10.336114668833625,2.246639271520631,stand
23/10/2020, 15:16:01,9.74294,-3.2692018,0.009580079,2.1534748,-0.28840238,0.5716278,10.276801581559242,2.246639271520631,stand
23/10/2020, 15:16:01,9.74294,-3.2692018,0.009580079,2.1192663,-0.2920676,0.61438835,10.276801581559242,2.2257731344469636,stand
23/10/2020, 15:16:01,9.750125,-3.2165112,0.081430666,2.1192663,-0.2920676,0.61438835,10.267303041620535,2.2257731344469636,stand
23/10/2020, 15:16:01,9.750125,-3.2165112,0.081430666,2.080171,-0.30306315,0.65104026,10.267303041620535,2.200639118526688,stand
23/10/2020, 15:16:01,9.843531,-3.2141163,0.1580713,2.080171,-0.30306315,0.65104026,10.3561878170777,2.200639118526688,stand
23/10/2020, 15:16:01,9.843531,-3.2141163,0.1580713,2.0459626,-0.3006197,0.68036175,10.3561878170777,2.1769766083260955,stand
23/10/2020, 15:16:01,10.008787,-3.2308815,0.19878663,2.0459626,-0.3006197,0.68036175,10.519217242854925,2.1769766083260955,stand
23/10/2020, 15:16:01,10.008787,-3.2308815,0.19878663,2.0178628,-0.29084584,0.69746596,10.519217242854925,2.1547204760807555,stand
23/10/2020, 15:16:01,10.080638,-3.2452517,0.16765137,2.0178628,-0.29084584,0.69746596,10.591460069436993,2.1547204760807555,stand
23/10/2020, 15:16:01,10.080638,-3.2452517,0.16765137,1.9983152,-0.27985027,0.70357466,10.591460069436993,2.1369597969018423,stand
23/10/2020, 15:16:01,10.277029,-3.2236965,0.2083667,1.9983152,-0.27985027,0.70357466,10.772788007477896,2.1369597969018423,stand
23/10/2020, 15:16:01,10.277029,-3.2236965,0.2083667,1.99465,-0.26518953,0.69868773,10.772788007477896,2.130051332895897,stand
23/10/2020, 15:16:01,10.37283,-3.2165112,0.24908204,1.99465,-0.26518953,0.69868773,10.862946046168302,2.130051332895897,stand
23/10/2020, 15:16:01,10.37283,-3.2165112,0.24908204,1.9983152,-0.24686356,0.6913573,10.862946046168302,2.1288917896602335,stand
23/10/2020, 15:16:01,10.564431,-3.2021413,0.29937744,1.9983152,-0.24686356,0.6913573,11.043121933573413,2.1288917896602335,stand
23/10/2020, 15:16:01,10.564431,-3.2021413,0.29937744,2.0154192,-0.21754204,0.6766966,11.043121933573413,2.1370909097785398,stand
23/10/2020, 15:16:01,10.602752,-3.178191,0.43349856,2.0154192,-0.21754204,0.6766966,11.077326526891028,2.1370909097785398,stand
23/10/2020, 15:16:01,10.602752,-3.178191,0.43349856,2.0459626,-0.18455532,0.66570103,11.077326526891028,2.159440060956689,stand
23/10/2020, 15:16:01,10.545272,-3.1446607,0.53169435,2.0459626,-0.18455532,0.66570103,11.017002712136401,2.159440060956689,stand
23/10/2020, 15:16:01,10.545272,-3.1446607,0.53169435,2.0703971,-0.16134246,0.6620358,11.017002712136401,2.1796483961125825,stand
23/10/2020, 15:16:01,10.542876,-3.175796,0.4263135,2.0703971,-0.16134246,0.6620358,11.019059084863951,2.1796483961125825,stand
23/10/2020, 15:16:01,10.542876,-3.175796,0.4263135,2.0703971,-0.15034689,0.6559272,11.019059084863951,2.17701377257004,stand
23/10/2020, 15:16:01,10.557246,-3.0895753,0.4167334,2.0703971,-0.15034689,0.6559272,11.007933035562633,2.17701377257004,stand
23/10/2020, 15:16:01,10.557246,-3.0895753,0.4167334,2.043519,-0.12224709,0.6571489,11.007933035562633,2.1500602342068,stand
23/10/2020, 15:16:01,10.533297,-2.8692336,0.364043,2.043519,-0.12224709,0.6571489,10.923157316084753,2.1500602342068,stand
23/10/2020, 15:16:01,10.533297,-2.8692336,0.364043,1.9885414,-0.068490975,0.66814446,10.923157316084753,2.0989056191352558,stand
23/10/2020, 15:16:01,10.41115,-2.6297317,0.2083667,1.9885414,-0.068490975,0.66814446,10.740155917872178,2.0989056191352558,stand
23/10/2020, 15:16:01,10.41115,-2.6297317,0.2083667,1.8981334,-0.0037392848,0.6901356,10.740155917872178,2.019705800191017,stand
23/10/2020, 15:16:01,10.095008,-2.4069948,0.1101709,1.8981334,-0.0037392848,0.6901356,10.378581122582055,2.019705800191017,stand
23/10/2020, 15:16:02,9.939331,-2.083667,2.8955786,-0.36939758,-0.20043781,-0.2127229,10.56013000434377,0.4710423770575022,stand
23/10/2020, 15:16:02,9.889036,-1.9255958,2.8596535,-0.36939758,-0.20043781,-0.2127229,10.47275386700037,0.4710423770575022,stand
23/10/2020, 15:16:02,9.889036,-1.9255958,2.8596535,-0.3571803,-0.16500765,-0.15896678,10.47275386700037,0.4243533041269572,stand
23/10/2020, 15:16:02,9.697434,-1.6813037,2.936294,-0.3571803,-0.16500765,-0.15896678,10.270775998726291,0.4243533041269572,stand
23/10/2020, 15:16:02,9.697434,-1.6813037,2.936294,-0.37550622,-0.1259123,-0.10398893,10.270775998726291,0.4094783588405177,stand
23/10/2020, 15:16:02,9.441168,-1.4274317,2.914739,-0.37550622,-0.1259123,-0.10398893,9.983431980236924,0.4094783588405177,stand
23/10/2020, 15:16:02,9.441168,-1.4274317,2.914739,-0.43659276,-0.090482116,-0.045345888,9.983431980236924,0.44817016730753967,stand
23/10/2020, 15:16:02,9.254355,-1.341211,2.8764186,-0.43659276,-0.090482116,-0.045345888,9.783441377490435,0.44817016730753967,stand
23/10/2020, 15:16:02,9.254355,-1.341211,2.8764186,-0.525779,-0.069712706,0.013297152,9.783441377490435,0.5305471155081938,stand
23/10/2020, 15:16:02,8.976534,-1.334026,2.936294,-0.525779,-0.069712706,0.013297152,9.5383231704693,0.5305471155081938,stand
23/10/2020, 15:16:02,8.976534,-1.334026,2.936294,-0.61740875,-0.052608486,0.07438365,9.5383231704693,0.6240946629768246,stand
23/10/2020, 15:16:02,8.816068,-1.2525953,3.0033545,-0.61740875,-0.052608486,0.07438365,9.397456206994551,0.6240946629768246,stand
23/10/2020, 15:16:02,8.816068,-1.2525953,3.0033545,-0.6943778,-0.045278106,0.1330267,9.397456206994551,0.70845374739908,stand
23/10/2020, 15:16:02,8.669971,-1.2094849,2.9794044,-0.6943778,-0.045278106,0.1330267,9.247059527405225,0.70845374739908,stand
23/10/2020, 15:16:02,8.669971,-1.2094849,2.9794044,-0.75057733,-0.053830218,0.17578726,9.247059527405225,0.7727646346706593,stand
23/10/2020, 15:16:02,8.600515,-1.0705738,2.938689,-0.75057733,-0.053830218,0.17578726,9.151551006791456,0.7727646346706593,stand
23/10/2020, 15:16:02,8.600515,-1.0705738,2.938689,-0.77501196,-0.07093444,0.21488261,9.151551006791456,0.8073721350383081,stand
23/10/2020, 15:16:02,8.614885,-1.214275,2.9506643,-0.77501196,-0.07093444,0.21488261,9.186791210118017,0.8073721350383081,stand
23/10/2020, 15:16:02,8.614885,-1.214275,2.9506643,-0.7860075,-0.090482116,0.2637518,9.186791210118017,0.8340023110737913,stand
23/10/2020, 15:16:02,8.56938,-1.336421,3.0752053,-0.7860075,-0.090482116,0.2637518,9.20202038628386,0.8340023110737913,stand
23/10/2020, 15:16:02,8.56938,-1.336421,3.0752053,-0.7762337,-0.10514288,0.3052906,9.20202038628386,0.8407116604617707,stand
23/10/2020, 15:16:02,8.51669,-1.4058765,3.163821,-0.7762337,-0.10514288,0.3052906,9.193490353183423,0.8407116604617707,stand
23/10/2020, 15:16:02,8.51669,-1.4058765,3.163821,-0.72003406,-0.110029794,0.32606003,9.193490353183423,0.7980418212362944,stand
23/10/2020, 15:16:02,8.610096,-1.3795313,3.288362,-0.72003406,-0.110029794,0.32606003,9.31934461597402,0.7980418212362944,stand
23/10/2020, 15:16:02,8.610096,-1.3795313,3.288362,-0.6235174,-0.10880806,0.32606003,9.31934461597402,0.7119889580616723,stand
23/10/2020, 15:16:02,8.634046,-1.1735597,3.3889527,-0.6235174,-0.10880806,0.32606003,9.349277316856762,0.7119889580616723,stand
23/10/2020, 15:16:02,8.634046,-1.1735597,3.3889527,-0.5062313,-0.111251526,0.3040689,9.349277316856762,0.6009200703379787,stand
23/10/2020, 15:16:02,8.677156,-1.22625,3.4631984,-0.5062313,-0.111251526,0.3040689,9.422869867522783,0.6009200703379787,stand
23/10/2020, 15:16:02,8.677156,-1.22625,3.4631984,-0.41826677,-0.110029794,0.29185158,9.422869867522783,0.5217576008487386,stand
23/10/2020, 15:16:02,8.667576,-0.91729254,3.439248,-0.41826677,-0.110029794,0.29185158,9.369990600935173,0.5217576008487386,stand
23/10/2020, 15:16:03,9.711804,-1.0562036,2.1435425,-0.27898955,-0.025730425,-0.04045897,10.001474147908569,0.28307976608384566,stand
23/10/2020, 15:16:03,9.455538,-1.1448194,2.1674929,-0.27898955,-0.025730425,-0.04045897,9.768102771191938,0.28307976608384566,stand
23/10/2020, 15:16:03,9.455538,-1.1448194,2.1674929,-0.27410263,-0.0135131255,-0.04412416,9.768102771191938,0.2779600634187084,stand
23/10/2020, 15:16:03,9.266331,-1.3483961,2.1507277,-0.27410263,-0.0135131255,-0.04412416,9.60774098245001,0.2779600634187084,stand
23/10/2020, 15:16:03,9.266331,-1.3483961,2.1507277,-0.2728809,-0.050165027,-0.056341458,9.60774098245001,0.28311637521309885,stand
23/10/2020, 15:16:03,9.261541,-1.3507911,2.1818628,-0.2728809,-0.050165027,-0.056341458,9.610479201658665,0.28311637521309885,stand
23/10/2020, 15:16:03,9.261541,-1.3507911,2.1818628,-0.25088978,-0.09903423,-0.073445685,9.610479201658665,0.2795491506912624,stand
23/10/2020, 15:16:03,9.457932,-1.4154567,2.320774,-0.25088978,-0.09903423,-0.073445685,9.840833120604193,0.2795491506912624,stand
23/10/2020, 15:16:03,9.457932,-1.4154567,2.320774,-0.19957711,-0.10880806,-0.08321952,9.840833120604193,0.2420654978486923,stand
23/10/2020, 15:16:03,9.632769,-1.4465919,2.4525,-0.19957711,-0.10880806,-0.08321952,10.044780547872138,0.2420654978486923,stand
23/10/2020, 15:16:03,9.632769,-1.4465919,2.4525,-0.14826445,-0.097812496,-0.10398893,10.044780547872138,0.20582354105078374,stand
23/10/2020, 15:16:03,9.711804,-1.4849122,2.5578809,-0.14826445,-0.097812496,-0.10398893,10.152185144649177,0.20582354105078374,stand
23/10/2020, 15:16:03,9.711804,-1.4849122,2.5578809,-0.09695179,-0.089260384,-0.13086699,10.152185144649177,0.18572354396675503,stand
23/10/2020, 15:16:03,9.572893,-1.5136524,2.6776319,-0.09695179,-0.089260384,-0.13086699,10.054906224993223,0.18572354396675503,stand
23/10/2020, 15:16:03,9.572893,-1.5136524,2.6776319,-0.057856433,-0.08437347,-0.1394191,10.054906224993223,0.17292753518240953,stand
23/10/2020, 15:16:03,9.469908,-1.5088624,2.6225464,-0.057856433,-0.08437347,-0.1394191,9.941507353797087,0.17292753518240953,stand
23/10/2020, 15:16:03,9.469908,-1.5088624,2.6225464,-0.03708702,-0.09170385,-0.14064083,9.941507353797087,0.17194442197333115,stand
23/10/2020, 15:16:03,9.469908,-1.5088624,2.6225464,-0.04686086,-0.10514288,-0.14919294,9.941507353797087,0.18843964327349233,stand
23/10/2020, 15:16:03,9.438772,-1.465752,2.5387208,-0.04686086,-0.10514288,-0.14919294,9.883519269429828,0.18843964327349233,stand
23/10/2020, 15:16:03,9.570498,-1.3603711,2.44771,-0.04686086,-0.10514288,-0.14919294,9.971776917284508,0.18843964327349233,stand
23/10/2020, 15:16:03,9.570498,-1.3603711,2.44771,-0.0810693,-0.10758633,-0.16385369,9.971776917284508,0.212120441234849,stand
23/10/2020, 15:16:03,9.75731,-1.2765454,2.3926246,-0.0810693,-0.10758633,-0.16385369,10.127157423423993,0.212120441234849,stand
23/10/2020, 15:16:03,9.75731,-1.2765454,2.3926246,-0.12871677,-0.07948654,-0.17362754,10.127157423423993,0.23028816544782424,stand
23/10/2020, 15:16:03,9.79084,-1.2022998,2.2058132,-0.12871677,-0.07948654,-0.17362754,10.108001159953108,0.23028816544782424,stand
23/10/2020, 15:16:03,9.79084,-1.2022998,2.2058132,-0.1946902,-0.022065235,-0.16507542,10.108001159953108,0.25620507883370486,stand
23/10/2020, 15:16:03,9.642349,-1.1567944,2.083667,-0.1946902,-0.022065235,-0.16507542,9.932509280677953,0.25620507883370486,stand
23/10/2020, 15:16:03,9.642349,-1.1567944,2.083667,-0.27898955,0.042686455,-0.15041466,9.932509280677953,0.31981537562589146,stand
23/10/2020, 15:16:03,9.474698,-1.0130934,1.9255958,-0.27898955,0.042686455,-0.15041466,9.721326073541416,0.31981537562589146,stand
23/10/2020, 15:16:03,9.474698,-1.0130934,1.9255958,-0.38161486,0.08666874,-0.1394191,9.721326073541416,0.41542635693695634,stand
23/10/2020, 15:16:03,9.292676,-0.859812,1.8920655,-0.38161486,0.08666874,-0.1394191,9.522237939859604,0.41542635693695634,stand
23/10/2020, 15:16:04,6.1791506,-2.565066,2.0932472,-1.9246598,0.3334582,-0.5193771,7.010217524211903,2.021203225178342,stand
23/10/2020, 15:16:04,6.1791506,-2.565066,2.0932472,-1.6913095,0.09644258,-0.40209106,7.010217524211903,1.7411220667430167,stand
23/10/2020, 15:16:04,5.8438478,-2.1674929,2.4620802,-1.6913095,0.09644258,-0.40209106,6.7015237804479995,1.7411220667430167,stand
23/10/2020, 15:16:04,5.8438478,-2.1674929,2.4620802,-1.4347461,-0.08559519,-0.29702228,6.7015237804479995,1.4676666097336881,stand
23/10/2020, 15:16:04,6.090535,-1.7938697,2.8476784,-1.4347461,-0.08559519,-0.29702228,6.958581723651837,1.4676666097336881,stand
23/10/2020, 15:16:04,6.090535,-1.7938697,2.8476784,-1.1842915,-0.23342453,-0.23837923,6.958581723651837,1.2303893612136962,stand
23/10/2020, 15:16:04,6.6509695,-1.4178516,3.1231055,-1.1842915,-0.23342453,-0.23837923,7.483280467396429,1.2303893612136962,stand
23/10/2020, 15:16:04,6.6509695,-1.4178516,3.1231055,-0.99125814,-0.35193235,-0.20294906,7.483280467396429,1.0712783985959857,stand
23/10/2020, 15:16:04,7.647298,-1.0538087,3.0201197,-0.99125814,-0.35193235,-0.20294906,8.289318434212912,1.0712783985959857,stand
23/10/2020, 15:16:04,7.647298,-1.0538087,3.0201197,-0.9008501,-0.40568846,-0.16874062,8.289318434212912,1.0022911050432581,stand
23/10/2020, 15:16:04,8.610096,-0.57959473,2.5363257,-0.9008501,-0.40568846,-0.16874062,8.994588974536795,1.0022911050432581,stand
23/10/2020, 15:16:04,8.610096,-0.57959473,2.5363257,-0.9399455,-0.35193235,-0.1357539,8.994588974536795,1.0128094967395778,stand
23/10/2020, 15:16:04,9.4435625,-0.05269043,1.7699195,-0.9399455,-0.35193235,-0.1357539,9.608135313651292,1.0128094967395778,stand
23/10/2020, 15:16:04,9.4435625,-0.05269043,1.7699195,-1.0938835,-0.2163203,-0.12475834,9.608135313651292,1.1220250716470168,stand
23/10/2020, 15:16:04,10.075848,0.48618898,1.0226734,-1.0938835,-0.2163203,-0.12475834,10.139277386372726,1.1220250716470168,stand
23/10/2020, 15:16:04,10.075848,0.48618898,1.0226734,-1.3296773,-0.04405638,-0.13208872,10.139277386372726,1.336948103741923,stand
23/10/2020, 15:16:04,10.37762,0.7951465,0.57959473,-1.3296773,-0.04405638,-0.13208872,10.424163255924467,1.336948103741923,stand
23/10/2020, 15:16:04,10.37762,0.7951465,0.57959473,-1.6290013,0.10988161,-0.16385369,10.424163255924467,1.6409043556294247,stand
23/10/2020, 15:16:04,10.358459,0.7831714,0.57959473,-1.6290013,0.10988161,-0.16385369,10.404180417747325,1.6409043556294247,stand
23/10/2020, 15:16:04,10.358459,0.7831714,0.57959473,-1.9478728,0.25526747,-0.21394463,10.404180417747325,1.9761432303886137,stand
23/10/2020, 15:16:04,10.099798,0.37362307,1.1352394,-1.9478728,0.25526747,-0.21394463,10.170264811839116,1.9761432303886137,stand
23/10/2020, 15:16:04,10.099798,0.37362307,1.1352394,-2.187332,0.35911453,-0.26281384,10.170264811839116,2.2321414073763943,stand
23/10/2020, 15:16:04,9.812395,-0.23231691,1.8489552,-2.187332,0.35911453,-0.26281384,9.987777722139484,2.2321414073763943,stand
23/10/2020, 15:16:04,9.812395,-0.23231691,1.8489552,-2.318057,0.37255356,-0.30068746,9.987777722139484,2.3669807006703927,stand
23/10/2020, 15:16:04,9.74294,-1.0705738,2.562671,-2.318057,0.37255356,-0.30068746,10.131055695451233,2.3669807006703927,stand
23/10/2020, 15:16:04,9.74294,-1.0705738,2.562671,-2.3388264,0.32857126,-0.32267863,10.131055695451233,2.383734377288041,stand
23/10/2020, 15:16:04,9.920172,-1.6621436,2.9961696,-2.3388264,0.32857126,-0.32267863,10.49521608577445,2.383734377288041,stand
23/10/2020, 15:16:04,9.920172,-1.6621436,2.9961696,-2.264301,0.3090236,-0.343448,10.49521608577445,2.3109546542227415,stand
23/10/2020, 15:16:04,10.130933,-1.6334034,2.9482691,-2.264301,0.3090236,-0.343448,10.676895482695413,2.3109546542227415,stand
23/10/2020, 15:16:04,10.130933,-1.6334034,2.9482691,-2.1604538,0.35300586,-0.38132167,10.676895482695413,2.2220665957278345,stand
23/10/2020, 15:16:05,10.554852,-2.1627028,2.335144,-0.35962373,0.09155566,-0.0050287982,11.024294624134876,0.3711292974820356,stand
23/10/2020, 15:16:05,10.3512745,-2.074087,2.2273684,-0.35962373,0.09155566,-0.0050287982,10.789434176553561,0.3711292974820356,stand
23/10/2020, 15:16:05,10.3512745,-2.074087,2.2273684,-0.34618473,0.10621642,0.007188502,10.789434176553561,0.3621843049745686,stand
23/10/2020, 15:16:05,10.209969,-2.0046315,2.090852,-0.34618473,0.10621642,0.007188502,10.612901009800888,0.3621843049745686,stand
23/10/2020, 15:16:05,10.209969,-2.0046315,2.090852,-0.31686318,0.17585503,0.0010798516,10.612901009800888,0.3623926468109995,stand
23/10/2020, 15:16:05,10.494976,-2.1770728,1.9902613,-0.31686318,0.17585503,0.0010798516,10.901619516491335,0.3623926468109995,stand
23/10/2020, 15:16:05,10.494976,-2.1770728,1.9902613,-0.2875417,0.25771093,-0.06855876,10.901619516491335,0.3921676311932443,stand
23/10/2020, 15:16:05,10.540482,-2.2537134,2.0405567,-0.2875417,0.25771093,-0.06855876,10.970179904813415,0.3921676311932443,stand
23/10/2020, 15:16:05,10.540482,-2.2537134,2.0405567,-0.2117944,0.27114996,-0.17118408,10.970179904813415,0.3842956693885308,stand
23/10/2020, 15:16:05,9.972861,-2.308799,2.2177882,-0.2117944,0.27114996,-0.17118408,10.47411570725696,0.3842956693885308,stand
23/10/2020, 15:16:05,9.972861,-2.308799,2.2177882,-0.11161255,0.25771093,-0.1882883,10.47411570725696,0.33811946297488876,stand
23/10/2020, 15:16:05,9.481883,-2.2752686,2.3758595,-0.11161255,0.25771093,-0.1882883,10.036317128805697,0.33811946297488876,stand
23/10/2020, 15:16:05,9.481883,-2.2752686,2.3758595,-0.04563913,0.26992822,-0.13697563,10.036317128805697,0.30611516805894423,stand
23/10/2020, 15:16:05,9.496253,-1.9926564,2.4069948,-0.04563913,0.26992822,-0.13697563,9.997155830036293,0.30611516805894423,stand
23/10/2020, 15:16:05,9.496253,-1.9926564,2.4069948,-0.013874149,0.28092378,-0.1272018,9.997155830036293,0.30869234052717553,stand
23/10/2020, 15:16:05,9.6686945,-1.9112257,2.311194,-0.013874149,0.28092378,-0.1272018,10.123144486220466,0.30869234052717553,stand
23/10/2020, 15:16:05,9.6686945,-1.9112257,2.311194,-0.0065437686,0.2772586,-0.16507542,10.123144486220466,0.32274610695044265,stand
23/10/2020, 15:16:05,9.671089,-1.9279908,2.1028273,-0.0065437686,0.2772586,-0.16507542,10.083104530862414,0.32274610695044265,stand
23/10/2020, 15:16:05,9.671089,-1.9279908,2.1028273,-0.01753934,0.29680628,-0.20294906,10.083104530862414,0.3599859935618726,stand
23/10/2020, 15:16:05,9.678274,-1.8633252,1.9687061,-0.01753934,0.29680628,-0.20294906,10.05071019313562,0.3599859935618726,stand
23/10/2020, 15:16:05,9.678274,-1.8633252,1.9687061,-0.05541297,0.3420103,-0.2041708,10.05071019313562,0.4021533889063602,stand
23/10/2020, 15:16:05,9.707015,-1.695674,1.9040406,-0.05541297,0.3420103,-0.2041708,10.0362752836802,0.4021533889063602,stand
23/10/2020, 15:16:05,9.707015,-1.695674,1.9040406,-0.10672563,0.37988394,-0.18217964,10.0362752836802,0.4346166073383889,stand
23/10/2020, 15:16:05,9.536968,-1.583108,1.8968556,-0.10672563,0.37988394,-0.18217964,9.851804654913913,0.4346166073383889,stand
23/10/2020, 15:16:20,9.536968,-1.583108,1.8968556,-0.16048175,0.37499702,-0.16018851,9.851804654913913,0.43822085332445154,stand
23/10/2020, 15:16:20,9.311836,-1.7028589,1.8992506,-0.16048175,0.37499702,-0.16018851,9.654904228986888,0.43822085332445154,stand
23/10/2020, 15:16:20,9.311836,-1.7028589,1.8992506,-0.20812923,0.35911453,-0.13819736,9.654904228986888,0.43746946200430004,stand
23/10/2020, 15:16:20,9.137,-1.710044,1.9423609,-0.20812923,0.35911453,-0.13819736,9.49640915747127,0.43746946200430004,stand
23/10/2020, 15:16:20,9.137,-1.710044,1.9423609,-0.25088978,0.34445375,-0.11987142,9.49640915747127,0.442677338517033,stand
23/10/2020, 15:16:20,9.093889,-1.719624,1.954336,-0.25088978,0.34445375,-0.11987142,9.459141487348868,0.442677338517033,stand
23/10/2020, 15:16:20,9.093889,-1.719624,1.954336,-0.27410263,0.3102453,-0.094215095,9.459141487348868,0.4245714126006424,stand
23/10/2020, 15:16:20,9.050779,-1.7268091,1.9303858,-0.27410263,0.3102453,-0.094215095,9.414078073515725,0.4245714126006424,stand
23/10/2020, 15:16:20,9.050779,-1.7268091,1.9303858,-0.28143305,0.27848035,-0.073445685,9.414078073515725,0.4026786980423129,stand
23/10/2020, 15:16:20,9.311836,-1.8657203,1.949546,-0.28143305,0.27848035,-0.073445685,9.69494383017176,0.4026786980423129,stand
23/10/2020, 15:16:20,9.311836,-1.8657203,1.949546,-0.27654612,0.27359343,-0.09665855,9.69494383017176,0.4008416081002208,stand
23/10/2020, 15:16:20,9.508228,-1.9687061,2.1076174,-0.27654612,0.27359343,-0.09665855,9.93600826721639,0.4008416081002208,stand
23/10/2020, 15:16:20,9.508228,-1.9687061,2.1076174,-0.24478112,0.25893265,-0.14797121,9.93600826721639,0.3858230094435788,stand
23/10/2020, 15:16:20,9.462723,-2.0381618,2.179468,-0.24478112,0.25893265,-0.14797121,9.922061585995769,0.3858230094435788,stand
23/10/2020, 15:16:20,9.462723,-2.0381618,2.179468,-0.22278999,0.2271677,-0.1882883,9.922061585995769,0.36972019838694,stand
23/10/2020, 15:16:20,9.472302,-2.1124072,2.2345533,-0.22278999,0.2271677,-0.1882883,9.958915918980987,0.36972019838694,stand
23/10/2020, 15:16:20,9.472302,-2.1124072,2.2345533,-0.19713365,0.21861558,-0.22249673,9.958915918980987,0.3689976161499107,stand
23/10/2020, 15:16:20,9.565708,-2.179468,2.315984,-0.19713365,0.21861558,-0.22249673,10.080507673066641,0.3689976161499107,stand
23/10/2020, 15:16:20,9.565708,-2.179468,2.315984,-0.17147732,0.21617213,-0.26770076,10.080507673066641,0.38444577976785305,stand
23/10/2020, 15:16:20,9.558523,-2.2273684,2.2393434,-0.17147732,0.21617213,-0.26770076,10.066836346078409,0.38444577976785305,stand
23/10/2020, 15:16:20,9.558523,-2.2273684,2.2393434,-0.16292521,0.1990679,-0.29946575,10.066836346078409,0.39478144469681636,stand
23/10/2020, 15:16:20,9.558523,-2.2273684,2.2393434,-0.08473449,-0.72578174,0.036510024,10.066836346078409,0.731622886683024,stand
23/10/2020, 15:16:20,9.558523,-2.2273684,2.2393434,-0.19224674,-0.67813426,0.06705327,10.066836346078409,0.708040271932501,stand
23/10/2020, 15:16:20,9.558523,-2.2273684,2.2393434,-0.26555055,-0.5669568,0.10126171,10.066836346078409,0.6342011231920155,stand
23/10/2020, 15:16:20,9.558523,-2.2273684,2.2393434,-0.29853725,-0.43256652,0.15135264,10.066836346078409,0.5469423300115812,stand
23/10/2020, 15:16:20,9.558523,-2.2273684,2.2393434,-0.31686318,-0.3250543,0.1782307,10.066836346078409,0.48767688880455845,stand
23/10/2020, 15:16:20,9.558523,-2.2273684,2.2393434,-0.3180849,-0.29573277,0.16845687,10.066836346078409,0.4658471703095375,stand
23/10/2020, 15:16:20,9.558523,-2.2273684,2.2393434,-0.28265476,-0.35804102,0.13424844,10.066836346078409,0.4755099660512563,stand
23/10/2020, 15:16:20,9.558523,-2.2273684,2.2393434,-0.20812923,-0.47410536,0.09393133,10.066836346078409,0.5262288104760999,stand
23/10/2020, 15:16:20,9.558523,-2.2273684,2.2393434,-0.1262733,-0.5938349,0.06338808,10.066836346078409,0.6104120388137069,stand
23/10/2020, 15:16:21,10.073453,0.40715334,5.2019825,-0.9521628,0.4641833,0.98579425,11.344639706854103,1.4470212280560377,stand
23/10/2020, 15:16:21,10.073453,0.40715334,5.2019825,-1.0987704,0.60346055,0.9479206,11.344639706854103,1.5716279732958414,stand
23/10/2020, 15:16:21,10.073453,0.40715334,5.2019825,-1.240491,0.6792078,0.9515858,11.344639706854103,1.70459873004123,stand
23/10/2020, 15:16:21,10.073453,0.40715334,5.2019825,-1.3553337,0.7292987,0.987016,11.344639706854103,1.8283890827079452,stand
23/10/2020, 15:16:21,10.073453,0.40715334,5.2019825,-1.4213071,0.7891635,1.0126723,11.344639706854103,1.9153062459397128,stand
23/10/2020, 15:16:21,10.073453,0.40715334,5.2019825,-1.44452,0.8478065,1.0065637,11.344639706854103,1.9541198308587182,stand
23/10/2020, 15:16:21,10.073453,0.40715334,5.2019825,-1.4628459,0.8978975,0.9674683,11.344639706854103,1.9703129271506121,stand
23/10/2020, 15:16:21,10.073453,0.40715334,5.2019825,-1.4921675,0.96264917,0.90393835,11.344639706854103,1.9925766562570542,stand
23/10/2020, 15:16:21,10.073453,0.40715334,5.2019825,-1.5593626,1.049392,0.81841725,11.344639706854103,2.0500346848109774,stand
23/10/2020, 15:16:21,10.073453,0.40715334,5.2019825,-1.6705401,1.1190307,0.7231223,11.344639706854103,2.1367825824759783,stand
23/10/2020, 15:16:21,10.073453,0.40715334,5.2019825,-1.7853826,1.1507956,0.6376012,11.344639706854103,2.2177594280267994,stand
23/10/2020, 15:16:21,10.073453,0.40715334,5.2019825,-1.9173295,1.1434653,0.56551915,11.344639706854103,2.3029279979847104,stand
23/10/2020, 15:16:21,9.953702,0.7185059,5.4055595,-1.9173295,1.1434653,0.56551915,11.349559800292381,2.3029279979847104,stand
23/10/2020, 15:16:21,10.015972,0.81909674,5.767207,-1.9173295,1.1434653,0.56551915,11.586686135200052,2.3029279979847104,stand
23/10/2020, 15:16:21,10.27224,1.0370435,5.977969,-1.9173295,1.1434653,0.56551915,11.930233973483578,2.3029279979847104,stand
23/10/2020, 15:16:21,10.653048,1.3268409,5.848638,-1.9173295,1.1434653,0.56551915,12.225158330060712,2.3029279979847104,stand
23/10/2020, 15:16:21,10.808723,1.4992822,5.5157304,-1.9173295,1.1434653,0.56551915,12.227004190971966,2.3029279979847104,stand
23/10/2020, 15:16:21,10.799144,1.5136524,5.039121,-1.9173295,1.1434653,0.56551915,12.012717940500616,2.3029279979847104,stand
23/10/2020, 15:16:21,10.5692215,1.83219,4.6032276,-1.9173295,1.1434653,0.56551915,11.672834610900843,2.3029279979847104,stand
23/10/2020, 15:16:21,10.30577,2.2297633,4.509822,-1.9173295,1.1434653,0.56551915,11.468183438734634,2.3029279979847104,stand
23/10/2020, 15:16:21,10.049502,2.4045997,4.6104126,-1.9173295,1.1434653,0.56551915,11.315056421289267,2.3029279979847104,stand
23/10/2020, 15:16:21,9.843531,2.2752686,4.8834453,-1.9173295,1.1434653,0.56551915,11.221407237324371,2.3029279979847104,stand
23/10/2020, 15:16:21,9.79563,2.0022364,5.144502,-1.9173295,1.1434653,0.56551915,11.244075283548497,2.3029279979847104,stand
23/10/2020, 15:16:21,9.994417,1.6597486,5.2810183,-1.9173295,1.1434653,0.56551915,11.425073044594592,2.3029279979847104,stand
23/10/2020, 15:16:21,10.255474,1.6717237,5.1157618,-1.9173295,1.1434653,0.56551915,11.581900853626133,2.3029279979847104,stand
23/10/2020, 15:16:21,10.475816,1.8537452,4.629573,-1.9173295,1.1434653,0.56551915,11.602242559169945,2.3029279979847104,stand
23/10/2020, 15:16:21,10.43031,2.0213966,4.176914,-1.9173295,1.1434653,0.56551915,11.41595500259955,2.3029279979847104,stand
23/10/2020, 15:16:21,10.147698,2.1219873,3.6979103,-1.9173295,1.1434653,0.56551915,11.006959334962943,2.3029279979847104,stand
23/10/2020, 15:16:21,9.798025,2.3327491,3.293152,-1.9173295,1.1434653,0.56551915,10.59659689152048,2.3029279979847104,stand
23/10/2020, 15:16:21,9.498648,2.3662794,3.2332766,-1.9173295,1.1434653,0.56551915,10.3091058569801,2.3029279979847104,stand
23/10/2020, 15:16:22,8.689131,-2.1411476,2.9171338,0.8425586,-0.955467,-1.2401978,9.412501076916922,1.7778955877138463,stand
23/10/2020, 15:16:22,8.689131,-2.1411476,2.9171338,0.8731019,-0.96524084,-1.2292023,9.412501076916922,1.790233226161962,stand
23/10/2020, 15:16:22,8.689131,-2.1411476,2.9171338,0.88409746,-0.96646255,-1.2035459,9.412501076916922,1.7788201088471682,stand
23/10/2020, 15:16:22,8.689131,-2.1411476,2.9171338,0.86454976,-0.9579104,-1.1546767,9.412501076916922,1.7315648634127516,stand
23/10/2020, 15:16:22,8.689131,-2.1411476,2.9171338,0.8071284,-0.94691485,-1.0972555,9.412501076916922,1.658937491509482,stand
23/10/2020, 15:16:22,8.689131,-2.1411476,2.9171338,0.7240508,-0.92981064,-1.0300603,9.412501076916922,1.5651906036178838,stand
23/10/2020, 15:16:22,8.689131,-2.1411476,2.9171338,0.6226472,-0.9090412,-0.9579782,9.412501076916922,1.4600574402587605,stand
23/10/2020, 15:16:22,8.689131,-2.1411476,2.9171338,0.5322392,-0.87727624,-0.877344,9.412501076916922,1.3500461787865725,stand
23/10/2020, 15:16:22,8.689131,-2.1411476,2.9171338,0.45282674,-0.8418461,-0.80037504,9.412501076916922,1.246738600057359,stand
23/10/2020, 15:16:22,8.689131,-2.1411476,2.9171338,0.38929677,-0.79908556,-0.72829294,9.412501076916922,1.1491302418721316,stand
23/10/2020, 15:16:22,8.689131,-2.1411476,2.9171338,0.33554065,-0.75021636,-0.65987605,9.412501076916922,1.0539679895060312,stand
23/10/2020, 15:16:22,8.689131,-2.1411476,2.9171338,0.28422797,-0.69646025,-0.5890157,9.412501076916922,0.9553962184181253,stand
23/10/2020, 15:16:22,8.689131,-2.1411476,2.9171338,0.23535877,-0.64514756,-0.5218206,9.412501076916922,0.8624997815621905,stand
23/10/2020, 15:16:22,8.689131,-2.1411476,2.9171338,0.18648958,-0.59627837,-0.46195585,9.412501076916922,0.7770002967324623,stand
23/10/2020, 15:16:22,8.689131,-2.1411476,2.9171338,0.12906826,-0.5498526,-0.40575626,9.412501076916922,0.6954384612645265,stand
23/10/2020, 15:16:22,8.964559,-2.2704787,3.046465,0.12906826,-0.5498526,-0.40575626,9.736494906755157,0.6954384612645265,stand
23/10/2020, 15:16:22,9.204061,-2.315984,3.1925611,0.12906826,-0.5498526,-0.40575626,10.013538801178251,0.6954384612645265,stand
23/10/2020, 15:16:22,9.405242,-2.3830445,3.288362,0.12906826,-0.5498526,-0.40575626,10.244549880734702,0.6954384612645265,stand
23/10/2020, 15:16:22,9.565708,-2.4165747,3.3410523,0.12906826,-0.5498526,-0.40575626,10.416584680232862,0.6954384612645265,stand
23/10/2020, 15:16:22,9.72857,-2.4165747,3.4799635,0.12906826,-0.5498526,-0.40575626,10.61108163900974,0.6954384612645265,stand
23/10/2020, 15:16:22,9.814791,-2.435735,3.4847536,0.12906826,-0.5498526,-0.40575626,10.696094129679953,0.6954384612645265,stand
23/10/2020, 15:16:22,9.833951,-2.3471193,3.439248,0.12906826,-0.5498526,-0.40575626,10.679138015099623,0.6954384612645265,stand
23/10/2020, 15:16:22,9.934542,-2.1459377,3.293152,0.12906826,-0.5498526,-0.40575626,10.683867187456622,0.6954384612645265,stand
23/10/2020, 15:16:22,9.948912,-2.088457,3.163821,0.12906826,-0.5498526,-0.40575626,10.646701820340798,0.6954384612645265,stand
23/10/2020, 15:16:22,10.018367,-2.0285816,3.0009596,0.12906826,-0.5498526,-0.40575626,10.653101695216845,0.6954384612645265,stand
23/10/2020, 15:16:22,10.073453,-1.9782863,3.1422658,0.12906826,-0.5498526,-0.40575626,10.736009743600174,0.6954384612645265,stand
23/10/2020, 15:16:22,10.145303,-1.954336,3.3937428,0.12906826,-0.5498526,-0.40575626,10.874929329532927,0.6954384612645265,stand
23/10/2020, 15:16:22,10.193204,-1.9711012,3.7218604,0.12906826,-0.5498526,-0.40575626,11.029002265989245,0.6954384612645265,stand
23/10/2020, 15:16:22,10.205178,-2.0525317,4.006868,0.12906826,-0.5498526,-0.40575626,11.154081766138077,0.6954384612645265,stand
23/10/2020, 15:16:22,10.102193,-2.198628,4.26074,0.12906826,-0.5498526,-0.40575626,11.182225605287329,0.6954384612645265,stand
23/10/2020, 15:16:23,9.448353,-1.9184108,2.5459058,-0.23134209,0.057347216,0.013297152,9.971625107941708,0.23871464345225452,stand
23/10/2020, 15:16:23,9.297466,-1.949546,2.5411158,-0.23134209,0.057347216,0.013297152,9.833660459256768,0.23871464345225452,stand
23/10/2020, 15:16:23,9.297466,-1.949546,2.5411158,-0.24233766,0.059790675,0.030401373,9.833660459256768,0.25144921800725123,stand
23/10/2020, 15:16:23,9.18011,-1.9687061,2.4836354,-0.24233766,0.059790675,0.030401373,9.711779855431883,0.25144921800725123,stand
23/10/2020, 15:16:23,9.18011,-1.9687061,2.4836354,-0.2435594,0.042686455,0.046283863,9.711779855431883,0.2515661211700225,stand
23/10/2020, 15:16:23,9.036409,-2.0190015,2.4932153,-0.2435594,0.042686455,0.046283863,9.589013718006829,0.2515661211700225,stand
23/10/2020, 15:16:23,9.036409,-2.0190015,2.4932153,-0.23134209,0.018251857,0.058501165,9.589013718006829,0.2393212907955617,stand
23/10/2020, 15:16:23,9.0148535,-2.0405567,2.5842261,-0.23134209,0.018251857,0.058501165,9.597378779602861,0.2393212907955617,stand
23/10/2020, 15:16:23,9.0148535,-2.0405567,2.5842261,-0.2117944,-0.0037392848,0.068275,9.597378779602861,0.22255859448117266,stand
23/10/2020, 15:16:23,9.060359,-2.0573218,2.6297317,-0.2117944,-0.0037392848,0.068275,9.655991235632559,0.22255859448117266,stand
23/10/2020, 15:16:23,9.060359,-2.0573218,2.6297317,-0.19713365,-0.025730425,0.07316192,9.655991235632559,0.21184049622130538,stand
23/10/2020, 15:16:23,9.14658,-1.951941,2.682422,-0.19713365,-0.025730425,0.07316192,9.729613665274636,0.21184049622130538,stand
23/10/2020, 15:16:23,9.14658,-1.951941,2.682422,-0.19713365,-0.04772157,0.07560538,9.729613665274636,0.21646060927931426,stand
23/10/2020, 15:16:23,9.295072,-1.8274,2.6656568,-0.19713365,-0.04772157,0.07560538,9.840908135592207,0.21646060927931426,stand
23/10/2020, 15:16:23,9.295072,-1.8274,2.6656568,-0.22034653,-0.056273676,0.07804884,9.840908135592207,0.24043905533362497,stand
23/10/2020, 15:16:23,9.362132,-1.7387843,2.694397,-0.22034653,-0.056273676,0.07804884,9.896093313831946,0.24043905533362497,stand
23/10/2020, 15:16:23,9.362132,-1.7387843,2.694397,-0.2557767,-0.036725998,0.07560538,9.896093313831946,0.26923353063710664,stand
23/10/2020, 15:16:23,9.290281,-1.7723145,2.672842,-0.2557767,-0.036725998,0.07560538,9.82825060263026,0.26923353063710664,stand
23/10/2020, 15:16:23,9.290281,-1.7723145,2.672842,-0.28021127,-0.019621775,0.06216635,9.82825060263026,0.2876943257867956,stand
23/10/2020, 15:16:23,9.134604,-1.8489552,2.5938063,-0.28021127,-0.019621775,0.06216635,9.674061434808074,0.2876943257867956,stand
23/10/2020, 15:16:23,9.134604,-1.8489552,2.5938063,-0.29120684,-0.024508694,0.048727322,9.674061434808074,0.296270906059219,stand
23/10/2020, 15:16:23,9.005274,-1.8776954,2.5962012,-0.29120684,-0.024508694,0.048727322,9.558292593296224,0.296270906059219,stand
23/10/2020, 15:16:23,9.005274,-1.8776954,2.5962012,-0.28631997,-0.053830218,0.03773175,9.558292593296224,0.2937694729875608,stand
23/10/2020, 15:16:23,8.969349,-1.8992506,2.5985963,-0.28631997,-0.053830218,0.03773175,9.529379606034443,0.2937694729875608,stand
23/10/2020, 15:16:23,8.969349,-1.8992506,2.5985963,-0.2692157,-0.08803865,0.029179644,9.529379606034443,0.2847443604497777,stand
23/10/2020, 15:16:23,9.012459,-2.0285816,2.6584718,-0.2692157,-0.08803865,0.029179644,9.612857507676187,0.2847443604497777,stand
23/10/2020, 15:16:23,9.012459,-2.0285816,2.6584718,-0.23500729,-0.11247326,0.018184073,9.612857507676187,0.26116913780543305,stand
23/10/2020, 15:16:23,9.062755,-2.083667,2.7830129,-0.23500729,-0.11247326,0.018184073,9.706716770013935,0.26116913780543305,stand
23/10/2020, 15:16:23,9.062755,-2.083667,2.7830129,-0.1824729,-0.12713403,0.012075421,9.706716770013935,0.2227223276004595,stand
23/10/2020, 15:16:23,9.091495,-2.1148024,2.914739,-0.1824729,-0.12713403,0.012075421,9.778720017484956,0.2227223276004595,stand
23/10/2020, 15:16:24,9.290281,0.011975098,2.9794044,-0.9533845,0.14775524,-0.17484927,9.756347719875158,0.9804824923417619,stand
23/10/2020, 15:16:24,9.17053,-0.13651612,2.9219239,-0.9533845,0.14775524,-0.17484927,9.625741640193578,0.9804824923417619,stand
23/10/2020, 15:16:24,9.17053,-0.13651612,2.9219239,-0.9900364,0.13920313,-0.15652332,9.625741640193578,1.0119531556589134,stand
23/10/2020, 15:16:24,9.108259,-0.25866213,2.7590625,-0.9900364,0.13920313,-0.15652332,9.520489368203007,1.0119531556589134,stand
23/10/2020, 15:16:24,9.108259,-0.25866213,2.7590625,-1.0181363,0.11232507,-0.14674948,9.520489368203007,1.0347723334248449,stand
23/10/2020, 15:16:24,9.158555,-0.366438,2.663262,-1.0181363,0.11232507,-0.14674948,9.544965738984724,1.0347723334248449,stand
23/10/2020, 15:16:24,9.158555,-0.366438,2.663262,-1.046236,0.085447006,-0.12964526,9.544965738984724,1.0576951032494526,stand
23/10/2020, 15:16:24,9.314231,-0.4622388,2.6129665,-1.046236,0.085447006,-0.12964526,9.684841580219977,1.0576951032494526,stand
23/10/2020, 15:16:24,9.314231,-0.4622388,2.6129665,-1.0743358,0.07200798,-0.11864969,9.684841580219977,1.0832637435768881,stand
23/10/2020, 15:16:24,9.407638,-0.5891748,2.574646,-1.0743358,0.07200798,-0.11864969,9.771365006927905,1.0832637435768881,stand
23/10/2020, 15:16:24,9.407638,-0.5891748,2.574646,-1.0853313,0.06712106,-0.116206236,9.771365006927905,1.0935964528461461,stand
23/10/2020, 15:16:24,9.424402,-0.68976563,2.6393116,-1.0853313,0.06712106,-0.116206236,9.81127410786603,1.0935964528461461,stand
23/10/2020, 15:16:24,9.424402,-0.68976563,2.6393116,-1.0767792,0.06589933,-0.116206236,9.81127410786603,1.0850346335518313,stand
23/10/2020, 15:16:24,9.393267,-0.8382569,2.7063723,-1.0767792,0.06589933,-0.116206236,9.811247847222026,1.0850346335518313,stand
23/10/2020, 15:16:24,9.393267,-0.8382569,2.7063723,-1.0743358,0.06956452,-0.107654124,9.811247847222026,1.0819547464490753,stand
23/10/2020, 15:16:24,9.295072,-0.90771246,2.7422974,-1.0743358,0.06956452,-0.107654124,9.733575554917124,1.0819547464490753,stand
23/10/2020, 15:16:24,9.295072,-0.90771246,2.7422974,-1.0608968,0.07567317,-0.08932817,9.733575554917124,1.0673368136863166,stand
23/10/2020, 15:16:24,9.311836,-0.9364527,2.8596535,-1.0608968,0.07567317,-0.08932817,9.785951963405063,1.0673368136863166,stand
23/10/2020, 15:16:24,9.311836,-0.9364527,2.8596535,-1.0389056,0.08300355,-0.08444125,9.785951963405063,1.0456312939801224,stand
23/10/2020, 15:16:24,9.242381,-1.0322535,2.8357031,-1.0389056,0.08300355,-0.08444125,9.722570024686009,1.0456312939801224,stand
23/10/2020, 15:16:24,9.242381,-1.0322535,2.8357031,-1.014471,0.08178182,-0.08321952,9.722570024686009,1.0211587898992562,stand
23/10/2020, 15:16:24,9.216036,-1.0322535,2.924319,-1.014471,0.08178182,-0.08321952,9.72381127625175,1.0211587898992562,stand
23/10/2020, 15:16:24,9.216036,-1.0322535,2.924319,-0.9729322,0.06834279,-0.073445685,9.72381127625175,0.9780910537231184,stand
23/10/2020, 15:16:24,9.24717,-1.1807446,2.9817994,-0.9729322,0.06834279,-0.073445685,9.787514836330647,0.9780910537231184,stand
23/10/2020, 15:16:24,9.24717,-1.1807446,2.9817994,-0.937502,0.050016835,-0.06489357,9.787514836330647,0.9410754005399145,stand
23/10/2020, 15:16:24,9.302257,-1.2430152,3.1302907,-0.937502,0.050016835,-0.06489357,9.893219113594178,0.9410754005399145,stand
23/10/2020, 15:16:24,9.302257,-1.2430152,3.1302907,-0.91062397,0.034134343,-0.05878492,9.893219113594178,0.9131576155016865,stand
23/10/2020, 15:16:57,9.383687,-1.2669654,3.3578174,-0.91062397,0.034134343,-0.05878492,10.046577583590256,0.9131576155016865,stand
23/10/2020, 15:16:57,9.383687,-1.2669654,3.3578174,-0.88863283,0.047573376,-0.038015507,10.046577583590256,0.890716968806008,stand
23/10/2020, 15:16:57,9.347761,-1.2741505,3.4727786,-0.88863283,0.047573376,-0.038015507,10.05307360893114,0.890716968806008,stand
23/10/2020, 15:16:57,9.347761,-1.2741505,3.4727786,-0.8641982,0.08178182,-1.4187838E-4,10.05307360893114,0.8680592310345525,stand
23/10/2020, 15:16:57,9.362132,-1.1951149,3.5709743,-0.8641982,0.08178182,-1.4187838E-4,10.091069034410205,0.8680592310345525,stand
23/10/2020, 15:16:57,9.362132,-1.1951149,3.5709743,-0.85808957,0.1257641,0.0010798516,10.091069034410205,0.8672574468063634,stand
23/10/2020, 15:16:57,9.299861,-1.1663746,3.6045046,-0.85808957,0.1257641,0.0010798516,10.041926941487759,0.8672574468063634,stand
23/10/2020, 15:16:57,9.299861,-1.1663746,3.6045046,-0.8507592,0.15508562,-0.016024368,10.041926941487759,0.8649274890130767,stand
23/10/2020, 15:16:57,9.053174,-1.1567944,3.5901344,-0.8507592,0.15508562,-0.016024368,9.8075072291036,0.8649274890130767,stand
23/10/2020, 15:16:57,9.053174,-1.1567944,3.5901344,-0.8128856,0.16974638,-0.009915719,9.8075072291036,0.8304788537459646,stand
23/10/2020, 15:16:57,8.964559,-1.3076807,3.6092947,-0.8128856,0.16974638,-0.009915719,9.751940714062219,0.8304788537459646,stand
23/10/2020, 15:16:57,8.964559,-1.3076807,3.6092947,-0.7310296,0.1990679,0.010853692,9.751940714062219,0.7577269647817271,stand
23/10/2020, 15:16:57,9.081915,-1.4944923,3.6236646,-0.7310296,0.1990679,0.010853692,9.891695039515863,0.7577269647817271,stand
23/10/2020, 15:16:57,9.081915,-1.4944923,3.6236646,-0.6100784,0.22838943,0.0035233118,9.891695039515863,0.6514367133122898,stand
23/10/2020, 15:16:57,9.038804,-1.6621436,3.4871485,-0.6100784,0.22838943,0.0035233118,9.829695054396563,0.6514367133122898,stand
