DATE,TIME,ax,ay,az,gx,gy,gz,ma,mg,label
23/10/2020, 15:57:08,0.31853762,1.6286134,10.875784,0.41989285,0.7401339,1.8553567,11.001660036135679,2.041190002256902,jump
23/10/2020, 15:57:08,1.0011182,1.0226734,10.698553,0.41989285,0.7401339,1.8553567,10.793847161911899,2.041190002256902,jump
23/10/2020, 15:57:08,1.0011182,1.0226734,10.698553,0.83161587,0.8097725,1.7527313,10.793847161911899,2.102232985825988,jump
23/10/2020, 15:57:08,1.2070899,1.2717555,11.273357,0.83161587,0.8097725,1.7527313,11.408900685189392,2.102232985825988,jump
23/10/2020, 15:57:08,1.2070899,1.2717555,11.273357,1.2176825,0.85253304,1.6806493,11.408900685189392,2.2436900892770204,jump
23/10/2020, 15:57:08,1.1304493,1.3843213,10.083033,1.2176825,0.85253304,1.6806493,10.24020545367501,2.2436900892770204,jump
23/10/2020, 15:57:08,1.1304493,1.3843213,10.083033,1.2298998,0.8513113,1.5535893,10.24020545367501,2.156623345261271,jump
23/10/2020, 15:57:08,1.9136207,1.83219,10.360855,1.2298998,0.8513113,1.5535893,10.694212594194612,2.156623345261271,jump
23/10/2020, 15:57:08,1.9136207,1.83219,10.360855,0.96844965,1.0871053,1.3544474,10.694212594194612,1.9885221321534141,jump
23/10/2020, 15:57:08,-1.7483643,1.1136842,13.570181,0.96844965,1.0871053,1.3544474,13.727595555752707,1.9885221321534141,jump
23/10/2020, 15:57:08,-1.7483643,1.1136842,13.570181,0.77785975,0.6570563,1.2823653,13.727595555752707,1.6374521521596723,jump
23/10/2020, 15:57:08,2.5530908,2.562671,18.386566,0.77785975,0.6570563,1.2823653,18.739033334187408,1.6374521521596723,jump
23/10/2020, 15:57:08,2.5530908,2.562671,18.386566,0.79740745,0.3296326,1.2420481,18.739033334187408,1.5123491293616058,jump
23/10/2020, 15:57:08,3.8487966,2.1435425,18.89431,0.79740745,0.3296326,1.2420481,19.401107189247973,1.5123491293616058,jump
23/10/2020, 15:57:08,3.8487966,2.1435425,18.89431,0.7167733,0.21356827,1.156527,19.401107189247973,1.3772908656633187,jump
23/10/2020, 15:57:08,3.1446607,1.1903248,21.159998,0.7167733,0.21356827,1.156527,21.42548195262851,1.3772908656633187,jump
23/10/2020, 15:57:08,3.1446607,1.1903248,21.159998,0.7228819,0.3418499,1.0661191,21.42548195262851,1.3326775647842006,jump
23/10/2020, 15:57:08,-0.86220706,0.13891114,18.003363,0.7228819,0.3418499,1.0661191,18.024532288577277,1.3326775647842006,jump
23/10/2020, 15:57:08,-0.86220706,0.13891114,18.003363,0.8682678,0.5397702,0.88652474,18.024532288577277,1.3532061524828771,jump
23/10/2020, 15:57:08,-1.4849122,0.033530276,6.758745,0.8682678,0.5397702,0.88652474,6.920023481464204,1.3532061524828771,jump
23/10/2020, 15:57:08,-1.4849122,0.033530276,6.758745,1.0258709,0.28320685,0.7606866,6.920023481464204,1.30815187590444,jump
23/10/2020, 15:57:08,5.47741,1.4322218,8.023315,1.0258709,0.28320685,0.7606866,9.819718337855786,1.30815187590444,jump
23/10/2020, 15:57:08,5.47741,1.4322218,8.023315,0.86704606,-0.12607269,0.60063994,9.819718337855786,1.0622765773706737,jump
23/10/2020, 15:57:08,5.2905984,1.7818946,19.799627,0.86704606,-0.12607269,0.60063994,20.57160229467777,1.0622765773706737,jump
23/10/2020, 15:57:08,5.2905984,1.7818946,19.799627,0.50663567,0.16103387,0.39294583,20.57160229467777,0.6610733900753656,jump
23/10/2020, 15:57:08,-1.9064356,0.16765137,11.196717,0.50663567,0.16103387,0.39294583,11.359096846309342,0.6610733900753656,jump
23/10/2020, 15:57:08,-1.9064356,0.16765137,11.196717,0.7069994,0.088951804,0.3025378,11.359096846309342,0.7741380526785521,jump
23/10/2020, 15:57:08,3.1422658,1.468147,2.1531227,0.7069994,0.088951804,0.3025378,4.082306611497334,0.7741380526785521,jump
23/10/2020, 15:57:08,3.1422658,1.468147,2.1531227,0.27695045,-0.31177565,0.2658859,4.082306611497334,0.49457144689891813,jump
23/10/2020, 15:57:08,6.375542,2.43813,15.517332,0.27695045,-0.31177565,0.2658859,16.952274481325414,0.49457144689891813,jump
23/10/2020, 15:57:09,2.3926246,-1.1735597,10.796748,-0.24717176,-0.07231656,-0.259458,11.120776308507399,0.3655708136162461,jump
23/10/2020, 15:57:09,2.1650977,-0.9651929,10.545272,-0.24717176,-0.07231656,-0.259458,10.808422843116972,0.3655708136162461,jump
23/10/2020, 15:57:09,2.1650977,-0.9651929,10.545272,-0.2618325,-0.09797289,-0.24846245,10.808422843116972,0.3740167634214949,jump
23/10/2020, 15:57:09,1.8657203,-0.977168,10.133328,-0.2618325,-0.09797289,-0.24846245,10.349884767877462,0.3740167634214949,jump
23/10/2020, 15:57:09,1.8657203,-0.977168,10.133328,-0.25205866,-0.10163808,-0.24601899,10.349884767877462,0.36659133716279496,jump
23/10/2020, 15:57:09,1.8058448,-1.1879297,9.798025,-0.25205866,-0.10163808,-0.24601899,10.033620928905222,0.36659133716279496,jump
23/10/2020, 15:57:09,1.8058448,-1.1879297,9.798025,-0.24350655,-0.08453386,-0.24846245,10.033620928905222,0.3580153698144845,jump
23/10/2020, 15:57:09,1.8274,-1.4897022,9.438772,-0.24350655,-0.08453386,-0.24846245,9.728772997555659,0.3580153698144845,jump
23/10/2020, 15:57:09,1.8274,-1.4897022,9.438772,-0.22151542,-0.051547155,-0.2582363,9.728772997555659,0.3441106946143337,jump
23/10/2020, 15:57:09,1.9399658,-1.705254,9.275911,-0.22151542,-0.051547155,-0.2582363,9.6288051991931,0.3441106946143337,jump
23/10/2020, 15:57:09,1.9399658,-1.705254,9.275911,-0.17753313,-0.016116982,-0.27411878,9.6288051991931,0.3269845213825503,jump
23/10/2020, 15:57:09,1.9208057,-1.5423926,9.208851,-0.17753313,-0.016116982,-0.27411878,9.532649351031385,0.3269845213825503,jump
23/10/2020, 15:57:09,1.9208057,-1.5423926,9.208851,-0.123777024,0.022978378,-0.27167532,9.532649351031385,0.2994265124012588,jump
23/10/2020, 15:57:09,1.9327809,-1.2765454,9.290281,-0.123777024,0.022978378,-0.27167532,9.57468206190787,0.2994265124012588,jump
23/10/2020, 15:57:09,1.9327809,-1.2765454,9.290281,-0.073686086,0.05596509,-0.2582363,9.57468206190787,0.2743131628185656,jump
23/10/2020, 15:57:09,1.8489552,-1.2478052,9.376502,-0.073686086,0.05596509,-0.2582363,9.638176358898528,0.2743131628185656,jump
23/10/2020, 15:57:09,1.8489552,-1.2478052,9.376502,-0.037034184,0.06696066,-0.24724072,9.638176358898528,0.25881119721800055,jump
23/10/2020, 15:57:09,1.6860938,-1.1472144,9.613608,-0.037034184,0.06696066,-0.24724072,9.827536768716612,0.25881119721800055,jump
23/10/2020, 15:57:09,1.6860938,-1.1472144,9.613608,-0.016264774,0.076734506,-0.23257996,9.827536768716612,0.24545094351544822,jump
23/10/2020, 15:57:09,1.4226416,-1.0681788,9.604029,-0.016264774,0.076734506,-0.23257996,9.767409196765286,0.24545094351544822,jump
23/10/2020, 15:57:09,1.4226416,-1.0681788,9.604029,-0.050473217,0.09139527,-0.20448017,9.767409196765286,0.2295926408963416,jump
23/10/2020, 15:57:09,1.1543995,-0.80233157,9.503438,-0.050473217,0.09139527,-0.20448017,9.60685733856812,0.2295926408963416,jump
23/10/2020, 15:57:09,1.1543995,-0.80233157,9.503438,-0.12255529,0.10605603,-0.17149346,9.60685733856812,0.23596119624999712,jump
23/10/2020, 15:57:09,1.0753639,-0.8095166,9.158555,-0.12255529,0.10605603,-0.17149346,9.25693550019849,0.23596119624999712,jump
23/10/2020, 15:57:09,1.0753639,-0.8095166,9.158555,-0.22273715,0.13904274,-0.13850674,9.25693550019849,0.2968650140729448,jump
23/10/2020, 15:57:09,1.3507911,-1.3196558,8.686736,-0.22273715,0.13904274,-0.13850674,8.889629471723008,0.2968650140729448,jump
23/10/2020, 15:57:09,1.3507911,-1.3196558,8.686736,-0.29604095,0.20012924,-0.13117637,8.889629471723008,0.38065627244446615,jump
23/10/2020, 15:57:09,1.83219,-1.7627344,8.418494,-0.29604095,0.20012924,-0.13117637,8.794043322095877,0.38065627244446615,jump
23/10/2020, 15:57:09,1.83219,-1.7627344,8.418494,-0.30459306,0.2770982,-0.14950232,8.794043322095877,0.4380768101419404,jump
23/10/2020, 15:57:09,2.208208,-1.9112257,8.62207,-0.30459306,0.2770982,-0.14950232,9.103244641503354,0.4380768101419404,jump
23/10/2020, 15:57:10,-1.3507911,-5.0582814,6.9862723,-1.2587643,1.2300476,2.5480776,8.730340695937024,3.096805435969156,jump
23/10/2020, 15:57:10,-1.587898,-5.5229154,6.75156,-1.2587643,1.2300476,2.5480776,8.866091557425774,3.096805435969156,jump
23/10/2020, 15:57:10,-1.587898,-5.5229154,6.75156,-1.336955,1.2141651,2.6201596,8.866091557425774,3.182276210038843,jump
23/10/2020, 15:57:10,-1.710044,-5.7767873,6.437813,-1.336955,1.2141651,2.6201596,8.817083167180012,3.182276210038843,jump
23/10/2020, 15:57:10,-1.710044,-5.7767873,6.437813,-1.4554628,1.2434866,2.7288935,8.817083167180012,3.3333902962399353,jump
23/10/2020, 15:57:10,-1.6836988,-5.9300685,6.0498195,-1.4554628,1.2434866,2.7288935,8.63717948770396,3.3333902962399353,jump
23/10/2020, 15:57:10,-1.6836988,-5.9300685,6.0498195,-1.6656004,1.2947993,2.844958,8.63717948770396,3.5418238886160935,jump
23/10/2020, 15:57:10,-1.6884888,-6.310877,5.647456,-1.6656004,1.2947993,2.844958,8.635503593765424,3.5418238886160935,jump
23/10/2020, 15:57:10,-1.6884888,-6.310877,5.647456,-2.091984,1.3644379,2.9390311,8.635503593765424,3.8569407606578765,jump
23/10/2020, 15:57:10,-1.6070582,-6.167176,4.8044095,-2.091984,1.3644379,2.9390311,7.981168060552989,3.8569407606578765,jump
23/10/2020, 15:57:10,-1.6070582,-6.167176,4.8044095,-2.5867846,1.4194158,2.9769049,7.981168060552989,4.191438711888169,jump
23/10/2020, 15:57:10,-1.9208057,-5.46304,4.24637,-2.5867846,1.4194158,2.9769049,7.180943948557354,4.191438711888169,jump
23/10/2020, 15:57:10,-1.9208057,-5.46304,4.24637,-3.0095034,1.4585111,3.0441,7.180943948557354,4.5222682651902755,jump
23/10/2020, 15:57:10,-2.3614893,-5.336104,4.026028,-3.0095034,1.4585111,3.0441,7.08939626584947,4.5222682651902755,jump
23/10/2020, 15:57:10,-2.3614893,-5.336104,4.026028,-3.385796,1.5049369,3.1430602,7.08939626584947,4.85873210511708,jump
23/10/2020, 15:57:10,-2.6153615,-5.5803957,3.9924977,-3.385796,1.5049369,3.1430602,7.3430899097620035,4.85873210511708,jump
23/10/2020, 15:57:10,-2.6153615,-5.5803957,3.9924977,-3.6729026,1.5672451,3.2261376,7.3430899097620035,5.133657052850076,jump
23/10/2020, 15:57:10,-2.9961696,-5.865403,4.2128396,-3.6729026,1.5672451,3.2261376,7.8184399983945765,5.133657052850076,jump
23/10/2020, 15:57:10,-2.9961696,-5.865403,4.2128396,-3.7975192,1.6271099,3.315324,7.8184399983945765,5.297170224037258,jump
23/10/2020, 15:57:10,-3.4464333,-6.1959157,4.9457154,-3.7975192,1.6271099,3.315324,8.644499694540102,5.297170224037258,jump
23/10/2020, 15:57:10,-3.4464333,-6.1959157,4.9457154,-3.7816367,1.6649835,3.415506,8.644499694540102,5.360841985489301,jump
23/10/2020, 15:57:10,-3.755391,-6.6270194,5.352869,-3.7816367,1.6649835,3.415506,9.309863252086354,5.360841985489301,jump
23/10/2020, 15:57:10,-3.755391,-6.6270194,5.352869,-3.6973374,1.6918616,3.5181313,9.309863252086354,5.376797102043211,jump
23/10/2020, 15:57:10,-3.9326222,-7.1132083,5.609136,-3.6973374,1.6918616,3.5181313,9.87550795632238,5.376797102043211,jump
23/10/2020, 15:57:10,-3.9326222,-7.1132083,5.609136,-3.6325855,1.6955267,3.577996,9.87550795632238,5.373317777928841,jump
23/10/2020, 15:57:10,-4.150569,-7.561077,5.8965383,-3.6325855,1.6955267,3.577996,10.448266522040093,5.373317777928841,jump
23/10/2020, 15:57:10,-4.150569,-7.561077,5.8965383,-3.594712,1.6662053,3.6207566,10.448266522040093,5.367315260288018,jump
23/10/2020, 15:57:10,-4.3254056,-7.774234,6.0665846,-3.594712,1.6662053,3.6207566,10.768068238764208,5.367315260288018,jump
23/10/2020, 15:57:10,-4.3254056,-7.774234,6.0665846,-3.5922685,1.6014535,3.631752,10.768068238764208,5.353379202004294,jump
23/10/2020, 15:57:10,-4.5481424,-8.361013,6.310877,-3.5922685,1.6014535,3.631752,11.420127470624044,5.353379202004294,jump
23/10/2020, 15:57:11,-6.70366,-2.543511,0.90771246,-0.4035532,-0.13340306,0.25977725,7.227201894585847,0.49813228275322163,jump
23/10/2020, 15:57:11,-6.70366,-2.543511,0.90771246,-0.4573093,-0.12607269,0.4247108,7.227201894585847,0.636714532953591,jump
23/10/2020, 15:57:11,-6.847361,-2.572251,0.7209009,-0.4573093,-0.12607269,0.4247108,7.35000187691434,0.636714532953591,jump
23/10/2020, 15:57:11,-6.847361,-2.572251,0.7209009,-0.49640465,-0.11141192,0.58231395,7.35000187691434,0.7732526965143883,jump
23/10/2020, 15:57:11,-6.847361,-2.572251,0.7209009,-0.50373507,-0.09064251,0.749691,7.35000187691434,0.9077453887985575,jump
23/10/2020, 15:57:11,-7.1132083,-2.6201515,0.7496411,-0.50373507,-0.09064251,0.749691,7.617406909745912,0.9077453887985575,jump
23/10/2020, 15:57:11,-7.5706573,-2.560276,0.9364527,-0.50373507,-0.09064251,0.749691,8.046540140858868,0.9077453887985575,jump
23/10/2020, 15:57:11,-7.5706573,-2.560276,0.9364527,-0.47930044,-0.07476002,0.92195493,8.046540140858868,1.0417863813475707,jump
23/10/2020, 15:57:11,-8.049661,-2.6345215,1.0178833,-0.47930044,-0.07476002,0.92195493,8.530757702097652,1.0417863813475707,jump
23/10/2020, 15:57:11,-8.049661,-2.6345215,1.0178833,-0.45486584,-0.07109483,1.0795581,8.530757702097652,1.1736282100225026,jump
23/10/2020, 15:57:11,-8.62207,-2.5962012,1.1232642,-0.45486584,-0.07109483,1.0795581,9.074253660579204,1.1736282100225026,jump
23/10/2020, 15:57:11,-8.62207,-2.5962012,1.1232642,-0.4206574,-0.07964694,1.2359395,9.074253660579204,1.3079918708121951,jump
23/10/2020, 15:57:11,-9.2184305,-2.5099807,1.4729371,-0.4206574,-0.07964694,1.2359395,9.666902707885074,1.3079918708121951,jump
23/10/2020, 15:57:11,-9.2184305,-2.5099807,1.4729371,-0.3803403,-0.10163808,1.387434,9.666902707885074,1.4422073946448246,jump
23/10/2020, 15:57:11,-9.608819,-2.3614893,1.6573536,-0.3803403,-0.10163808,1.387434,10.03258967105239,1.4422073946448246,jump
23/10/2020, 15:57:11,-9.608819,-2.3614893,1.6573536,-0.3388015,-0.13706826,1.5291548,10.03258967105239,1.5722240613843224,jump
23/10/2020, 15:57:11,-10.063872,-2.203418,1.8944606,-0.3388015,-0.13706826,1.5291548,10.474996810817798,1.5722240613843224,jump
23/10/2020, 15:57:11,-10.063872,-2.203418,1.8944606,-0.2948192,-0.18715918,1.6708754,10.474996810817798,1.7069773361295748,jump
23/10/2020, 15:57:11,-10.219549,-1.9351759,2.2393434,-0.2948192,-0.18715918,1.6708754,10.639490121961954,1.7069773361295748,jump
23/10/2020, 15:57:11,-10.219549,-1.9351759,2.2393434,-0.24717176,-0.23847185,1.8187047,10.639490121961954,1.8508510411651387,jump
23/10/2020, 15:57:11,-10.109378,-1.6597486,2.327959,-0.24717176,-0.23847185,1.8187047,10.505887843888267,1.8508510411651387,jump
23/10/2020, 15:57:11,-10.109378,-1.6597486,2.327959,-0.18608524,-0.25557607,1.9787514,10.505887843888267,2.0038473075229977,jump
23/10/2020, 15:57:11,-9.814791,-1.1855347,2.0190015,-0.18608524,-0.25557607,1.9787514,10.090192096462836,2.0038473075229977,jump
23/10/2020, 15:57:11,-9.814791,-1.1855347,2.0190015,-0.13721605,-0.21892416,2.115585,10.090192096462836,2.1313038969094285,jump
23/10/2020, 15:57:11,-9.498648,-0.9148975,1.8369801,-0.13721605,-0.21892416,2.115585,9.717810518714375,2.1313038969094285,jump
23/10/2020, 15:57:11,-9.498648,-0.9148975,1.8369801,-0.10422934,-0.16028112,2.21088,9.717810518714375,2.2191314402743534,jump
23/10/2020, 15:57:11,-9.457932,-0.7041358,1.6860938,-0.10422934,-0.16028112,2.21088,9.632819222139648,2.2191314402743534,jump
23/10/2020, 15:57:11,-9.457932,-0.7041358,1.6860938,-0.1066728,-0.09675116,2.2756317,9.632819222139648,2.2801840613788085,jump
23/10/2020, 15:57:11,-9.616004,-0.70174074,1.5495777,-0.1066728,-0.09675116,2.2756317,9.765304086217625,2.2801840613788085,jump
23/10/2020, 15:57:11,-9.616004,-0.70174074,1.5495777,-0.08956858,-0.039329853,2.297623,9.765304086217625,2.2997044257330317,jump
23/10/2020, 15:57:12,2.8931837,1.2621753,0.7376661,-0.31558862,0.24533324,0.35751563,3.2415659399824226,0.536285376860764,jump
23/10/2020, 15:57:12,2.8931837,1.2621753,0.7376661,-0.30092788,0.20745961,0.42593253,3.2415659399824226,0.5612625018000238,jump
23/10/2020, 15:57:12,2.7159522,0.86220706,0.80233157,-0.30092788,0.20745961,0.42593253,2.9603265146527145,0.5612625018000238,jump
23/10/2020, 15:57:12,2.7159522,0.86220706,0.80233157,-0.24717176,0.18913366,0.47480172,2.9603265146527145,0.5677165597898756,jump
23/10/2020, 15:57:12,2.5914114,0.49576905,0.8286768,-0.24717176,0.18913366,0.47480172,2.7654845908757997,0.5677165597898756,jump
23/10/2020, 15:57:12,2.5914114,0.49576905,0.8286768,-0.15798545,0.18058155,0.51389706,2.7654845908757997,0.567150147341696,jump
23/10/2020, 15:57:12,2.323169,0.19160157,0.9915381,-0.15798545,0.18058155,0.51389706,2.533174520588037,0.567150147341696,jump
23/10/2020, 15:57:12,2.323169,0.19160157,0.9915381,-0.021151695,0.1744729,0.55177075,2.533174520588037,0.5790847462702557,jump
23/10/2020, 15:57:12,2.1363575,-0.033530276,0.98914313,-0.021151695,0.1744729,0.55177075,2.3544748843495173,0.5790847462702557,jump
23/10/2020, 15:57:12,2.1363575,-0.033530276,0.98914313,0.14378186,0.17325118,0.5920878,2.3544748843495173,0.6334486271113854,jump
23/10/2020, 15:57:12,1.9375709,-0.098195806,1.1304493,0.14378186,0.17325118,0.5920878,2.2453817341287805,0.6334486271113854,jump
23/10/2020, 15:57:12,1.9375709,-0.098195806,1.1304493,0.3074937,0.15736869,0.6360701,2.2453817341287805,0.7238110314090233,jump
23/10/2020, 15:57:12,1.6765138,-0.20118165,1.2094849,0.3074937,0.15736869,0.6360701,2.0770234364547466,0.7238110314090233,jump
23/10/2020, 15:57:12,1.6765138,-0.20118165,1.2094849,0.43333188,0.112164676,0.66661334,2.0770234364547466,0.8029512910337517,jump
23/10/2020, 15:57:12,1.5543678,-0.28979737,1.1567944,0.43333188,0.112164676,0.66661334,1.9591363049417956,0.8029512910337517,jump
23/10/2020, 15:57:12,1.5543678,-0.28979737,1.1567944,0.4956401,0.06085201,0.6763872,1.9591363049417956,0.8407506805145752,jump
23/10/2020, 15:57:12,1.334026,-0.3424878,0.91729254,0.4956401,0.06085201,0.6763872,1.6547957002249263,0.8407506805145752,jump
23/10/2020, 15:57:12,1.334026,-0.3424878,0.91729254,0.50907916,0.02908703,0.68371755,1.6547957002249263,0.8529228167322416,jump
23/10/2020, 15:57:12,1.1687696,-0.50534916,0.7041358,0.50907916,0.02908703,0.68371755,1.4550626572087186,0.8529228167322416,jump
23/10/2020, 15:57:12,1.1687696,-0.50534916,0.7041358,0.49197492,0.020534918,0.68371755,1.4550626572087186,0.842573849220311,jump
23/10/2020, 15:57:12,0.90771246,-0.58198977,0.53169435,0.49197492,0.020534918,0.68371755,1.2022282980460712,0.842573849220311,jump
23/10/2020, 15:57:12,0.90771246,-0.58198977,0.53169435,0.49441838,0.011982808,0.672722,1.2022282980460712,0.834953884864859,jump
23/10/2020, 15:57:12,0.57719976,-0.7185059,0.57719976,0.49441838,0.011982808,0.672722,1.087460286538972,0.834953884864859,jump
23/10/2020, 15:57:12,0.57719976,-0.7185059,0.57719976,0.48953146,0.03153049,0.6531743,1.087460286538972,0.8168671011958899,jump
23/10/2020, 15:57:12,0.16765137,-0.859812,0.7831714,0.48953146,0.03153049,0.6531743,1.1750494285786328,0.8168671011958899,jump
23/10/2020, 15:57:12,0.16765137,-0.859812,0.7831714,0.4467709,0.04741298,0.6262962,1.1750494285786328,0.7707783024376018,jump
23/10/2020, 15:57:12,-0.37122804,-0.9196875,1.1232642,0.4467709,0.04741298,0.6262962,1.4984518079710454,0.7707783024376018,jump
23/10/2020, 15:57:12,-0.37122804,-0.9196875,1.1232642,0.3698019,0.06085201,0.5835357,1.4984518079710454,0.6935202220564087,jump
23/10/2020, 15:57:12,-1.1591895,-1.096919,1.4489869,0.3698019,0.06085201,0.5835357,2.155577503563448,0.6935202220564087,jump
23/10/2020, 15:57:12,-1.1591895,-1.096919,1.4489869,0.27328524,0.044969518,0.5627663,2.155577503563448,0.6272264372311759,jump
23/10/2020, 15:57:13,3.6883302,-1.4753321,0.35925296,1.5292237,0.021756649,-0.6406378,3.988664824679558,1.6581360700416208,jump
23/10/2020, 15:57:13,5.4366946,-0.9963282,-0.10777588,1.5292237,0.021756649,-0.6406378,5.528284895559108,1.6581360700416208,jump
23/10/2020, 15:57:13,5.4366946,-0.9963282,-0.10777588,1.4925717,0.06085201,-0.7432631,5.528284895559108,1.6685063244697984,jump
23/10/2020, 15:57:13,6.1815457,-0.6586304,-0.7592212,1.4925717,0.06085201,-0.7432631,6.262724523479774,1.6685063244697984,jump
23/10/2020, 15:57:13,6.1815457,-0.6586304,-0.7592212,1.4473678,0.24166806,-0.79701924,6.262724523479774,1.669885216838041,jump
23/10/2020, 15:57:13,5.7696023,-0.11256592,-0.7232959,1.4473678,0.24166806,-0.79701924,5.815852368308612,1.669885216838041,jump
23/10/2020, 15:57:13,5.7696023,-0.11256592,-0.7232959,1.3813943,0.42859274,-0.7725846,5.815852368308612,1.639764876384156,jump
23/10/2020, 15:57:13,4.1002736,0.5125342,-0.38559815,1.3813943,0.42859274,-0.7725846,4.150135047541235,1.639764876384156,jump
23/10/2020, 15:57:13,4.1002736,0.5125342,-0.38559815,1.2567779,0.44081002,-0.671181,4.150135047541235,1.491404737098407,jump
23/10/2020, 15:57:13,2.430945,1.1639795,-0.07185059,1.2567779,0.44081002,-0.671181,2.6962017833317824,1.491404737098407,jump
23/10/2020, 15:57:13,2.430945,1.1639795,-0.07185059,1.0466403,0.30764148,-0.535569,2.6962017833317824,1.2152914523012421,jump
23/10/2020, 15:57:13,1.5040723,1.4322218,-0.27542725,1.0466403,0.30764148,-0.535569,2.0950782514681365,1.2152914523012421,jump
23/10/2020, 15:57:13,1.5040723,1.4322218,-0.27542725,0.7680859,0.13049063,-0.41095254,2.0950782514681365,0.8808324123019436,jump
23/10/2020, 15:57:13,1.4489869,1.2765454,-0.49337405,0.7680859,0.13049063,-0.41095254,1.9931254667723903,0.8808324123019436,jump
23/10/2020, 15:57:13,1.4489869,1.2765454,-0.49337405,0.5359572,0.0022089682,-0.30954894,1.9931254667723903,0.6189309873513212,jump
23/10/2020, 15:57:13,1.5328126,0.5843848,-0.7664063,0.5359572,0.0022089682,-0.30954894,1.8106348773159047,0.6189309873513212,jump
23/10/2020, 15:57:13,1.5328126,0.5843848,-0.7664063,0.4455492,-0.045438502,-0.22891477,1.8106348773159047,0.5029718769405038,jump
23/10/2020, 15:57:13,1.2741505,0.07664063,-0.91250247,0.4455492,-0.045438502,-0.22891477,1.5690742533238848,0.5029718769405038,jump
23/10/2020, 15:57:13,1.2741505,0.07664063,-0.91250247,0.48830974,-0.061320994,-0.12995464,1.5690742533238848,0.5090136294142867,jump
23/10/2020, 15:57:13,0.6706055,-0.100590825,-1.0538087,0.48830974,-0.061320994,-0.12995464,1.2531332642842652,0.5090136294142867,jump
23/10/2020, 15:57:13,0.6706055,-0.100590825,-1.0538087,0.58726984,-0.08453386,-0.029772766,1.2531332642842652,0.5940692380544011,jump
23/10/2020, 15:57:13,0.11496094,-0.086220704,-1.2358302,0.58726984,-0.08453386,-0.029772766,1.2441568551827498,0.5940692380544011,jump
23/10/2020, 15:57:13,0.11496094,-0.086220704,-1.2358302,0.6788996,-0.11141192,0.0704091,1.2441568551827498,0.6915740779879913,jump
23/10/2020, 15:57:13,-0.29937744,-0.023950197,-1.5495777,0.6788996,-0.11141192,0.0704091,1.5784142526648357,0.6915740779879913,jump
23/10/2020, 15:57:13,-0.29937744,-0.023950197,-1.5495777,0.73265576,-0.13584653,0.13760424,1.5784142526648357,0.7577424842102788,jump
23/10/2020, 15:57:13,-0.44786867,0.0047900393,-2.0285816,0.73265576,-0.13584653,0.13760424,2.0774389715529766,0.7577424842102788,jump
23/10/2020, 15:57:13,-0.44786867,0.0047900393,-2.0285816,0.73265576,-0.14928555,0.17059095,2.0774389715529766,0.7669236714234438,jump
23/10/2020, 15:57:13,-0.3424878,0.2203418,-2.2968237,0.73265576,-0.14928555,0.17059095,2.332648216856058,0.7669236714234438,jump
23/10/2020, 15:57:13,-0.3424878,0.2203418,-2.2968237,0.7021125,-0.1309596,0.18158652,2.332648216856058,0.7369437140143877,jump
23/10/2020, 15:57:13,-0.13651612,0.488584,-2.5243506,0.7021125,-0.1309596,0.18158652,2.574819830261258,0.7369437140143877,jump
23/10/2020, 15:57:14,-25.181236,-12.569063,2.0046315,0.8206203,0.15859042,-0.055429097,28.215147649040045,0.837640125951853,jump
23/10/2020, 15:57:14,-25.181236,-12.569063,2.0046315,1.2018,0.07306931,0.25244686,28.215147649040045,1.230199883930377,jump
23/10/2020, 15:57:14,-23.600523,-11.491304,0.5508545,1.2018,0.07306931,0.25244686,26.25525096204377,1.230199883930377,jump
23/10/2020, 15:57:14,-23.600523,-11.491304,0.5508545,1.0686314,0.019313188,0.5908661,26.25525096204377,1.2212570679151191,jump
23/10/2020, 15:57:14,-21.057013,-10.186019,-0.1101709,1.0686314,0.019313188,0.5908661,23.391556113641485,1.2212570679151191,jump
23/10/2020, 15:57:14,-21.057013,-10.186019,-0.1101709,0.5933785,-0.024669092,0.8352121,23.391556113641485,1.0248345529052663,jump
23/10/2020, 15:57:14,-18.30274,-9.053174,-0.22992188,0.5933785,-0.024669092,0.8352121,20.420654224227754,1.0248345529052663,jump
23/10/2020, 15:57:14,-18.30274,-9.053174,-0.22992188,-0.027260344,-0.09186424,0.9512764,20.420654224227754,0.9560904746631174,jump
23/10/2020, 15:57:14,-15.553258,-8.188572,0.7113208,-0.027260344,-0.09186424,0.9512764,17.591546838570782,0.9560904746631174,jump
23/10/2020, 15:57:14,-15.553258,-8.188572,0.7113208,-0.6112473,-0.15417247,0.97204584,17.591546838570782,1.1585618347433204,jump
23/10/2020, 15:57:14,-13.043277,-7.7430983,1.6621436,-0.6112473,-0.15417247,0.97204584,15.259271322465969,1.1585618347433204,jump
23/10/2020, 15:57:14,-13.043277,-7.7430983,1.6621436,-1.0877221,-0.2042634,0.95249814,15.259271322465969,1.4601765398388784,jump
23/10/2020, 15:57:14,-10.94045,-7.28565,2.5315359,-1.0877221,-0.2042634,0.95249814,13.385918214837696,1.4601765398388784,jump
23/10/2020, 15:57:14,-10.94045,-7.28565,2.5315359,-1.3931546,-0.24580222,0.8840813,13.385918214837696,1.6682021111781158,jump
23/10/2020, 15:57:14,-9.158555,-7.201824,3.1207106,-1.3931546,-0.24580222,0.8840813,12.06168465060207,1.6682021111781158,jump
23/10/2020, 15:57:14,-9.158555,-7.201824,3.1207106,-1.5067755,-0.32399297,0.7753473,12.06168465060207,1.7252557113294738,jump
23/10/2020, 15:57:14,-7.6041875,-7.656878,3.5087037,-1.5067755,-0.32399297,0.7753473,11.347354303952335,1.7252557113294738,jump
23/10/2020, 15:57:14,-7.6041875,-7.656878,3.5087037,-1.4200326,-0.42050964,0.64706564,11.347354303952335,1.6161729298588368,jump
23/10/2020, 15:57:14,-5.625901,-7.4197707,3.182981,-1.4200326,-0.42050964,0.64706564,9.840484246287296,1.6161729298588368,jump
23/10/2020, 15:57:14,-5.625901,-7.4197707,3.182981,-1.1329261,-0.45227462,0.5029015,9.840484246287296,1.319463454679308,jump
23/10/2020, 15:57:14,-3.3697927,-6.255791,2.7662477,-1.1329261,-0.45227462,0.5029015,7.625126413989094,1.319463454679308,jump
23/10/2020, 15:57:14,-3.3697927,-6.255791,2.7662477,-0.69065976,-0.4388356,0.32452893,7.625126413989094,0.8802877996027653,jump
23/10/2020, 15:57:14,-0.855022,-4.799619,2.454895,-0.69065976,-0.4388356,0.32452893,5.458380404871126,0.8802877996027653,jump
23/10/2020, 15:57:14,-0.855022,-4.799619,2.454895,-0.21540676,-0.39729676,0.15348673,5.458380404871126,0.47728708458133573,jump
23/10/2020, 15:57:14,1.5926881,-3.67875,1.9734962,-0.21540676,-0.39729676,0.15348673,4.468170142358653,0.47728708458133573,jump
23/10/2020, 15:57:14,1.5926881,-3.67875,1.9734962,0.13278629,-0.39240983,0.011766055,4.468170142358653,0.41443469237079134,jump
23/10/2020, 15:57:14,3.8296363,-2.6560767,1.4130616,0.13278629,-0.39240983,0.011766055,4.87007195789093,0.41443469237079134,jump
23/10/2020, 15:57:14,3.8296363,-2.6560767,1.4130616,0.34658906,-0.4999221,-0.18615422,4.87007195789093,0.6361599411285183,jump
23/10/2020, 15:57:14,5.7001467,-1.5639478,0.9388477,0.34658906,-0.4999221,-0.18615422,5.984900990949489,0.6361599411285183,jump
23/10/2020, 15:57:14,5.7001467,-1.5639478,0.9388477,0.4308884,-0.57322586,-0.39018312,5.984900990949489,0.8163918025832642,jump
23/10/2020, 15:57:15,-4.9481106,-1.9351759,0.9699829,-1.1023828,0.0022089682,-0.2338017,5.400886124765982,1.1269054542260677,jump
23/10/2020, 15:57:15,-7.448511,-2.1411476,0.9915381,-1.1023828,0.0022089682,-0.2338017,7.813320605259182,1.1269054542260677,jump
23/10/2020, 15:57:15,-7.448511,-2.1411476,0.9915381,-1.5507578,-0.08086867,-0.20814535,7.813320605259182,1.5667526532657885,jump
23/10/2020, 15:57:15,-10.020762,-2.5171657,1.4609619,-1.5507578,-0.08086867,-0.20814535,10.434855662543693,1.5667526532657885,jump
23/10/2020, 15:57:15,-10.020762,-2.5171657,1.4609619,-1.9380462,-0.17738535,-0.10185484,10.434855662543693,1.9488106906161453,jump
23/10/2020, 15:57:15,-12.545113,-3.8392165,3.0704153,-1.9380462,-0.17738535,-0.10185484,13.473933477728329,1.9488106906161453,jump
23/10/2020, 15:57:15,-12.545113,-3.8392165,3.0704153,-2.2117136,-0.3545362,-0.019998927,13.473933477728329,2.240038552414027,jump
23/10/2020, 15:57:15,-15.21556,-6.006709,4.253555,-2.2117136,-0.3545362,-0.019998927,16.902264572879666,2.240038552414027,jump
23/10/2020, 15:57:15,-15.21556,-6.006709,4.253555,-2.4255164,-0.6025474,-0.023664117,16.902264572879666,2.499350518569651,jump
23/10/2020, 15:57:15,-19.363733,-8.138277,5.384004,-2.4255164,-0.6025474,-0.023664117,21.683478058556528,2.499350518569651,jump
23/10/2020, 15:57:15,-19.363733,-8.138277,5.384004,-2.5012636,-0.6477514,0.054526605,21.683478058556528,2.584351892478299,jump
23/10/2020, 15:57:15,-24.889044,-10.696157,3.4296682,-2.5012636,-0.6477514,0.054526605,27.30631629985644,2.584351892478299,jump
23/10/2020, 15:57:15,-24.889044,-10.696157,3.4296682,-2.6429842,-0.9641795,0.19624728,27.30631629985644,2.820198638466622,jump
23/10/2020, 15:57:15,-30.661041,-12.638518,0.7209009,-2.6429842,-0.9641795,0.19624728,33.17154345060623,2.820198638466622,jump
23/10/2020, 15:57:15,-30.661041,-12.638518,0.7209009,-2.8140264,-1.5432795,0.5786488,33.17154345060623,3.2611793073231894,jump
23/10/2020, 15:57:15,-31.09454,-12.626543,-0.93405765,-2.8140264,-1.5432795,0.5786488,33.57338899390501,3.2611793073231894,jump
23/10/2020, 15:57:15,-31.09454,-12.626543,-0.93405765,-2.8714478,-1.4052241,0.7301433,33.57338899390501,3.27917313618251,jump
23/10/2020, 15:57:15,-30.110188,-14.291082,-1.6573536,-2.8714478,-1.4052241,0.7301433,33.37072444320814,3.27917313618251,jump
23/10/2020, 15:57:15,-30.110188,-14.291082,-1.6573536,-2.8299088,-1.0509223,0.63484836,33.37072444320814,3.08477781202547,jump
23/10/2020, 15:57:15,-29.717403,-16.604671,-1.3507911,-2.8299088,-1.0509223,0.63484836,34.06851650764605,3.08477781202547,jump
23/10/2020, 15:57:15,-29.717403,-16.604671,-1.3507911,-2.5183678,-0.7931373,0.45158887,34.06851650764605,2.678651808992963,jump
23/10/2020, 15:57:15,-28.73784,-18.300344,0.7185059,-2.5183678,-0.7931373,0.45158887,34.07759298628576,2.678651808992963,jump
23/10/2020, 15:57:15,-28.73784,-18.300344,0.7185059,-1.9673676,-0.47915268,0.20968631,34.07759298628576,2.035704080921769,jump
23/10/2020, 15:57:15,-28.958183,-18.585352,1.9758912,-1.9673676,-0.47915268,0.20968631,34.46586474206779,2.035704080921769,jump
23/10/2020, 15:57:15,-28.958183,-18.585352,1.9758912,-1.1671345,-0.18349399,0.059413526,34.46586474206779,1.1829636536909032,jump
23/10/2020, 15:57:15,-28.498339,-17.481249,2.699187,-1.1671345,-0.18349399,0.059413526,33.54154112219833,1.1829636536909032,jump
23/10/2020, 15:57:15,-28.498339,-17.481249,2.699187,-0.3791186,0.03886087,-0.044433527,33.54154112219833,0.3836866063134562,jump
23/10/2020, 15:57:15,-26.500893,-16.070581,2.6584718,-0.3791186,0.03886087,-0.044433527,31.10672549145521,0.3836866063134562,jump
23/10/2020, 15:57:15,-26.500893,-16.070581,2.6584718,0.25373757,0.22822903,-0.14828059,31.10672549145521,0.3720999570337201,jump
23/10/2020, 15:57:15,-24.445965,-15.222745,2.687212,0.25373757,0.22822903,-0.14828059,28.923317020897066,0.3720999570337201,jump
23/10/2020, 15:57:16,-0.37601808,-0.76880133,0.852627,-0.5831475,-0.7687027,0.6287397,1.208063676962726,1.1516416477282874,jump
23/10/2020, 15:57:16,-0.61552006,-0.5412744,0.8981324,-0.5831475,-0.7687027,0.6287397,1.2159295744475551,1.1516416477282874,jump
23/10/2020, 15:57:16,-0.61552006,-0.5412744,0.8981324,-0.36445782,-0.75037676,0.5749836,1.2159295744475551,1.0131638167341972,jump
23/10/2020, 15:57:16,-0.91250247,-0.009580079,0.9148975,-0.36445782,-0.75037676,0.5749836,1.2922035325494787,1.0131638167341972,jump
23/10/2020, 15:57:16,-0.91250247,-0.009580079,0.9148975,-0.21785022,-0.703951,0.52977955,1.2922035325494787,0.9075638308132881,jump
23/10/2020, 15:57:16,-1.4250367,0.35925296,0.5963599,-0.21785022,-0.703951,0.52977955,1.586013031732416,0.9075638308132881,jump
23/10/2020, 15:57:16,-1.4250367,0.35925296,0.5963599,-0.14698988,-0.6856251,0.4857973,1.586013031732416,0.853045587157475,jump
23/10/2020, 15:57:16,-2.198628,-0.09101075,0.8262818,-0.14698988,-0.6856251,0.4857973,2.3505296006189402,0.853045587157475,jump
23/10/2020, 15:57:16,-2.198628,-0.09101075,0.8262818,-0.16287237,-0.7186118,0.42348906,2.3505296006189402,0.8498666267934858,jump
23/10/2020, 15:57:16,-3.3793726,-1.0226734,0.8430469,-0.16287237,-0.7186118,0.42348906,3.6299790698892385,0.8498666267934858,jump
23/10/2020, 15:57:16,-3.3793726,-1.0226734,0.8430469,-0.24106309,-0.807798,0.32330722,3.6299790698892385,0.9028713211395808,jump
23/10/2020, 15:57:16,-5.0031962,-2.2201831,1.3627661,-0.24106309,-0.807798,0.32330722,5.6407727600030135,0.9028713211395808,jump
23/10/2020, 15:57:16,-5.0031962,-2.2201831,1.3627661,-0.38889244,-0.948297,0.17425615,5.6407727600030135,1.0396488739643146,jump
23/10/2020, 15:57:16,-7.1060233,-3.666775,1.9088306,-0.38889244,-0.948297,0.17425615,8.220975644145199,1.0396488739643146,jump
23/10/2020, 15:57:16,-7.1060233,-3.666775,1.9088306,-0.71998125,-1.179204,0.021539895,8.220975644145199,1.3817955764864396,jump
23/10/2020, 15:57:16,-9.726174,-4.9576907,2.0860622,-0.71998125,-1.179204,0.021539895,11.114351995564755,1.3817955764864396,jump
23/10/2020, 15:57:16,-9.726174,-4.9576907,2.0860622,-1.2648729,-1.3942285,0.0056574047,11.114351995564755,1.8825005910605064,jump
23/10/2020, 15:57:16,-12.715159,-5.7624173,1.9974464,-1.2648729,-1.3942285,0.0056574047,14.102146095546368,1.8825005910605064,jump
23/10/2020, 15:57:16,-12.715159,-5.7624173,1.9974464,-1.8684076,-1.5884836,0.09240024,14.102146095546368,2.4541321986987463,jump
23/10/2020, 15:57:16,-16.152012,-6.6102543,2.548301,-1.8684076,-1.5884836,0.09240024,17.637369053591332,2.4541321986987463,jump
23/10/2020, 15:57:16,-16.152012,-6.6102543,2.548301,-2.6955187,-1.5616055,0.2011342,17.637369053591332,3.12168028402737,jump
23/10/2020, 15:57:16,-20.975582,-8.155042,2.3638844,-2.6955187,-1.5616055,0.2011342,22.62891292395693,3.12168028402737,jump
23/10/2020, 15:57:16,-20.975582,-8.155042,2.3638844,-3.889149,-1.5628272,0.29765087,22.62891292395693,4.201964368200871,jump
23/10/2020, 15:57:16,-25.851841,-9.960887,2.047742,-3.889149,-1.5628272,0.29765087,27.78003235187993,4.201964368200871,jump
23/10/2020, 15:57:16,-25.851841,-9.960887,2.047742,-5.038797,-1.9452287,0.3807285,27.78003235187993,5.414641548289001,jump
23/10/2020, 15:57:16,-25.868607,-12.329561,2.4045997,-5.038797,-1.9452287,0.3807285,28.757346635351528,5.414641548289001,jump
23/10/2020, 15:57:16,-25.868607,-12.329561,2.4045997,-5.6447754,-2.3080823,0.5542142,28.757346635351528,6.123551801488792,jump
23/10/2020, 15:57:16,-22.795797,-16.027472,3.288362,-5.6447754,-2.3080823,0.5542142,28.059607010588483,6.123551801488792,jump
23/10/2020, 15:57:16,-22.795797,-16.027472,3.288362,-5.7168574,-2.4217033,0.6690568,28.059607010588483,6.2445770824723965,jump
23/10/2020, 15:57:16,-21.004322,-18.681152,4.0044727,-5.7168574,-2.4217033,0.6690568,28.39371056449473,6.2445770824723965,jump
23/10/2020, 15:57:17,0.60594,-0.102985844,-1.0538087,-0.07490782,-0.28123242,0.36240256,1.2199516801606352,0.46479938412704075,jump
23/10/2020, 15:57:17,0.60594,-0.102985844,-1.0538087,-0.14332469,-0.2201459,0.26832935,1.2199516801606352,0.37550875221767693,jump
23/10/2020, 15:57:17,0.87897223,-0.46463382,-0.85741705,-0.14332469,-0.2201459,0.26832935,1.3128750004136205,0.37550875221767693,jump
23/10/2020, 15:57:17,0.87897223,-0.46463382,-0.85741705,-0.17142448,-0.15783766,0.18158652,1.3128750004136205,0.2954196036738322,jump
23/10/2020, 15:57:17,0.91729254,-0.77359134,-0.46942386,-0.17142448,-0.15783766,0.18158652,1.2884983184474428,0.2954196036738322,jump
23/10/2020, 15:57:17,0.91729254,-0.77359134,-0.46942386,-0.12866393,-0.0943077,0.11194792,1.2884983184474428,0.1948863364888455,jump
23/10/2020, 15:57:17,0.81909674,-0.96758795,0.18681154,-0.12866393,-0.0943077,0.11194792,1.28142282761573,0.1948863364888455,jump
23/10/2020, 15:57:17,0.81909674,-0.96758795,0.18681154,-0.030925535,-0.046660233,0.044752765,1.28142282761573,0.07166851526355109,jump
23/10/2020, 15:57:17,0.4766089,-1.2957057,0.4406836,-0.030925535,-0.046660233,0.044752765,1.4492105723117323,0.07166851526355109,jump
23/10/2020, 15:57:17,0.4766089,-1.2957057,0.4406836,0.074143246,-0.006343142,-0.022442386,1.4492105723117323,0.07772462300718662,jump
23/10/2020, 15:57:17,0.06227051,-1.7124391,1.0059083,0.074143246,-0.006343142,-0.022442386,1.9870019024940442,0.07772462300718662,jump
23/10/2020, 15:57:17,0.06227051,-1.7124391,1.0059083,0.1572209,0.013204537,-0.10185484,1.9870019024940442,0.18779557857739088,jump
23/10/2020, 15:57:17,-0.45026368,-2.1722827,1.4753321,0.1572209,0.013204537,-0.10185484,2.6642361789138476,0.18779557857739088,jump
23/10/2020, 15:57:17,-0.45026368,-2.1722827,1.4753321,0.20731182,-0.011230063,-0.19959325,2.6642361789138476,0.28799612932382673,jump
23/10/2020, 15:57:17,-1.096919,-2.3064039,1.7842896,0.20731182,-0.011230063,-0.19959325,3.115512697702998,0.28799612932382673,jump
23/10/2020, 15:57:17,-1.096919,-2.3064039,1.7842896,0.18409896,-0.06865137,-0.2790057,3.115512697702998,0.34124715610063056,jump
23/10/2020, 15:57:17,-1.7483643,-2.193838,1.8968556,0.18409896,-0.06865137,-0.2790057,3.38640866055203,0.34124715610063056,jump
23/10/2020, 15:57:17,-1.7483643,-2.193838,1.8968556,0.04848692,-0.10774673,-0.2961099,3.38640866055203,0.31881251577125724,jump
23/10/2020, 15:57:17,-2.430945,-2.0453467,1.4298267,0.04848692,-0.10774673,-0.2961099,3.4838686789989257,0.31881251577125724,jump
23/10/2020, 15:57:17,-2.430945,-2.0453467,1.4298267,-0.1885287,-0.1187423,-0.259458,3.4838686789989257,0.34199599738903463,jump
23/10/2020, 15:57:17,-3.3434474,-2.7183473,0.7065308,-0.1885287,-0.1187423,-0.259458,4.366604941786244,0.34199599738903463,jump
23/10/2020, 15:57:17,-3.3434474,-2.7183473,0.7065308,-0.63812536,-0.09308597,-0.16905,4.366604941786244,0.6666684877284602,jump
23/10/2020, 15:57:17,-4.653523,-3.9350173,0.58677983,-0.63812536,-0.09308597,-0.16905,6.122413585546544,0.6666684877284602,jump
23/10/2020, 15:57:17,-4.653523,-3.9350173,0.58677983,-1.1549172,-0.047881965,-0.063981205,6.122413585546544,1.157678758868171,jump
23/10/2020, 15:57:17,-6.5096636,-5.853428,2.2393434,-1.1549172,-0.047881965,-0.063981205,9.036204781942544,1.157678758868171,jump
23/10/2020, 15:57:17,-6.5096636,-5.853428,2.2393434,-1.6717091,-0.121185765,-0.0028947059,9.036204781942544,1.6760983122727038,jump
23/10/2020, 15:57:17,-9.299861,-8.756192,4.152964,-1.6717091,-0.121185765,-0.0028947059,13.43150872696406,1.6760983122727038,jump
23/10/2020, 15:57:17,-13.531861,-11.991863,6.104905,-1.6717091,-0.121185765,-0.0028947059,19.083655866635237,1.6760983122727038,jump
23/10/2020, 15:57:17,-13.531861,-11.991863,6.104905,-2.2288177,-0.4681571,0.027648546,19.083655866635237,2.2776224160221807,jump
23/10/2020, 15:57:17,-13.531861,-11.991863,6.104905,-2.553798,-0.8371196,0.2170167,19.083655866635237,2.696247291840366,jump
23/10/2020, 15:57:18,5.1780324,1.2909156,-0.62989014,0.40278864,-0.52435666,-0.3889614,5.373569039142303,0.7671242221910461,jump
23/10/2020, 15:57:18,5.1397123,0.7664063,-0.9388477,0.40278864,-0.52435666,-0.3889614,5.280668189597068,0.7671242221910461,jump
23/10/2020, 15:57:18,5.1397123,0.7664063,-0.9388477,0.48464453,-0.38385773,-0.29733166,5.280668189597068,0.6860271086744111,jump
23/10/2020, 15:57:18,3.9924977,0.7376661,-0.7448511,0.48464453,-0.38385773,-0.29733166,4.1278314108548955,0.6860271086744111,jump
23/10/2020, 15:57:18,3.9924977,0.7376661,-0.7448511,0.65690845,-0.26290646,-0.1568327,4.1278314108548955,0.7247378953391841,jump
23/10/2020, 15:57:18,2.299219,0.96758795,-0.5484595,0.65690845,-0.26290646,-0.1568327,2.5541029238286863,0.7247378953391841,jump
23/10/2020, 15:57:18,2.299219,0.96758795,-0.5484595,0.85116357,-0.17494188,0.07285256,2.5541029238286863,0.8720043428425396,jump
23/10/2020, 15:57:18,1.0202783,0.9532178,-0.62510014,0.85116357,-0.17494188,0.07285256,1.5298177154672061,0.8720043428425396,jump
23/10/2020, 15:57:18,1.0202783,0.9532178,-0.62510014,0.9403498,-0.12607269,0.32086375,1.5298177154672061,1.001551621402584,jump
23/10/2020, 15:57:18,0.26105714,0.78556645,-0.62749517,0.9403498,-0.12607269,0.32086375,1.038756787466299,1.001551621402584,jump
23/10/2020, 15:57:18,0.26105714,0.78556645,-0.62749517,0.9269108,-0.09675116,0.53588825,1.038756787466299,1.0750351959028452,jump
23/10/2020, 15:57:18,-0.019160157,0.7185059,-0.7424561,0.9269108,-0.09675116,0.53588825,1.033372583230708,1.0750351959028452,jump
23/10/2020, 15:57:18,-0.019160157,0.7185059,-0.7424561,0.8377245,-0.06742964,0.73258674,1.033372583230708,1.11490467727046,jump
23/10/2020, 15:57:18,-0.2083667,0.57719976,-0.7783814,0.8377245,-0.06742964,0.73258674,0.9911881049211545,1.11490467727046,jump
23/10/2020, 15:57:18,-0.2083667,0.57719976,-0.7783814,0.69600385,-0.042995043,0.89018995,0.9911881049211545,1.1307997516438575,jump
23/10/2020, 15:57:18,-0.31374758,0.60833496,-0.76880133,0.69600385,-0.042995043,0.89018995,1.0293514735625364,1.1307997516438575,jump
23/10/2020, 15:57:18,-0.31374758,0.60833496,-0.76880133,0.52251816,-0.029556014,0.99648046,1.0293514735625364,1.1255541303451542,jump
23/10/2020, 15:57:18,-0.4766089,0.78556645,-0.7544312,0.52251816,-0.029556014,0.99648046,1.1888806118839639,1.1255541303451542,jump
23/10/2020, 15:57:18,-0.4766089,0.78556645,-0.7544312,0.32215443,-0.030777743,1.0563452,1.1888806118839639,1.104805856674834,jump
23/10/2020, 15:57:18,-0.55803955,0.97956306,-0.6466553,0.32215443,-0.030777743,1.0563452,1.2996595795499022,1.104805856674834,jump
23/10/2020, 15:57:18,-0.55803955,0.97956306,-0.6466553,0.09124746,-0.033221204,1.071006,1.2996595795499022,1.0753992152263685,jump
23/10/2020, 15:57:18,-0.32572266,1.1424243,-0.79993653,0.09124746,-0.033221204,1.071006,1.4321756509254804,1.0753992152263685,jump
23/10/2020, 15:57:18,-0.32572266,1.1424243,-0.79993653,-0.19708082,-0.012451792,1.0160282,1.4321756509254804,1.0350406420948595,jump
23/10/2020, 15:57:18,0.026345216,0.87178713,-1.0442286,-0.19708082,-0.012451792,1.0160282,1.3605587618292863,1.0350406420948595,jump
23/10/2020, 15:57:18,0.026345216,0.87178713,-1.0442286,-0.55626947,0.020534918,0.91095936,1.3605587618292863,1.0675693718127763,jump
23/10/2020, 15:57:18,0.4167334,0.71371585,-1.1567944,-0.55626947,0.020534918,0.91095936,1.4216998295202348,1.0675693718127763,jump
23/10/2020, 15:57:18,0.4167334,0.71371585,-1.1567944,-0.90812767,0.06085201,0.76923865,1.4216998295202348,1.1916907844999525,jump
23/10/2020, 15:57:18,0.7089258,0.5340894,-1.099314,-0.90812767,0.06085201,0.76923865,1.4129113396466815,1.1916907844999525,jump
23/10/2020, 15:57:18,0.7089258,0.5340894,-1.099314,-1.1671345,0.12316024,0.6262962,1.4129113396466815,1.330270047438316,jump
23/10/2020, 15:57:18,0.91010743,0.24668702,-0.9029224,-1.1671345,0.12316024,0.6262962,1.3055339425116426,1.330270047438316,jump
23/10/2020, 15:57:19,-0.6658155,-0.17004639,-2.5914114,1.9568292,0.2270073,0.6250745,2.6809772125282114,2.066744041176652,jump
23/10/2020, 15:57:19,-0.6658155,-0.17004639,-2.5914114,2.1266499,0.45791426,0.38195026,2.6809772125282114,2.208667264486813,jump
23/10/2020, 15:57:19,0.2682422,0.728086,-2.914739,2.1266499,0.45791426,0.38195026,3.0162503073099987,2.208667264486813,jump
23/10/2020, 15:57:19,0.2682422,0.728086,-2.914739,1.9287294,0.6741605,0.20235594,3.0162503073099987,2.053153047004636,jump
23/10/2020, 15:57:19,0.6466553,1.7747096,-2.562671,1.9287294,0.6741605,0.20235594,3.183557692902367,2.053153047004636,jump
23/10/2020, 15:57:19,0.6466553,1.7747096,-2.562671,1.4852414,0.79022485,0.11316965,3.183557692902367,1.686180517692939,jump
23/10/2020, 15:57:19,0.18681154,2.6177564,-2.6512868,1.4852414,0.79022485,0.11316965,3.730531980298067,1.686180517692939,jump
23/10/2020, 15:57:19,0.18681154,2.6177564,-2.6512868,0.98066694,0.81954634,0.10583927,3.730531980298067,1.2824062520536026,jump
23/10/2020, 15:57:19,-0.50534916,2.5219557,-3.0752053,0.98066694,0.81954634,0.10583927,4.0090555330361575,1.2824062520536026,jump
23/10/2020, 15:57:19,-0.50534916,2.5219557,-3.0752053,0.43455362,0.8280985,0.1192783,4.0090555330361575,0.9427678661116506,jump
23/10/2020, 15:57:19,-1.0202783,1.2621753,-3.3937428,0.43455362,0.8280985,0.1192783,3.7618538798587786,0.9427678661116506,jump
23/10/2020, 15:57:19,-1.0202783,1.2621753,-3.3937428,-0.08345993,0.8134377,0.118056566,3.7618538798587786,0.8261863013712484,jump
23/10/2020, 15:57:19,-1.3627661,-0.09580079,-3.2500417,-0.08345993,0.8134377,0.118056566,3.5254901168755017,0.8261863013712484,jump
23/10/2020, 15:57:19,-1.3627661,-0.09580079,-3.2500417,-0.4328747,0.7095906,0.10583927,3.5254901168755017,0.8379148547322505,jump
23/10/2020, 15:57:19,-1.1615845,-0.6682105,-2.3471193,-0.4328747,0.7095906,0.10583927,2.702730652333613,0.8379148547322505,jump
23/10/2020, 15:57:19,-1.1615845,-0.6682105,-2.3471193,-0.37423167,0.5727569,0.12538694,2.702730652333613,0.6955729116554931,jump
23/10/2020, 15:57:19,-0.4622388,-0.59156984,-1.2406201,-0.37423167,0.5727569,0.12538694,1.4500889272244577,0.6955729116554931,jump
23/10/2020, 15:57:19,-0.4622388,-0.59156984,-1.2406201,-0.005269205,0.42981446,0.21090804,1.4500889272244577,0.47880103826618675,jump
23/10/2020, 15:57:19,0.32093263,-1.1136842,-0.7927515,-0.005269205,0.42981446,0.21090804,1.404188421999584,0.47880103826618675,jump
23/10/2020, 15:57:19,0.32093263,-1.1136842,-0.7927515,0.3526977,0.29420245,0.2829901,1.404188421999584,0.5394758040172043,jump
23/10/2020, 15:57:19,1.1543995,-1.092129,-1.4465919,0.3526977,0.29420245,0.2829901,2.148956017711809,0.5394758040172043,jump
23/10/2020, 15:57:19,1.1543995,-1.092129,-1.4465919,0.6483564,0.2514419,0.36484602,2.148956017711809,0.7853035330580158,jump
23/10/2020, 15:57:19,1.8154249,0.14370118,-1.954336,0.6483564,0.2514419,0.36484602,2.6713006292138406,0.7853035330580158,jump
23/10/2020, 15:57:19,1.8154249,0.14370118,-1.954336,0.80962473,0.32230222,0.4980146,2.6713006292138406,1.0036879342168432,jump
23/10/2020, 15:57:19,2.42376,1.2597803,-2.4884255,0.80962473,0.32230222,0.4980146,3.6951211133585105,1.0036879342168432,jump
23/10/2020, 15:57:19,2.42376,1.2597803,-2.4884255,0.8523853,0.48357058,0.5945313,3.6951211133585105,1.1462410895935717,jump
23/10/2020, 15:57:19,2.823728,1.3699512,-2.8716285,0.8523853,0.48357058,0.5945313,4.253993076074953,1.1462410895935717,jump
23/10/2020, 15:57:19,2.823728,1.3699512,-2.8716285,0.82795066,0.6753822,0.6324049,4.253993076074953,1.241603555302649,jump
23/10/2020, 15:57:19,2.560276,0.75203615,-2.5866213,0.82795066,0.6753822,0.6324049,3.716339785881127,1.241603555302649,jump
23/10/2020, 15:57:19,2.560276,0.75203615,-2.5866213,0.8340593,0.8427592,0.6360701,3.716339785881127,1.3455419375292792,jump
23/10/2020, 15:57:20,-2.9961696,-0.35685793,1.1783496,0.37468883,-0.5866649,0.24755993,3.2392726756354713,0.7388188994773626,jump
23/10/2020, 15:57:20,-2.9961696,-0.35685793,1.1783496,0.4541013,-0.5829997,-0.06886813,3.2392726756354713,0.7421855983283053,jump
23/10/2020, 15:57:20,-0.6346802,0.99393314,-0.35685793,0.4541013,-0.5829997,-0.06886813,1.232099687227321,0.7421855983283053,jump
23/10/2020, 15:57:20,-0.6346802,0.99393314,-0.35685793,0.36491498,-0.57933456,-0.44882616,1.232099687227321,0.81867966854441,jump
23/10/2020, 15:57:20,1.0538087,1.6932789,-1.8824854,0.36491498,-0.57933456,-0.44882616,2.742527567496336,0.81867966854441,jump
23/10/2020, 15:57:20,1.0538087,1.6932789,-1.8824854,0.13400802,-0.4632702,-0.72493714,2.742527567496336,0.8706958563687364,jump
23/10/2020, 15:57:20,2.5339308,2.2465284,-2.7159522,0.13400802,-0.4632702,-0.72493714,4.340978128090705,0.8706958563687364,jump
23/10/2020, 15:57:20,2.5339308,2.2465284,-2.7159522,-0.027260344,-0.27878895,-0.8397798,4.340978128090705,0.8852663497716184,jump
23/10/2020, 15:57:20,3.5039136,2.6345215,-2.9506643,-0.027260344,-0.27878895,-0.8397798,5.284366940250007,0.8852663497716184,jump
23/10/2020, 15:57:20,3.5039136,2.6345215,-2.9506643,-0.10422934,-0.09308597,-0.8055713,5.284366940250007,0.8176025318621493,jump
23/10/2020, 15:57:20,3.8224514,2.567461,-2.823728,-0.10422934,-0.09308597,-0.8055713,5.4015211468177196,0.8176025318621493,jump
23/10/2020, 15:57:20,3.8224514,2.567461,-2.823728,-0.23128925,0.03275222,-0.671181,5.4015211468177196,0.7106696785931744,jump
23/10/2020, 15:57:20,3.5805542,2.3830445,-2.9051588,-0.23128925,0.03275222,-0.671181,5.190300292361906,0.7106696785931744,jump
23/10/2020, 15:57:20,3.5805542,2.3830445,-2.9051588,-0.44753546,0.08650834,-0.503804,5.190300292361906,0.6794042798174947,jump
23/10/2020, 15:57:20,2.806963,2.186653,-2.5171657,-0.44753546,0.08650834,-0.503804,4.358510635714661,0.6794042798174947,jump
23/10/2020, 15:57:20,2.806963,2.186653,-2.5171657,-0.7273117,0.052299898,-0.32543144,4.358510635714661,0.7985130966544328,jump
23/10/2020, 15:57:20,1.6597486,1.8776954,-2.2776637,-0.7273117,0.052299898,-0.32543144,3.3864815662968804,0.7985130966544328,jump
23/10/2020, 15:57:20,1.6597486,1.8776954,-2.2776637,-0.9985357,-0.050325423,-0.1360633,3.3864815662968804,1.0090190272869692,jump
23/10/2020, 15:57:20,0.7424561,1.4729371,-1.7771046,-0.9985357,-0.050325423,-0.1360633,2.424641327448686,1.0090190272869692,jump
23/10/2020, 15:57:20,0.7424561,1.4729371,-1.7771046,-1.1842388,-0.18960264,0.048417956,2.424641327448686,1.2002978696841344,jump
23/10/2020, 15:57:20,0.086220704,0.89573735,-1.5447876,-1.1842388,-0.18960264,0.048417956,1.787777469138239,1.2002978696841344,jump
23/10/2020, 15:57:20,0.086220704,0.89573735,-1.5447876,-1.2893075,-0.3337668,0.2255688,1.787777469138239,1.3507758208958094,jump
23/10/2020, 15:57:20,-0.22992188,0.244292,-1.4897022,-1.2893075,-0.3337668,0.2255688,1.5270086352783518,1.3507758208958094,jump
23/10/2020, 15:57:20,-0.22992188,0.244292,-1.4897022,-1.3076335,-0.45716155,0.3807285,1.5270086352783518,1.4366127870768182,jump
23/10/2020, 15:57:20,-0.11496094,-0.32093263,-1.3795313,-1.3076335,-0.45716155,0.3807285,1.4210278947002968,1.4366127870768182,jump
23/10/2020, 15:57:20,-0.11496094,-0.32093263,-1.3795313,-1.1988995,-0.5512347,0.48701903,1.4210278947002968,1.4065586677390132,jump
23/10/2020, 15:57:20,0.34727785,-0.69695073,-1.214275,-1.1988995,-0.5512347,0.48701903,1.442499917448241,1.4065586677390132,jump
23/10/2020, 15:57:20,0.34727785,-0.69695073,-1.214275,-0.96066207,-0.6159864,0.56398803,1.442499917448241,1.2729467224324431,jump
23/10/2020, 15:57:20,0.99393314,-0.77359134,-1.341211,-0.96066207,-0.6159864,0.56398803,1.839889532756723,1.2729467224324431,jump
23/10/2020, 15:57:20,0.99393314,-0.77359134,-1.341211,-0.6723338,-0.6355341,0.5896444,1.839889532756723,1.097094706776772,jump
23/10/2020, 15:57:21,-13.725858,-11.148816,5.604346,-1.3992633,-0.48281786,0.33674625,18.550039434121118,1.5180411051301206,jump
23/10/2020, 15:57:21,-13.725858,-11.148816,5.604346,-0.9484448,-0.57444763,0.21212977,18.550039434121118,1.1289537764991173,jump
23/10/2020, 15:57:21,-11.955938,-10.059082,4.670288,-0.9484448,-0.57444763,0.21212977,16.307703200899184,1.1289537764991173,jump
23/10/2020, 15:57:21,-11.955938,-10.059082,4.670288,-0.399888,-0.61232126,0.048417956,16.307703200899184,0.7329338582263464,jump
23/10/2020, 15:57:21,-10.813514,-8.725057,3.300337,-0.399888,-0.61232126,0.048417956,14.281138542796354,0.7329338582263464,jump
23/10/2020, 15:57:21,-10.813514,-8.725057,3.300337,0.102243036,-0.6172082,-0.061537746,14.281138542796354,0.6286385874024609,jump
23/10/2020, 15:57:21,-9.515413,-7.031778,1.83219,0.102243036,-0.6172082,-0.061537746,11.972715237426415,0.6286385874024609,jump
23/10/2020, 15:57:21,-9.515413,-7.031778,1.83219,0.37591058,-0.5573434,-0.098189645,11.972715237426415,0.6793980145208879,jump
23/10/2020, 15:57:21,-8.2125225,-5.3049684,0.6562354,0.37591058,-0.5573434,-0.098189645,9.798921373756508,0.6793980145208879,jump
23/10/2020, 15:57:21,-8.2125225,-5.3049684,0.6562354,0.43211016,-0.47793093,-0.11529387,9.798921373756508,0.6545455246210395,jump
23/10/2020, 15:57:21,-6.9048414,-3.523074,-0.0023950196,0.43211016,-0.47793093,-0.11529387,7.7517024323978125,0.6545455246210395,jump
23/10/2020, 15:57:21,-6.9048414,-3.523074,-0.0023950196,0.40278864,-0.36553177,-0.13361983,7.7517024323978125,0.5600950127888539,jump
23/10/2020, 15:57:21,-5.508545,-1.9232007,-0.45505372,0.40278864,-0.36553177,-0.13361983,5.852336462988317,0.5600950127888539,jump
23/10/2020, 15:57:21,-5.508545,-1.9232007,-0.45505372,0.48586628,-0.23725012,-0.16660653,5.852336462988317,0.565783877195922,jump
23/10/2020, 15:57:21,-3.767366,-0.7448511,-0.9244776,0.48586628,-0.23725012,-0.16660653,3.95000101765182,0.565783877195922,jump
23/10/2020, 15:57:21,-3.767366,-0.7448511,-0.9244776,0.6520215,-0.08331213,-0.20448017,3.95000101765182,0.6883931461851194,jump
23/10/2020, 15:57:21,-1.9591261,0.023950197,-1.6118482,0.6520215,-0.08331213,-0.20448017,2.5370856270312054,0.6883931461851194,jump
23/10/2020, 15:57:21,-1.9591261,0.023950197,-1.6118482,0.7717511,0.05107817,-0.28389263,2.5370856270312054,0.8238954879254442,jump
23/10/2020, 15:57:21,-0.2083667,0.8143067,-1.6070582,0.7717511,0.05107817,-0.28389263,1.8136008384907247,0.8238954879254442,jump
23/10/2020, 15:57:21,-0.2083667,0.8143067,-1.6070582,0.81084645,0.15859042,-0.3962918,1.8136008384907247,0.916335128935262,jump
23/10/2020, 15:57:21,1.2478052,1.3507911,-1.2286451,0.81084645,0.15859042,-0.3962918,2.2116110070165886,0.916335128935262,jump
23/10/2020, 15:57:21,1.2478052,1.3507911,-1.2286451,0.8548287,0.28320685,-0.45249137,2.2116110070165886,1.0078128274012041,jump
23/10/2020, 15:57:21,2.1746778,1.695674,-0.9053174,0.8548287,0.28320685,-0.45249137,2.9024357886013883,1.0078128274012041,jump
23/10/2020, 15:57:21,2.1746778,1.695674,-0.9053174,0.8169551,0.41759717,-0.45493484,2.9024357886013883,1.0240940987698401,jump
23/10/2020, 15:57:21,2.4668703,1.7387843,-1.2502003,0.8169551,0.41759717,-0.45493484,3.2667752789365267,1.0240940987698401,jump
23/10/2020, 15:57:21,2.4668703,1.7387843,-1.2502003,0.62270004,0.51167035,-0.45126963,3.2667752789365267,0.9236915926489969,jump
23/10/2020, 15:57:21,2.43813,1.7292042,-1.465752,0.62270004,0.51167035,-0.45126963,3.329122023753411,0.9236915926489969,jump
23/10/2020, 15:57:21,2.43813,1.7292042,-1.465752,0.30505022,0.5556527,-0.44882616,3.329122023753411,0.7766920002696299,jump
23/10/2020, 15:57:21,1.9687061,1.7507594,-1.4489869,0.30505022,0.5556527,-0.44882616,3.0067466104255027,0.7766920002696299,jump
23/10/2020, 15:57:21,1.9687061,1.7507594,-1.4489869,-0.015043045,0.5251094,-0.40240043,3.0067466104255027,0.6617343086789467,jump
23/10/2020, 15:57:22,-25.959618,-18.7554,3.8559816,-0.29237574,-0.78091997,0.43204117,32.25733031063899,0.9391374470565785,jump
23/10/2020, 15:57:22,-25.959618,-18.7554,3.8559816,-0.17020275,-0.8249023,0.68493927,32.25733031063899,1.0856217436198776,jump
23/10/2020, 15:57:22,-24.31424,-16.829803,6.5791187,-0.17020275,-0.8249023,0.68493927,30.29371767437693,1.0856217436198776,jump
23/10/2020, 15:57:22,-24.31424,-16.829803,6.5791187,-0.73830724,-0.78214175,0.749691,30.29371767437693,1.3110605997817832,jump
23/10/2020, 15:57:22,-22.026995,-14.6982355,8.423284,-0.73830724,-0.78214175,0.749691,27.788096896344587,1.3110605997817832,jump
23/10/2020, 15:57:22,-22.026995,-14.6982355,8.423284,-1.5666403,-0.69539887,0.61652243,27.788096896344587,1.8215491182681345,jump
23/10/2020, 15:57:22,-20.652254,-14.956898,8.54064,-1.5666403,-0.69539887,0.61652243,26.891763032361442,1.8215491182681345,jump
23/10/2020, 15:57:22,-20.652254,-14.956898,8.54064,-2.1885006,-0.7002858,0.41127175,26.891763032361442,2.3343263926691975,jump
23/10/2020, 15:57:22,-19.548151,-16.005917,8.01613,-2.1885006,-0.7002858,0.41127175,26.506186477195634,2.3343263926691975,jump
23/10/2020, 15:57:22,-19.548151,-16.005917,8.01613,-2.3021216,-0.7564854,0.2988726,26.506186477195634,2.441589447742173,jump
23/10/2020, 15:57:22,-17.517174,-16.341219,7.671248,-2.3021216,-0.7564854,0.2988726,25.154221489749244,2.441589447742173,jump
23/10/2020, 15:57:22,-17.517174,-16.341219,7.671248,-1.8378643,-0.78336346,0.2781032,25.154221489749244,2.0171129901075417,jump
23/10/2020, 15:57:22,-15.191609,-15.857425,7.0054326,-1.8378643,-0.78336346,0.2781032,23.05035793402434,2.0171129901075417,jump
23/10/2020, 15:57:22,-15.191609,-15.857425,7.0054326,-1.214782,-0.74426806,0.30864644,23.05035793402434,1.4577012301892012,jump
23/10/2020, 15:57:22,-12.688814,-14.396463,6.5144534,-1.214782,-0.74426806,0.30864644,20.26579054400258,1.4577012301892012,jump
23/10/2020, 15:57:22,-12.688814,-14.396463,6.5144534,-0.6784424,-0.6868468,0.3281941,20.26579054400258,1.0196832875168438,jump
23/10/2020, 15:57:22,-10.784774,-12.604988,6.1240654,-0.6784424,-0.6868468,0.3281941,17.683360779517365,1.0196832875168438,jump
23/10/2020, 15:57:22,-10.784774,-12.604988,6.1240654,-0.26794115,-0.6318689,0.319642,17.683360779517365,0.7571141106359501,jump
23/10/2020, 15:57:22,-9.16574,-10.784774,5.52052,-0.26794115,-0.6318689,0.319642,15.192046599158719,0.7571141106359501,jump
23/10/2020, 15:57:22,-9.16574,-10.784774,5.52052,-0.040699374,-0.59155184,0.32208547,15.192046599158719,0.6747807560734645,jump
23/10/2020, 15:57:22,-7.553892,-8.423284,4.629573,-0.040699374,-0.59155184,0.32208547,12.224808283073136,0.6747807560734645,jump
23/10/2020, 15:57:22,-7.553892,-8.423284,4.629573,0.065591134,-0.49503517,0.31353337,12.224808283073136,0.5896314012424119,jump
23/10/2020, 15:57:22,-6.1767554,-6.167176,3.542234,0.065591134,-0.49503517,0.31353337,9.419861246880725,0.5896314012424119,jump
23/10/2020, 15:57:22,-6.1767554,-6.167176,3.542234,0.053373836,-0.4229531,0.27932492,9.419861246880725,0.5096670488639311,jump
23/10/2020, 15:57:22,-5.094207,-4.054768,2.2393434,0.053373836,-0.4229531,0.27932492,6.8852557058207315,0.5096670488639311,jump
23/10/2020, 15:57:22,-5.094207,-4.054768,2.2393434,-0.057803597,-0.40829232,0.23534264,6.8852557058207315,0.4747947280870396,jump
23/10/2020, 15:57:22,-4.0882983,-2.088457,1.0083033,-0.057803597,-0.40829232,0.23534264,4.700267201286523,0.4747947280870396,jump
23/10/2020, 15:57:22,-4.0882983,-2.088457,1.0083033,-0.15920718,-0.43517038,0.1437129,4.700267201286523,0.4851531546405261,jump
23/10/2020, 15:57:22,-3.0201197,-0.5987549,-0.23471193,-0.15920718,-0.43517038,0.1437129,3.087834176760617,0.4851531546405261,jump
23/10/2020, 15:57:22,-3.0201197,-0.5987549,-0.23471193,-0.15676372,-0.4718223,0.026426814,3.087834176760617,0.49788504147194923,jump
23/10/2020, 15:57:23,-20.357666,-12.082874,0.45744875,0.40278864,-1.1046784,-0.5795513,23.67783090291134,1.3108900503257108,jump
23/10/2020, 15:57:23,-20.357666,-12.082874,0.45744875,-0.4365399,-0.9605143,-0.6162032,23.67783090291134,1.2218269837208897,jump
23/10/2020, 15:57:23,-23.631659,-13.919854,-1.477727,-0.4365399,-0.9605143,-0.6162032,27.466366764056332,1.2218269837208897,jump
23/10/2020, 15:57:23,-23.631659,-13.919854,-1.477727,-1.4493542,-1.1596563,-0.567334,27.466366764056332,1.940952879578947,jump
23/10/2020, 15:57:23,-25.818312,-14.324613,1.587898,-1.4493542,-1.1596563,-0.567334,29.56858409424895,1.940952879578947,jump
23/10/2020, 15:57:23,-25.818312,-14.324613,1.587898,-2.0480018,-1.2341819,-0.35719642,29.56858409424895,2.417665285438517,jump
23/10/2020, 15:57:23,-24.259153,-12.901971,2.3998096,-2.0480018,-1.2341819,-0.35719642,27.58127009963529,2.417665285438517,jump
23/10/2020, 15:57:23,-24.259153,-12.901971,2.3998096,-2.128636,-1.1437738,-0.22036266,27.58127009963529,2.4264931319515983,jump
23/10/2020, 15:57:23,-23.428082,-13.115128,3.0943654,-2.128636,-1.1437738,-0.22036266,27.026961933064026,2.4264931319515983,jump
23/10/2020, 15:57:23,-23.428082,-13.115128,3.0943654,-2.3167822,-0.9849489,-0.14217193,27.026961933064026,2.521471211781063,jump
23/10/2020, 15:57:23,-24.079527,-13.5797615,5.8965383,-2.3167822,-0.9849489,-0.14217193,28.266635840638028,2.521471211781063,jump
23/10/2020, 15:57:23,-24.079527,-13.5797615,5.8965383,-2.62588,-0.8884322,-0.011446816,28.266635840638028,2.7721270898013732,jump
23/10/2020, 15:57:23,-24.402855,-14.530584,9.733359,-2.62588,-0.8884322,-0.011446816,30.02291613626636,2.7721270898013732,jump
23/10/2020, 15:57:23,-24.402855,-14.530584,9.733359,-3.0302727,-0.93485796,0.20602112,30.02291613626636,3.1778855997184126,jump
23/10/2020, 15:57:23,-23.576572,-15.8238945,13.072017,-3.0302727,-0.93485796,0.20602112,31.25904709336194,3.1778855997184126,jump
23/10/2020, 15:57:23,-23.576572,-15.8238945,13.072017,-3.281949,-1.0790222,0.39172408,31.25904709336194,3.4769133033218624,jump
23/10/2020, 15:57:23,-21.605473,-16.719631,15.2538805,-3.281949,-1.0790222,0.39172408,31.289349344073553,3.4769133033218624,jump
23/10/2020, 15:57:23,-21.605473,-16.719631,15.2538805,-3.2110887,-1.1987517,0.40149793,31.289349344073553,3.450984868565229,jump
23/10/2020, 15:57:23,-19.402054,-17.914747,14.9305525,-3.2110887,-1.1987517,0.40149793,30.336434513335394,3.450984868565229,jump
23/10/2020, 15:57:23,-19.402054,-17.914747,14.9305525,-2.9496386,-1.2048603,0.2133515,30.336434513335394,3.1933642414468024,jump
23/10/2020, 15:57:23,-17.627344,-18.719473,12.590618,-2.9496386,-1.2048603,0.2133515,28.629802500387537,3.1933642414468024,jump
23/10/2020, 15:57:23,-17.627344,-18.719473,12.590618,-2.5330286,-1.174317,-0.050542176,28.629802500387537,2.792455699738899,jump
23/10/2020, 15:57:23,-17.021404,-18.695522,10.583591,-2.5330286,-1.174317,-0.050542176,27.409180319702475,2.792455699738899,jump
23/10/2020, 15:57:23,-17.021404,-18.695522,10.583591,-1.9465983,-1.1511042,-0.17027172,27.409180319702475,2.2678796869900126,jump
23/10/2020, 15:57:23,-16.211887,-17.210611,9.721385,-1.9465983,-1.1511042,-0.17027172,25.56434550176767,2.2678796869900126,jump
23/10/2020, 15:57:23,-16.211887,-17.210611,9.721385,-1.0070878,-1.1083436,-0.2215844,25.56434550176767,1.5138530553011362,jump
23/10/2020, 15:57:23,-14.68626,-15.668219,9.285491,-1.0070878,-1.1083436,-0.2215844,23.396573611600854,1.5138530553011362,jump
23/10/2020, 15:57:23,-14.68626,-15.668219,9.285491,0.053373836,-0.95440567,-0.2386886,23.396573611600854,0.9852467659085815,jump
23/10/2020, 15:57:23,-13.670772,-13.833633,6.974297,0.053373836,-0.95440567,-0.2386886,20.661564052120966,0.9852467659085815,jump
23/10/2020, 15:57:23,-13.670772,-13.833633,6.974297,0.9183587,-0.79558074,-0.15805443,20.661564052120966,1.225280618797738,jump
23/10/2020, 15:57:24,-6.593489,-6.5288234,4.0356083,-0.054138403,-0.65874696,-0.7066112,10.118585295901852,0.9675628825960846,jump
23/10/2020, 15:57:24,-6.593489,-6.5288234,4.0356083,-0.28015846,-1.0606961,-0.8862055,10.118585295901852,1.4102925975677714,jump
23/10/2020, 15:57:24,-10.274634,-8.087981,8.490345,-0.28015846,-1.0606961,-0.8862055,15.590686635880788,1.4102925975677714,jump
23/10/2020, 15:57:24,-10.274634,-8.087981,8.490345,-0.43898335,-1.4980755,-0.8947576,15.590686635880788,1.799313134378513,jump
23/10/2020, 15:57:24,-13.146263,-7.8772197,6.3132715,-0.43898335,-1.4980755,-0.8947576,16.57504815208381,1.799313134378513,jump
23/10/2020, 15:57:24,-13.146263,-7.8772197,6.3132715,-0.09812069,-1.5897052,-0.7176068,16.57504815208381,1.74692583673764,jump
23/10/2020, 15:57:24,-16.044237,-9.062755,3.647615,-0.09812069,-1.5897052,-0.7176068,18.78446596718109,1.74692583673764,jump
23/10/2020, 15:57:24,-16.044237,-9.062755,3.647615,0.11934725,-1.4345455,-0.4060656,18.78446596718109,1.4956784042324454,jump
23/10/2020, 15:57:24,-18.290766,-10.789563,-1.2358302,0.11934725,-1.4345455,-0.4060656,21.271907813344868,1.4956784042324454,jump
23/10/2020, 15:57:24,-18.290766,-10.789563,-1.2358302,-0.11400318,-1.0668048,-0.22402784,21.271907813344868,1.0960189823439581,jump
23/10/2020, 15:57:24,-21.404291,-12.700789,-3.3506324,-0.11400318,-1.0668048,-0.22402784,25.11335242713268,1.0960189823439581,jump
23/10/2020, 15:57:24,-21.404291,-12.700789,-3.3506324,-0.6625599,-0.5536782,-0.11040695,25.11335242713268,0.8704797045985594,jump
23/10/2020, 15:57:24,-26.728418,-13.122313,-2.1267774,-0.6625599,-0.5536782,-0.11040695,29.85174393912768,0.8704797045985594,jump
23/10/2020, 15:57:24,-26.728418,-13.122313,-2.1267774,-1.7120261,-0.35942313,0.17181268,29.85174393912768,1.7577650633715591,jump
23/10/2020, 15:57:24,-28.76658,-10.981165,1.7411792,-1.7120261,-0.35942313,0.17181268,30.84045795273069,1.7577650633715591,jump
23/10/2020, 15:57:24,-28.76658,-10.981165,1.7411792,-2.6087759,-0.4388356,0.41127175,30.84045795273069,2.677206115729278,jump
23/10/2020, 15:57:24,-26.6901,-11.54639,4.3397756,-2.6087759,-0.4388356,0.41127175,29.402622112983178,2.677206115729278,jump
23/10/2020, 15:57:24,-26.6901,-11.54639,4.3397756,-2.9581907,-0.60865605,0.37706333,29.402622112983178,3.043604941533287,jump
23/10/2020, 15:57:24,-24.651937,-15.31136,6.0522146,-2.9581907,-0.60865605,0.37706333,29.64430939720801,3.043604941533287,jump
23/10/2020, 15:57:24,-24.651937,-15.31136,6.0522146,-3.0229423,-0.61232126,0.35385045,29.64430939720801,3.1045656126690844,jump
23/10/2020, 15:57:24,-24.402855,-16.968714,10.394385,-3.0229423,-0.61232126,0.35385045,31.487772570504,3.1045656126690844,jump
23/10/2020, 15:57:24,-24.402855,-16.968714,10.394385,-3.1634412,-0.5854432,0.3636243,31.487772570504,3.2376421174262644,jump
23/10/2020, 15:57:24,-24.620802,-15.713724,14.315032,-3.1634412,-0.5854432,0.3636243,32.52729861222697,3.2376421174262644,jump
23/10/2020, 15:57:24,-24.620802,-15.713724,14.315032,-3.6557984,-0.73082906,0.4295977,32.52729861222697,3.7528026197237696,jump
23/10/2020, 15:57:24,-23.617289,-14.707815,16.48492,-3.6557984,-0.73082906,0.4295977,32.33958489760943,3.7528026197237696,jump
23/10/2020, 15:57:24,-23.617289,-14.707815,16.48492,-4.083404,-0.9067582,0.52000576,32.33958489760943,4.215068820096095,jump
23/10/2020, 15:57:24,-21.730013,-15.371236,15.217955,-4.083404,-0.9067582,0.52000576,30.660308138206855,4.215068820096095,jump
23/10/2020, 15:57:24,-21.730013,-15.371236,15.217955,-3.9367964,-0.8884322,0.44303674,30.660308138206855,4.060044265381047,jump
23/10/2020, 15:57:24,-20.76003,-16.97111,11.450589,-3.9367964,-0.8884322,0.44303674,29.156704599440904,4.060044265381047,jump
23/10/2020, 15:57:24,-20.76003,-16.97111,11.450589,-3.2795055,-0.8102415,0.3636243,29.156704599440904,3.3976271460267617,jump
23/10/2020, 15:57:25,0.51492923,0.7448511,0.68018556,0.41622767,0.06573893,0.3440766,1.1325227096099566,0.5440181874836769,jump
23/10/2020, 15:57:25,0.51492923,0.7448511,0.68018556,0.16699474,0.084064886,0.23167746,1.1325227096099566,0.2977055444113474,jump
23/10/2020, 15:57:25,0.21076173,1.0873389,1.3507911,0.16699474,0.084064886,0.23167746,1.746815110001,0.2977055444113474,jump
23/10/2020, 15:57:25,0.21076173,1.0873389,1.3507911,-0.049251486,0.082843155,0.124165215,1.746815110001,0.15718046197626417,jump
23/10/2020, 15:57:25,0.21076173,1.0873389,1.3507911,-0.29604095,0.05474336,0.049639687,1.746815110001,0.3051248587813538,jump
23/10/2020, 15:57:25,-0.39278322,0.6346802,1.1088941,-0.29604095,0.05474336,0.049639687,1.3366913551841566,0.3051248587813538,jump
23/10/2020, 15:57:25,-0.8262818,-0.18681154,1.3962965,-0.29604095,0.05474336,0.049639687,1.6331821879865551,0.3051248587813538,jump
23/10/2020, 15:57:25,-0.8262818,-0.18681154,1.3962965,-0.48785257,0.0022089682,-0.06520294,1.6331821879865551,0.49219552602637634,jump
23/10/2020, 15:57:25,-1.1927198,-1.6166383,2.1243825,-0.48785257,0.0022089682,-0.06520294,2.9238845656321106,0.49219552602637634,jump
23/10/2020, 15:57:25,-1.1927198,-1.6166383,2.1243825,-0.49151775,-0.113855384,-0.21914093,2.9238845656321106,0.5500686298336469,jump
23/10/2020, 15:57:25,-1.585503,-3.1494508,2.6081765,-0.49151775,-0.113855384,-0.21914093,4.385823116942361,0.5500686298336469,jump
23/10/2020, 15:57:25,-1.585503,-3.1494508,2.6081765,-0.34979707,-0.27023685,-0.38163102,4.385823116942361,0.5839761794046309,jump
23/10/2020, 15:57:25,-1.7292042,-4.311035,2.3495142,-0.34979707,-0.27023685,-0.38163102,5.205323083079015,0.5839761794046309,jump
23/10/2020, 15:57:25,-1.7292042,-4.311035,2.3495142,-0.20685466,-0.382636,-0.56122535,5.205323083079015,0.7100514518109503,jump
23/10/2020, 15:57:25,-1.8345851,-4.646338,1.7339942,-0.20685466,-0.382636,-0.56122535,5.2878062658261005,0.7100514518109503,jump
23/10/2020, 15:57:25,-1.8345851,-4.646338,1.7339942,-0.07979474,-0.42050964,-0.74448484,5.2878062658261005,0.8587509737343106,jump
23/10/2020, 15:57:25,-2.550696,-4.5457473,0.9053174,-0.07979474,-0.42050964,-0.74448484,5.290507303716943,0.8587509737343106,jump
23/10/2020, 15:57:25,-2.550696,-4.5457473,0.9053174,0.107129954,-0.40584886,-0.8874273,5.290507303716943,0.9816910333896891,jump
23/10/2020, 15:57:25,-3.661985,-4.8355446,0.90771246,0.107129954,-0.40584886,-0.8874273,6.133234620669634,0.9816910333896891,jump
23/10/2020, 15:57:25,-3.661985,-4.8355446,0.90771246,0.29894158,-0.43517038,-0.9912743,6.133234620669634,1.123104653927427,jump
23/10/2020, 15:57:25,-5.6522465,-6.205496,2.9338992,0.29894158,-0.43517038,-0.9912743,8.89178458311203,1.123104653927427,jump
23/10/2020, 15:57:25,-5.6522465,-6.205496,2.9338992,0.35758463,-0.61232126,-0.9961612,8.89178458311203,1.2227596934837273,jump
23/10/2020, 15:57:25,-8.248447,-6.8808913,5.233118,0.35758463,-0.61232126,-0.9961612,11.94860137473499,1.2227596934837273,jump
23/10/2020, 15:57:25,-8.248447,-6.8808913,5.233118,0.57138735,-0.8591107,-0.98394394,11.94860137473499,1.4257280235322822,jump
23/10/2020, 15:57:25,-10.976375,-6.7324004,4.351751,0.57138735,-0.8591107,-0.98394394,13.592047335828797,1.4257280235322822,jump
23/10/2020, 15:57:25,-10.976375,-6.7324004,4.351751,1.1150572,-0.95440567,-0.92896605,13.592047335828797,1.7370148858824295,jump
23/10/2020, 15:57:25,-14.631175,-7.89638,3.63564,1.1150572,-0.95440567,-0.92896605,17.01887119904338,1.7370148858824295,jump
23/10/2020, 15:57:25,-14.631175,-7.89638,3.63564,1.0991747,-0.85178035,-0.7469283,17.01887119904338,1.5784855796212658,jump
23/10/2020, 15:57:25,-19.066751,-10.121353,2.4884255,1.0991747,-0.85178035,-0.7469283,21.7295895730811,1.5784855796212658,jump
23/10/2020, 15:57:25,-19.066751,-10.121353,2.4884255,0.22075085,-0.5805563,-0.5270169,21.7295895730811,0.8145694051285021,jump
23/10/2020, 15:57:26,0.23471193,-1.5160475,-1.4489869,-0.15432027,0.027865298,0.13882597,2.110225733485292,0.2094370308269521,jump
23/10/2020, 15:57:26,0.16525635,-1.81782,-1.8130299,-0.15432027,0.027865298,0.13882597,2.5727138216252676,0.2094370308269521,jump
23/10/2020, 15:57:26,0.16525635,-1.81782,-1.8130299,0.10590822,0.03153049,0.089956775,2.5727138216252676,0.14248840201030882,jump
23/10/2020, 15:57:26,-0.050295413,-1.7890797,-1.8274,0.10590822,0.03153049,0.089956775,2.5578753541523755,0.14248840201030882,jump
23/10/2020, 15:57:26,-0.050295413,-1.7890797,-1.8274,0.38446268,0.08162142,0.030092005,2.5578753541523755,0.3941816093992577,jump
23/10/2020, 15:57:26,-0.6849756,-1.1879297,-1.5184424,0.38446268,0.08162142,0.030092005,2.045980448145534,0.3941816093992577,jump
23/10/2020, 15:57:26,-0.6849756,-1.1879297,-1.5184424,0.6715692,0.16714253,-0.024885846,2.045980448145534,0.6925035431987874,jump
23/10/2020, 15:57:26,-1.3004956,-0.021555176,-1.6166383,0.6715692,0.16714253,-0.024885846,2.0749151542065496,0.6925035431987874,jump
23/10/2020, 15:57:26,-1.3004956,-0.021555176,-1.6166383,0.8059595,0.21479,-0.105520025,2.0749151542065496,0.8407377549944255,jump
23/10/2020, 15:57:26,-1.7842896,1.089734,-1.4322218,0.8059595,0.21479,-0.105520025,2.5342589982525223,0.8407377549944255,jump
23/10/2020, 15:57:26,-1.7842896,1.089734,-1.4322218,0.6850083,0.23678114,-0.19959325,2.5342589982525223,0.751757356915707,jump
23/10/2020, 15:57:26,-1.9926564,1.8705103,-1.0609937,0.6850083,0.23678114,-0.19959325,2.9317564413823267,0.751757356915707,jump
23/10/2020, 15:57:26,-1.9926564,1.8705103,-1.0609937,0.36369327,0.23433767,-0.28511435,2.9317564413823267,0.5181477865751024,jump
23/10/2020, 15:57:26,-2.201023,1.9303858,-0.14130616,0.36369327,0.23433767,-0.28511435,2.9310168152170997,0.5181477865751024,jump
23/10/2020, 15:57:26,-2.201023,1.9303858,-0.14130616,0.011835015,0.24288979,-0.3523095,2.9310168152170997,0.4280858546247674,jump
23/10/2020, 15:57:26,-2.2656887,1.1184741,0.5029541,0.011835015,0.24288979,-0.3523095,2.5762942992580293,0.4280858546247674,jump
23/10/2020, 15:57:26,-2.2656887,1.1184741,0.5029541,-0.30092788,0.20135097,-0.44393924,2.5762942992580293,0.5728715816784521,jump
23/10/2020, 15:57:26,-2.7183473,-0.040715333,2.315984,-0.30092788,0.20135097,-0.44393924,3.5713935346693306,0.5728715816784521,jump
23/10/2020, 15:57:26,-2.7183473,-0.040715333,2.315984,-0.4121053,0.04619125,-0.5661123,3.5713935346693306,0.7017460485777343,jump
23/10/2020, 15:57:26,-2.8979738,-1.1879297,4.143384,-0.4121053,0.04619125,-0.5661123,5.19394454142085,0.7017460485777343,jump
23/10/2020, 15:57:26,-2.8979738,-1.1879297,4.143384,-0.25205866,-0.18960264,-0.6662941,5.19394454142085,0.7371774228753304,jump
23/10/2020, 15:57:26,-2.9578493,-2.196233,4.7469287,-0.25205866,-0.18960264,-0.6662941,6.008797202041799,0.7371774228753304,jump
23/10/2020, 15:57:26,-2.9578493,-2.196233,4.7469287,0.10468649,-0.38507947,-0.7261589,6.008797202041799,0.8285844765793213,jump
23/10/2020, 15:57:26,-2.2106032,-2.811753,4.023633,0.10468649,-0.38507947,-0.7261589,5.383525271080618,0.8285844765793213,jump
23/10/2020, 15:57:26,-2.2106032,-2.811753,4.023633,0.49319664,-0.41684443,-0.8287842,5.383525271080618,1.0506595521588298,jump
23/10/2020, 15:57:26,-2.1818628,-3.1255007,3.06802,0.49319664,-0.41684443,-0.8287842,4.8930590917379675,1.0506595521588298,jump
23/10/2020, 15:57:26,-2.1818628,-3.1255007,3.06802,0.7045559,-0.35942313,-0.8238973,4.8930590917379675,1.1420992986978868,jump
23/10/2020, 15:57:26,-3.2284865,-2.323169,2.9530592,0.7045559,-0.35942313,-0.8238973,4.95386698585103,1.1420992986978868,jump
23/10/2020, 15:57:26,-3.2284865,-2.323169,2.9530592,0.74487305,-0.31177565,-0.8214538,4.95386698585103,1.1518794538783066,jump
23/10/2020, 15:57:26,-4.5864625,-1.2310401,3.8272414,0.74487305,-0.31177565,-0.8214538,6.099088039448252,1.1518794538783066,jump
23/10/2020, 15:57:27,2.7375073,2.411785,-3.4009278,1.2079086,0.48967925,-0.5648905,4.987681082029321,1.420538737867797,jump
23/10/2020, 15:57:27,2.7375073,2.411785,-3.4009278,1.2042434,0.6228478,-0.48914325,4.987681082029321,1.4413197827135937,jump
23/10/2020, 15:57:27,3.2093263,2.7231374,-3.68354,1.2042434,0.6228478,-0.48914325,5.593185137649872,1.4413197827135937,jump
23/10/2020, 15:57:27,3.2093263,2.7231374,-3.68354,0.93301946,0.7254731,-0.37063545,5.593185137649872,1.2386311700591455,jump
23/10/2020, 15:57:27,3.295547,2.7901978,-3.5110989,0.93301946,0.7254731,-0.37063545,5.56539750062931,1.2386311700591455,jump
23/10/2020, 15:57:27,3.295547,2.7901978,-3.5110989,0.50541395,0.7767858,-0.20814535,5.56539750062931,0.9498230951769798,jump
23/10/2020, 15:57:27,2.8764186,2.7614577,-2.9817994,0.50541395,0.7767858,-0.20814535,4.979011938457294,0.9498230951769798,jump
23/10/2020, 15:57:27,2.8764186,2.7614577,-2.9817994,0.074143246,0.79389,0.021539895,4.979011938457294,0.7976355803885711,jump
23/10/2020, 15:57:27,2.4668703,2.215393,-2.5051906,0.074143246,0.79389,0.021539895,4.155646225517678,0.7976355803885711,jump
23/10/2020, 15:57:27,2.4668703,2.215393,-2.5051906,-0.24717176,0.78778136,0.23900783,4.155646225517678,0.8595452806492516,jump
23/10/2020, 15:57:27,1.954336,0.9627979,-1.1615845,-0.24717176,0.78778136,0.23900783,2.4689446502195787,0.8595452806492516,jump
23/10/2020, 15:57:27,1.954336,0.9627979,-1.1615845,-0.33391458,0.73036003,0.3843937,2.4689446502195787,0.8903275975202587,jump
23/10/2020, 15:57:27,1.1591895,-0.7161109,0.13891114,-0.33391458,0.73036003,0.3843937,1.3696099137349582,0.8903275975202587,jump
23/10/2020, 15:57:27,1.1591895,-0.7161109,0.13891114,-0.22518061,0.59596974,0.4576975,1.3696099137349582,0.7844572938089166,jump
23/10/2020, 15:57:27,0.5508545,-1.9423609,1.331631,-0.22518061,0.59596974,0.4576975,2.4185630939206093,0.7844572938089166,jump
23/10/2020, 15:57:27,0.5508545,-1.9423609,1.331631,-0.024816886,0.4395883,0.4540323,2.4185630939206093,0.63245481246157,jump
23/10/2020, 15:57:27,0.21794678,-2.1219873,1.7507594,-0.024816886,0.4395883,0.4540323,2.7596176240532877,0.63245481246157,jump
23/10/2020, 15:57:27,0.21794678,-2.1219873,1.7507594,0.2024249,0.31252837,0.4051631,2.7596176240532877,0.5502789910198602,jump
23/10/2020, 15:57:27,0.035925295,-1.6070582,1.3819263,0.2024249,0.31252837,0.4051631,2.1198223684834114,0.5502789910198602,jump
23/10/2020, 15:57:27,0.035925295,-1.6070582,1.3819263,0.41744938,0.2355594,0.3269724,2.1198223684834114,0.5802268254324171,jump
23/10/2020, 15:57:27,-0.05269043,-1.0466236,0.5508545,0.41744938,0.2355594,0.3269724,1.1839078935473737,0.5802268254324171,jump
23/10/2020, 15:57:27,-0.05269043,-1.0466236,0.5508545,0.57016563,0.19524232,0.24633822,1.1839078935473737,0.6510690670081736,jump
23/10/2020, 15:57:27,-0.2706372,-0.6227051,0.4742139,0.57016563,0.19524232,0.24633822,0.8281817233829872,0.6510690670081736,jump
23/10/2020, 15:57:27,-0.2706372,-0.6227051,0.4742139,0.5726091,0.18058155,0.19624728,0.8281817233829872,0.6316675585462503,jump
23/10/2020, 15:57:27,-0.5340894,-0.05748047,0.25147706,0.5726091,0.18058155,0.19624728,0.5931240933853199,0.6316675585462503,jump
23/10/2020, 15:57:27,-0.5340894,-0.05748047,0.25147706,0.4504361,0.20257269,0.17059095,0.5931240933853199,0.5225223766638039,jump
23/10/2020, 15:57:27,-0.8861573,0.34727785,-0.12454102,0.4504361,0.20257269,0.17059095,0.9598891008190554,0.5225223766638039,jump
23/10/2020, 15:57:27,-0.8861573,0.34727785,-0.12454102,0.21097702,0.24044633,0.14982153,0.9598891008190554,0.3532311304723494,jump
23/10/2020, 15:57:27,-1.223855,0.62749517,-0.28979737,0.21097702,0.24044633,0.14982153,1.4055439543673232,0.3532311304723494,jump
23/10/2020, 15:57:27,-1.223855,0.62749517,-0.28979737,-0.09689896,0.2758765,0.10828273,1.4055439543673232,0.3118050619757565,jump
23/10/2020, 15:57:28,-5.944439,-8.008945,4.133804,-0.29726267,-0.053990614,0.77290386,10.796661332610656,0.8298556842738091,jump
23/10/2020, 15:57:28,-5.944439,-8.008945,4.133804,0.28916773,0.05596509,0.7838994,10.796661332610656,0.8374057434387868,jump
23/10/2020, 15:57:28,-4.988826,-6.2965064,3.5925295,0.28916773,0.05596509,0.7838994,8.800036602864012,0.8374057434387868,jump
23/10/2020, 15:57:28,-4.988826,-6.2965064,3.5925295,0.7192167,0.1256037,0.74846923,8.800036602864012,1.0455884239172843,jump
23/10/2020, 15:57:28,-4.018843,-4.5385623,3.1494508,0.7192167,0.1256037,0.74846923,6.831448484571424,1.0455884239172843,jump
23/10/2020, 15:57:28,-4.018843,-4.5385623,3.1494508,1.0270926,0.07306931,0.6238528,6.831448484571424,1.2039313048855529,jump
23/10/2020, 15:57:28,-2.682422,-2.8093581,1.9974464,1.0270926,0.07306931,0.6238528,4.367799515719715,1.2039313048855529,jump
23/10/2020, 15:57:28,-2.682422,-2.8093581,1.9974464,1.1321614,0.022978378,0.4540323,4.367799515719715,1.220025706627127,jump
23/10/2020, 15:57:28,-1.1112891,-1.2861255,0.37362307,1.1321614,0.022978378,0.4540323,1.7403093598207058,1.220025706627127,jump
23/10/2020, 15:57:28,-1.1112891,-1.2861255,0.37362307,1.0405316,0.0022089682,0.26832935,1.7403093598207058,1.0745750810381307,jump
23/10/2020, 15:57:28,0.102985844,0.26345217,-1.1232642,1.0405316,0.0022089682,0.26832935,1.1583331039143772,1.0745750810381307,jump
23/10/2020, 15:57:28,0.102985844,0.26345217,-1.1232642,0.8157334,0.019313188,0.11194792,1.1583331039143772,0.8236056528057459,jump
23/10/2020, 15:57:28,0.99393314,1.5495777,-2.5339308,0.8157334,0.019313188,0.11194792,3.1320758879936137,0.8236056528057459,jump
23/10/2020, 15:57:28,0.99393314,1.5495777,-2.5339308,0.5823829,0.03641741,0.011766055,3.1320758879936137,0.5836390410703776,jump
23/10/2020, 15:57:28,1.7579445,2.335144,-3.3578174,0.5823829,0.03641741,0.011766055,4.451764168369384,0.5836390410703776,jump
23/10/2020, 15:57:28,1.7579445,2.335144,-3.3578174,0.40278864,0.075512774,-0.012668546,4.451764168369384,0.41000165720224685,jump
23/10/2020, 15:57:28,2.2441335,2.5770411,-3.8535867,0.40278864,0.075512774,-0.012668546,5.150476325398967,0.41000165720224685,jump
23/10/2020, 15:57:28,2.2441335,2.5770411,-3.8535867,0.23785508,0.1500383,0.0081008645,5.150476325398967,0.28133992537577945,jump
23/10/2020, 15:57:28,2.4860303,2.3686745,-4.129014,0.23785508,0.1500383,0.0081008645,5.370262801393163,0.28133992537577945,jump
23/10/2020, 15:57:28,2.4860303,2.3686745,-4.129014,0.0558173,0.2477767,0.048417956,5.370262801393163,0.25855978675552815,jump
23/10/2020, 15:57:28,2.2848487,1.9112257,-3.6332448,0.0558173,0.2477767,0.048417956,4.698274636220879,0.25855978675552815,jump
23/10/2020, 15:57:28,2.2848487,1.9112257,-3.6332448,-0.11644664,0.29420245,0.096065424,4.698274636220879,0.33067123359211115,jump
23/10/2020, 15:57:28,1.5471827,1.2813355,-3.2428565,-0.11644664,0.29420245,0.096065424,3.8146707765267234,0.33067123359211115,jump
23/10/2020, 15:57:28,1.5471827,1.2813355,-3.2428565,-0.22395888,0.305198,0.152265,3.8146707765267234,0.40802945584771855,jump
23/10/2020, 15:57:28,0.6394702,0.31853762,-3.0296998,-0.22395888,0.305198,0.152265,3.1127912348075175,0.40802945584771855,jump
23/10/2020, 15:57:28,0.6394702,0.31853762,-3.0296998,-0.3107017,0.3003111,0.24878168,3.1127912348075175,0.49861269531078556,jump
23/10/2020, 15:57:28,-0.31135255,-0.53169435,-2.4716604,-0.3107017,0.3003111,0.24878168,2.547301377518176,0.49861269531078556,jump
23/10/2020, 15:57:28,-0.31135255,-0.53169435,-2.4716604,-0.35957092,0.24411152,0.396611,2.547301377518176,0.5883723071863272,jump
23/10/2020, 15:57:28,-0.98435307,-0.8933423,-1.2789404,-0.35957092,0.24411152,0.396611,1.8446409131452979,0.5883723071863272,jump
23/10/2020, 15:57:28,-0.98435307,-0.8933423,-1.2789404,-0.3143669,0.137821,0.5627663,1.8446409131452979,0.6591866995768184,jump
23/10/2020, 15:57:29,-13.244458,-11.177557,8.351434,-1.1475868,-1.3025987,0.3477418,19.237980637788567,1.770492387786271,jump
23/10/2020, 15:57:29,-13.244458,-11.177557,8.351434,-1.0547353,-1.2439556,0.28787702,19.237980637788567,1.6561296159465289,jump
23/10/2020, 15:57:29,-11.345208,-9.8866415,6.0498195,-1.0547353,-1.2439556,0.28787702,16.21911662777844,1.6561296159465289,jump
23/10/2020, 15:57:29,-11.345208,-9.8866415,6.0498195,-1.0119748,-1.1376652,0.3281941,16.21911662777844,1.5575899310875012,jump
23/10/2020, 15:57:29,-9.551338,-8.528665,4.4475513,-1.0119748,-1.1376652,0.3281941,13.555327112484212,1.5575899310875012,jump
23/10/2020, 15:57:29,-9.551338,-8.528665,4.4475513,-0.95821863,-1.0191573,0.3355245,13.555327112484212,1.4385552555237122,jump
23/10/2020, 15:57:29,-8.260423,-7.173084,3.8703518,-0.95821863,-1.0191573,0.3355245,11.604625682340448,1.4385552555237122,jump
23/10/2020, 15:57:29,-8.260423,-7.173084,3.8703518,-0.7932851,-0.91286683,0.31597683,11.604625682340448,1.2499873647711242,jump
23/10/2020, 15:57:29,-7.209009,-5.7696023,2.7207422,-0.7932851,-0.91286683,0.31597683,9.626035641156879,1.2499873647711242,jump
23/10/2020, 15:57:29,-7.209009,-5.7696023,2.7207422,-0.67355555,-0.807798,0.30131605,9.626035641156879,1.0940777397198327,jump
23/10/2020, 15:57:29,-6.11688,-4.1146436,1.4609619,-0.67355555,-0.807798,0.30131605,7.51537901398695,1.0940777397198327,jump
23/10/2020, 15:57:29,-6.11688,-4.1146436,1.4609619,-0.5868127,-0.6672991,0.229234,7.51537901398695,0.9177066077883959,jump
23/10/2020, 15:57:29,-4.641548,-2.2225783,0.050295413,-0.5868127,-0.6672991,0.229234,5.146489401741834,0.9177066077883959,jump
23/10/2020, 15:57:29,-4.641548,-2.2225783,0.050295413,-0.42310086,-0.47793093,0.0019922145,5.146489401741834,0.6383073575386189,jump
23/10/2020, 15:57:29,-2.8404932,-0.12933107,-1.7483643,-0.42310086,-0.47793093,0.0019922145,3.337949368226583,0.6383073575386189,jump
23/10/2020, 15:57:29,-2.8404932,-0.12933107,-1.7483643,-0.22395888,-0.30444527,-0.26434493,3.337949368226583,0.46121875784790484,jump
23/10/2020, 15:57:29,-0.95561284,1.3507911,-3.3051271,-0.22395888,-0.30444527,-0.26434493,3.696173415930608,0.46121875784790484,jump
23/10/2020, 15:57:29,-0.95561284,1.3507911,-3.3051271,-0.060247052,-0.113855384,-0.46348694,3.696173415930608,0.4810539461489913,jump
23/10/2020, 15:57:29,1.1615845,2.323169,-3.9445972,-0.060247052,-0.113855384,-0.46348694,4.722948245743189,0.4810539461489913,jump
23/10/2020, 15:57:29,1.1615845,2.323169,-3.9445972,0.041156538,0.09994737,-0.5624471,4.722948245743189,0.5727390725759609,jump
23/10/2020, 15:57:29,3.173401,3.0129347,-3.8487966,0.041156538,0.09994737,-0.5624471,5.827648357689164,0.5727390725759609,jump
23/10/2020, 15:57:29,3.173401,3.0129347,-3.8487966,0.14744705,0.3418499,-0.5502298,5.827648357689164,0.66434539316789,jump
23/10/2020, 15:57:29,4.512217,3.2859669,-3.3865578,0.14744705,0.3418499,-0.5502298,6.5288938421615015,0.66434539316789,jump
23/10/2020, 15:57:29,4.512217,3.2859669,-3.3865578,0.27328524,0.51411384,-0.4305002,6.5288938421615015,0.7241051695841222,jump
23/10/2020, 15:57:29,5.3121533,2.8285182,-2.7494826,0.27328524,0.51411384,-0.4305002,6.616580898062983,0.7241051695841222,jump
23/10/2020, 15:57:29,5.3121533,2.8285182,-2.7494826,0.35636288,0.66560835,-0.2704536,6.616580898062983,0.801981373525559,jump
23/10/2020, 15:57:29,5.1732426,1.7579445,-2.567461,0.35636288,0.66560835,-0.2704536,6.036941566361547,0.801981373525559,jump
23/10/2020, 15:57:29,5.1732426,1.7579445,-2.567461,0.25740275,0.78289443,-0.12506771,6.036941566361547,0.8335597155718028,jump
23/10/2020, 15:57:29,4.045188,1.092129,-2.0285816,0.25740275,0.78289443,-0.12506771,4.65525881914907,0.8335597155718028,jump
23/10/2020, 15:57:29,4.045188,1.092129,-2.0285816,0.044821728,0.812216,-4.512458E-4,4.65525881914907,0.8134519010830628,jump
23/10/2020, 15:57:30,-26.864935,-14.295872,7.688013,-1.2355514,-0.4473877,0.8168861,31.387931152677805,1.5472704517452793,jump
23/10/2020, 15:57:30,-24.663912,-12.957056,7.6353226,-1.2355514,-0.4473877,0.8168861,28.887575155510085,1.5472704517452793,jump
23/10/2020, 15:57:30,-24.663912,-12.957056,7.6353226,-1.6998088,-0.47060058,0.8840813,28.887575155510085,1.9729203563462852,jump
23/10/2020, 15:57:30,-22.934708,-12.315191,7.697593,-1.6998088,-0.47060058,0.8840813,27.146227948929422,1.9729203563462852,jump
23/10/2020, 15:57:30,-22.934708,-12.315191,7.697593,-2.1799486,-0.52557844,0.95738506,27.146227948929422,2.438235963888373,jump
23/10/2020, 15:57:30,-21.219873,-12.078084,7.937095,-2.1799486,-0.52557844,0.95738506,25.6741235662517,2.438235963888373,jump
23/10/2020, 15:57:30,-21.219873,-12.078084,7.937095,-2.5293634,-0.5341305,1.0795581,25.6741235662517,2.80150323010696,jump
23/10/2020, 15:57:30,-19.330204,-12.0182085,8.0305,-2.5293634,-0.5341305,1.0795581,24.136757437039655,2.80150323010696,jump
23/10/2020, 15:57:30,-19.330204,-12.0182085,8.0305,-2.6686406,-0.59277356,1.2334961,24.136757437039655,2.999089156449449,jump
23/10/2020, 15:57:30,-17.560284,-11.929593,7.7502837,-2.6686406,-0.59277356,1.2334961,22.59968254567728,2.999089156449449,jump
23/10/2020, 15:57:30,-17.560284,-11.929593,7.7502837,-2.6539798,-0.6892902,1.4082035,22.59968254567728,3.0824935891310923,jump
23/10/2020, 15:57:30,-15.663428,-11.563155,6.878496,-2.6539798,-0.6892902,1.4082035,20.648565409262133,3.0824935891310923,jump
23/10/2020, 15:57:30,-15.663428,-11.563155,6.878496,-2.4731638,-0.6880685,1.5193809,20.648565409262133,2.983034708128411,jump
23/10/2020, 15:57:30,-13.845609,-11.074571,5.853428,-2.4731638,-0.6880685,1.5193809,18.671090322301062,2.983034708128411,jump
23/10/2020, 15:57:30,-13.845609,-11.074571,5.853428,-2.1946094,-0.6538601,1.5254896,18.671090322301062,2.7515380932820075,jump
23/10/2020, 15:57:30,-12.015814,-10.43031,5.518125,-2.1946094,-0.6538601,1.5254896,16.84104681965661,2.7515380932820075,jump
23/10/2020, 15:57:30,-12.015814,-10.43031,5.518125,-1.7413477,-0.5610086,1.4204208,16.84104681965661,2.3161643897591038,jump
23/10/2020, 15:57:30,-10.413546,-9.572893,5.319339,-1.7413477,-0.5610086,1.4204208,15.112166638697602,2.3161643897591038,jump
23/10/2020, 15:57:30,-10.413546,-9.572893,5.319339,-1.2086734,-0.46082672,1.2615958,15.112166638697602,1.8068969625281988,jump
23/10/2020, 15:57:30,-8.866363,-8.749006,4.981641,-1.2086734,-0.46082672,1.2615958,13.415447857096098,1.8068969625281988,jump
23/10/2020, 15:57:30,-8.866363,-8.749006,4.981641,-0.7150943,-0.39729676,1.0648973,13.415447857096098,1.342836873034825,jump
23/10/2020, 15:57:30,-7.060518,-7.556287,4.591253,-0.7150943,-0.39729676,1.0648973,11.314945166670606,1.342836873034825,jump
23/10/2020, 15:57:30,-7.060518,-7.556287,4.591253,-0.25938904,-0.33621025,0.8291034,11.314945166670606,0.931521590308419,jump
23/10/2020, 15:57:30,-5.199588,-6.253396,3.915857,-0.25938904,-0.33621025,0.8291034,9.026328828712531,0.931521590308419,jump
23/10/2020, 15:57:30,-5.199588,-6.253396,3.915857,0.1816555,-0.2971149,0.5676532,9.026328828712531,0.6659625516098416,jump
23/10/2020, 15:57:30,-3.5853443,-4.8427296,3.4679885,0.1816555,-0.2971149,0.5676532,6.952241919094468,0.6659625516098416,jump
23/10/2020, 15:57:30,-3.5853443,-4.8427296,3.4679885,0.5799395,-0.2690151,0.2988726,6.952241919094468,0.7057079826949085,jump
23/10/2020, 15:57:30,-1.7818946,-3.4847536,2.3590944,0.5799395,-0.2690151,0.2988726,4.569899588925329,0.7057079826949085,jump
23/10/2020, 15:57:30,-1.7818946,-3.4847536,2.3590944,0.8560505,-0.2409153,-4.512458E-4,4.569899588925329,0.8893046881509503,jump
23/10/2020, 15:57:30,0.10538086,-2.1028273,0.83586186,0.8560505,-0.2409153,-4.512458E-4,2.265315182524627,0.8893046881509503,jump
23/10/2020, 15:57:31,-9.163345,-8.085587,4.2128396,0.6336956,0.09383872,-0.099411376,12.926392579158392,0.6482734329127805,jump
23/10/2020, 15:57:31,-9.163345,-8.085587,4.2128396,0.63980424,-0.29222798,-0.3278749,12.926392579158392,0.7760467861892963,jump
23/10/2020, 15:57:31,-12.231365,-11.989469,7.3862405,0.63980424,-0.29222798,-0.3278749,18.65235105589765,0.7760467861892963,jump
23/10/2020, 15:57:31,-12.231365,-11.989469,7.3862405,0.69233865,-0.89331913,-0.7176068,18.65235105589765,1.338772334193384,jump
23/10/2020, 15:57:31,-15.596368,-17.771046,9.968072,0.69233865,-0.89331913,-0.7176068,25.659680679227556,1.338772334193384,jump
23/10/2020, 15:57:31,-15.596368,-17.771046,9.968072,0.080251895,-1.378346,-0.8910924,25.659680679227556,1.643266159168647,jump
23/10/2020, 15:57:31,-18.559008,-22.204227,12.226575,0.080251895,-1.378346,-0.8910924,31.415817911137232,1.643266159168647,jump
23/10/2020, 15:57:31,-18.559008,-22.204227,12.226575,-0.553826,-1.8548207,-0.6846201,31.415817911137232,2.053238369339035,jump
23/10/2020, 15:57:31,-21.701273,-21.979095,15.265855,-0.553826,-1.8548207,-0.6846201,34.45391428172978,2.053238369339035,jump
23/10/2020, 15:57:31,-21.701273,-21.979095,15.265855,-0.7248682,-2.0356367,-0.29244474,34.45391428172978,2.1805445248871633,jump
23/10/2020, 15:57:31,-20.738476,-18.992506,9.333391,-0.7248682,-2.0356367,-0.29244474,29.62957736419219,2.1805445248871633,jump
23/10/2020, 15:57:31,-20.738476,-18.992506,9.333391,-1.1622475,-2.0600712,-0.039546605,29.62957736419219,2.3656451017199394,jump
23/10/2020, 15:57:31,-19.205662,-17.828526,4.629573,-1.1622475,-2.0600712,-0.039546605,26.611026138677683,2.3656451017199394,jump
23/10/2020, 15:57:31,-19.205662,-17.828526,4.629573,-1.5776358,-2.0099802,0.15837365,26.611026138677683,2.560085395607568,jump
23/10/2020, 15:57:31,-18.520687,-18.640438,3.0823903,-1.5776358,-2.0099802,0.15837365,26.457190187142082,2.560085395607568,jump
23/10/2020, 15:57:31,-18.520687,-18.640438,3.0823903,-1.7779995,-1.8083949,0.23045573,26.457190187142082,2.546504326045966,jump
23/10/2020, 15:57:31,-18.063238,-20.592379,2.562671,-1.7779995,-1.8083949,0.23045573,27.511704994429216,2.546504326045966,jump
23/10/2020, 15:57:31,-18.063238,-20.592379,2.562671,-1.4835626,-1.4797496,0.24022956,27.511704994429216,2.1091057247948686,jump
23/10/2020, 15:57:31,-18.470392,-21.433031,4.018843,-1.4835626,-1.4797496,0.24022956,28.577636551177722,2.1091057247948686,jump
23/10/2020, 15:57:31,-18.470392,-21.433031,4.018843,-0.6625599,-1.1083436,0.2341209,28.577636551177722,1.3123352441133906,jump
23/10/2020, 15:57:31,-18.578167,-21.696484,5.5492606,-0.6625599,-1.1083436,0.2341209,29.097765930939467,1.3123352441133906,jump
23/10/2020, 15:57:31,-18.578167,-21.696484,5.5492606,0.0558173,-0.7723679,0.2133515,29.097765930939467,0.803235083487951,jump
23/10/2020, 15:57:31,-18.611698,-21.574337,6.8880763,0.0558173,-0.7723679,0.2133515,29.313698512317877,0.803235083487951,jump
23/10/2020, 15:57:31,-18.611698,-21.574337,6.8880763,0.36247155,-0.54390436,0.22434707,29.313698512317877,0.6910493398596634,jump
23/10/2020, 15:57:31,-18.566193,-20.384012,8.334668,0.36247155,-0.54390436,0.22434707,28.804134360683868,0.6910493398596634,jump
23/10/2020, 15:57:31,-18.566193,-20.384012,8.334668,0.28916773,-0.43639213,0.29276395,28.804134360683868,0.5998056322886407,jump
23/10/2020, 15:57:31,-17.742306,-18.781744,9.326206,0.28916773,-0.43639213,0.29276395,27.468553721514006,0.5998056322886407,jump
23/10/2020, 15:57:31,-17.742306,-18.781744,9.326206,0.010613285,-0.48281786,0.37706333,27.468553721514006,0.6127009744585347,jump
23/10/2020, 15:57:31,-16.554377,-17.936302,10.772799,0.010613285,-0.48281786,0.37706333,26.679795896991457,0.6127009744585347,jump
23/10/2020, 15:57:31,-16.554377,-17.936302,10.772799,-0.32902765,-0.6233168,0.52855784,26.679795896991457,0.8809974159764654,jump
23/10/2020, 15:57:32,0.55324954,1.0777588,-0.46942386,-0.50251335,0.13659927,0.17914306,1.2992335507010864,0.550700700776195,jump
23/10/2020, 15:57:32,-0.39757326,-0.57959473,-0.488584,-0.50251335,0.13659927,0.17914306,0.8559841635123666,0.550700700776195,jump
23/10/2020, 15:57:32,-0.39757326,-0.57959473,-0.488584,-0.24228483,0.04741298,0.11194792,0.8559841635123666,0.2710761289296226,jump
23/10/2020, 15:57:32,-1.0466236,-2.1507277,0.24668702,-0.24228483,0.04741298,0.11194792,2.404559267749824,0.2710761289296226,jump
23/10/2020, 15:57:32,-1.0466236,-2.1507277,0.24668702,0.19631626,-0.031999473,-0.028551036,2.404559267749824,0.20094576565871008,jump
23/10/2020, 15:57:32,-2.1603076,-4.061953,1.341211,0.19631626,-0.031999473,-0.028551036,4.792206036071415,0.20094576565871008,jump
23/10/2020, 15:57:32,-2.1603076,-4.061953,1.341211,0.7106646,-0.18349399,-0.22524957,4.792206036071415,0.7677574780429258,jump
23/10/2020, 15:57:32,-4.1170387,-6.332432,3.2308815,0.7106646,-0.18349399,-0.22524957,8.21512600355089,0.7677574780429258,jump
23/10/2020, 15:57:32,-4.1170387,-6.332432,3.2308815,1.1370484,-0.57200414,-0.43660888,8.21512600355089,1.3456206863877322,jump
23/10/2020, 15:57:32,-7.237749,-8.195757,5.6522465,1.1370484,-0.57200414,-0.43660888,12.308669043064189,1.3456206863877322,jump
23/10/2020, 15:57:32,-7.237749,-8.195757,5.6522465,1.3264165,-1.0203791,-0.57466435,12.308669043064189,1.7694047787013785,jump
23/10/2020, 15:57:32,-9.6758795,-8.358619,6.104905,1.3264165,-1.0203791,-0.57466435,14.168945531957668,1.7694047787013785,jump
23/10/2020, 15:57:32,-9.6758795,-8.358619,6.104905,1.1126137,-1.0729134,-0.5001388,14.168945531957668,1.6245587759693696,jump
23/10/2020, 15:57:32,-11.009905,-7.1443434,4.2200246,1.1126137,-1.0729134,-0.5001388,13.786524392999679,1.6245587759693696,jump
23/10/2020, 15:57:32,-11.009905,-7.1443434,4.2200246,0.53717893,-1.1767606,-0.30466202,13.786524392999679,1.328964090840721,jump
23/10/2020, 15:57:32,-13.893509,-7.95865,5.5588408,0.53717893,-1.1767606,-0.30466202,16.94905342411686,1.328964090840721,jump
23/10/2020, 15:57:32,-13.893509,-7.95865,5.5588408,-0.61735594,-1.6092529,-0.037103146,16.94905342411686,1.7240069591488085,jump
23/10/2020, 15:57:32,-16.583117,-9.10347,10.075848,-0.61735594,-1.6092529,-0.037103146,21.43351633668657,1.7240069591488085,jump
23/10/2020, 15:57:32,-16.583117,-9.10347,10.075848,-1.5116624,-2.3166344,0.10583927,21.43351633668657,2.7682341073966796,jump
23/10/2020, 15:57:32,-18.50871,-11.55118,12.188255,-1.5116624,-2.3166344,0.10583927,24.991112460282626,2.7682341073966796,jump
23/10/2020, 15:57:32,-18.50871,-11.55118,12.188255,-1.9197202,-2.32763,0.09973062,24.991112460282626,3.01879667344645,jump
23/10/2020, 15:57:32,-19.169737,-14.746136,7.0126176,-1.9197202,-2.32763,0.09973062,25.181424408250678,3.01879667344645,jump
23/10/2020, 15:57:32,-19.169737,-14.746136,7.0126176,-1.9062812,-2.0906146,0.2011342,25.181424408250678,2.8363766206331915,jump
23/10/2020, 15:57:32,-20.961212,-17.440533,6.09293,-1.9062812,-2.0906146,0.2011342,27.940443616565673,2.8363766206331915,jump
23/10/2020, 15:57:32,-20.961212,-17.440533,6.09293,-1.4603497,-1.853599,0.35507217,27.940443616565673,2.38632070500583,jump
23/10/2020, 15:57:32,-22.098846,-18.159039,6.8018556,-1.4603497,-1.853599,0.35507217,29.400253973879593,2.38632070500583,jump
23/10/2020, 15:57:32,-22.098846,-18.159039,6.8018556,-0.9117929,-1.5029625,0.62140936,29.400253973879593,1.8645138831732326,jump
23/10/2020, 15:57:32,-23.84242,-17.296831,8.684341,-0.9117929,-1.5029625,0.62140936,30.709268507673947,1.8645138831732326,jump
23/10/2020, 15:57:32,-23.84242,-17.296831,8.684341,-0.26794115,-1.2146342,0.7509127,30.709268507673947,1.45292758651351,jump
23/10/2020, 15:57:32,-25.020771,-17.967438,11.8074465,-0.26794115,-1.2146342,0.7509127,32.98914358132022,1.45292758651351,jump
23/10/2020, 15:57:33,-0.28979737,-2.4764502,0.9388477,0.09613439,0.021756649,0.66294813,2.6642490823426246,0.670235329770517,jump
23/10/2020, 15:57:33,-0.28979737,-2.4764502,0.9388477,0.3001633,-0.011230063,0.53222305,2.6642490823426246,0.6111345930235371,jump
23/10/2020, 15:57:33,-0.43110353,-1.6381935,0.62031007,0.3001633,-0.011230063,0.53222305,1.8039713790991132,0.6111345930235371,jump
23/10/2020, 15:57:33,-0.43110353,-1.6381935,0.62031007,0.3245979,-0.035664663,0.44303674,1.8039713790991132,0.5503792422597177,jump
23/10/2020, 15:57:33,-0.31374758,-1.0346485,-0.15088624,0.3245979,-0.035664663,0.44303674,1.091650951593811,0.5503792422597177,jump
23/10/2020, 15:57:33,-0.31374758,-1.0346485,-0.15088624,0.17065993,-0.06865137,0.3721764,1.091650951593811,0.4151543104491198,jump
23/10/2020, 15:57:33,0.12693603,-0.49337405,-0.85741705,0.17065993,-0.06865137,0.3721764,0.9973438233506048,0.4151543104491198,jump
23/10/2020, 15:57:33,0.12693603,-0.49337405,-0.85741705,-0.05902533,-0.025890823,0.30131605,0.9973438233506048,0.30813258145803213,jump
23/10/2020, 15:57:33,0.5460645,0.021555176,-1.2861255,-0.05902533,-0.025890823,0.30131605,1.397415459330192,0.30813258145803213,jump
23/10/2020, 15:57:33,0.5460645,0.021555176,-1.2861255,-0.28382364,0.10727775,0.25122514,1.397415459330192,0.39392695618394974,jump
23/10/2020, 15:57:33,0.61552006,0.2921924,-1.468147,-0.28382364,0.10727775,0.25122514,1.6185478281485337,0.39392695618394974,jump
23/10/2020, 15:57:33,0.61552006,0.2921924,-1.468147,-0.44631374,0.25755054,0.20479938,1.6185478281485337,0.5545006947787839,jump
23/10/2020, 15:57:33,0.4981641,0.38320315,-1.1232642,-0.44631374,0.25755054,0.20479938,1.2871420123157926,0.5545006947787839,jump
23/10/2020, 15:57:33,0.4981641,0.38320315,-1.1232642,-0.4658614,0.38827565,0.17059095,1.2871420123157926,0.6299889752707277,jump
23/10/2020, 15:57:33,0.26105714,0.2802173,-0.51732427,-0.4658614,0.38827565,0.17059095,0.6436590387874003,0.6299889752707277,jump
23/10/2020, 15:57:33,0.26105714,0.2802173,-0.51732427,-0.40599665,0.5287746,0.14126943,0.6436590387874003,0.6814638141446008,jump
23/10/2020, 15:57:33,0.102985844,-0.2203418,-0.36164796,-0.40599665,0.5287746,0.14126943,0.43582776774789017,0.6814638141446008,jump
23/10/2020, 15:57:33,0.102985844,-0.2203418,-0.36164796,-0.30581477,0.59596974,0.07163083,0.43582776774789017,0.6736717136233165,jump
23/10/2020, 15:57:33,0.06945557,-0.67539555,0.5556446,-0.30581477,0.59596974,0.07163083,0.8773392236078869,0.6736717136233165,jump
23/10/2020, 15:57:33,0.06945557,-0.67539555,0.5556446,-0.14088124,0.6411738,-0.048098717,0.8773392236078869,0.6582285519236166,jump
23/10/2020, 15:57:33,-0.22513184,-0.86220706,1.0609937,-0.14088124,0.6411738,-0.048098717,1.385565921131311,0.6582285519236166,jump
23/10/2020, 15:57:33,-0.22513184,-0.86220706,1.0609937,0.08513881,0.6436172,-0.19837151,1.385565921131311,0.6788541756768326,jump
23/10/2020, 15:57:33,-0.71371585,-0.7664063,2.1148024,0.08513881,0.6436172,-0.19837151,2.359906344255852,0.6788541756768326,jump
23/10/2020, 15:57:33,-0.71371585,-0.7664063,2.1148024,0.2928329,0.5287746,-0.30832723,2.359906344255852,0.6785421070221874,jump
23/10/2020, 15:57:33,-1.3939015,-0.55324954,2.1315675,0.2928329,0.5287746,-0.30832723,2.6062667296108697,0.6785421070221874,jump
23/10/2020, 15:57:33,-1.3939015,-0.55324954,2.1315675,0.47609243,0.21112481,-0.37796584,2.6062667296108697,0.6435028040600047,jump
23/10/2020, 15:57:33,-2.193838,-1.1232642,2.6776319,0.47609243,0.21112481,-0.37796584,3.6392800727540724,0.6435028040600047,jump
23/10/2020, 15:57:33,-2.193838,-1.1232642,2.6776319,0.6178131,-0.035664663,-0.3559747,3.6392800727540724,0.7139208621383404,jump
23/10/2020, 15:57:33,-3.0153298,-2.323169,3.772156,0.6178131,-0.035664663,-0.3559747,5.358963434295151,0.7139208621383404,jump
23/10/2020, 15:57:33,-3.0153298,-2.323169,3.772156,0.8865937,-0.22381109,-0.4060656,5.358963434295151,1.0005144046958863,jump
23/10/2020, 15:57:34,1.9998415,2.7710378,-2.7111623,0.97822344,0.6057436,-0.17393692,4.3621574464523505,1.1636582184142896,jump
23/10/2020, 15:57:34,1.9998415,2.7710378,-2.7111623,0.5689439,0.5727569,-0.017555466,4.3621574464523505,0.8074997380450165,jump
23/10/2020, 15:57:34,2.0237916,2.5051906,-2.4980054,0.5689439,0.5727569,-0.017555466,4.075750626628297,0.8074997380450165,jump
23/10/2020, 15:57:34,2.0237916,2.5051906,-2.4980054,-0.008934394,0.5067835,0.15104327,4.075750626628297,0.5288888283114913,jump
23/10/2020, 15:57:34,1.8681153,1.6741188,-1.8154249,-0.008934394,0.5067835,0.15104327,3.096497383577411,0.5288888283114913,jump
23/10/2020, 15:57:34,1.8681153,1.6741188,-1.8154249,-0.5587129,0.3772801,0.30375952,3.096497383577411,0.7394391191324805,jump
23/10/2020, 15:57:34,1.6381935,0.58677983,-0.728086,-0.5587129,0.3772801,0.30375952,1.886292048559272,0.7394391191324805,jump
23/10/2020, 15:57:34,1.6381935,0.58677983,-0.728086,-0.83848906,0.30275455,0.41860214,1.886292048559272,0.9848613939257006,jump
23/10/2020, 15:57:34,1.2022998,-0.8095166,0.59156984,-0.83848906,0.30275455,0.41860214,1.5655021257108697,0.9848613939257006,jump
23/10/2020, 15:57:34,1.2022998,-0.8095166,0.59156984,-0.69921184,0.3870539,0.46014097,1.5655021257108697,0.9221917553335721,jump
23/10/2020, 15:57:34,0.17244141,-2.1459377,0.8813672,-0.69921184,0.3870539,0.46014097,2.326283027409883,0.9221917553335721,jump
23/10/2020, 15:57:34,0.17244141,-2.1459377,0.8813672,-0.32536247,0.40171468,0.41860214,2.326283027409883,0.6651790556544788,jump
23/10/2020, 15:57:34,-0.7065308,-3.1350808,1.2525953,-0.32536247,0.40171468,0.41860214,3.4491901218155965,0.6651790556544788,jump
23/10/2020, 15:57:34,-0.7065308,-3.1350808,1.2525953,0.060704216,0.27343303,0.36484602,3.4491901218155965,0.45996004454954703,jump
23/10/2020, 15:57:34,-1.0035132,-3.151846,0.79993653,0.060704216,0.27343303,0.36484602,3.403097120643648,0.45996004454954703,jump
23/10/2020, 15:57:34,-1.0035132,-3.151846,0.79993653,0.36735845,0.12071678,0.32330722,3.403097120643648,0.5040360354563006,jump
23/10/2020, 15:57:34,-0.7089258,-2.1363575,0.026345216,0.36735845,0.12071678,0.32330722,2.2510649481556997,0.5040360354563006,jump
23/10/2020, 15:57:34,-0.7089258,-2.1363575,0.026345216,0.5823829,0.03886087,0.2939857,2.2510649481556997,0.6535347108259757,jump
23/10/2020, 15:57:34,-0.21315674,-0.62749517,-0.42152345,0.5823829,0.03886087,0.2939857,0.7854094513134813,0.6535347108259757,jump
23/10/2020, 15:57:34,-0.21315674,-0.62749517,-0.42152345,0.63125217,0.058408547,0.23534264,0.7854094513134813,0.6762226088148289,jump
23/10/2020, 15:57:34,0.05508545,0.52690434,-0.85741705,0.63125217,0.058408547,0.23534264,1.007882229076782,0.6762226088148289,jump
23/10/2020, 15:57:34,0.05508545,0.52690434,-0.85741705,0.50663567,0.14881657,0.1766996,1.007882229076782,0.5568202726671194,jump
23/10/2020, 15:57:34,0.12454102,1.2741505,-0.9029224,0.50663567,0.14881657,0.1766996,1.566601029304146,0.5568202726671194,jump
23/10/2020, 15:57:34,0.12454102,1.2741505,-0.9029224,0.2586245,0.22212037,0.116834834,1.566601029304146,0.3603810041672277,jump
23/10/2020, 15:57:34,0.34009278,1.6621436,-0.68737066,0.2586245,0.22212037,0.116834834,1.8305362128369833,0.3603810041672277,jump
23/10/2020, 15:57:34,0.34009278,1.6621436,-0.68737066,-0.037034184,0.22822903,0.075296015,1.8305362128369833,0.24316560436886187,jump
23/10/2020, 15:57:34,0.53169435,1.4801221,-0.30416748,-0.037034184,0.22822903,0.075296015,1.6018670792400616,0.24316560436886187,jump
23/10/2020, 15:57:34,0.53169435,1.4801221,-0.30416748,-0.28015846,0.2758765,0.055748336,1.6018670792400616,0.397120232095452,jump
23/10/2020, 15:57:34,0.73048097,1.096919,-0.13651612,-0.28015846,0.2758765,0.055748336,1.3249416063512025,0.397120232095452,jump
23/10/2020, 15:57:34,0.73048097,1.096919,-0.13651612,-0.32047555,0.3711714,0.044752765,1.3249416063512025,0.49241812152739567,jump
23/10/2020, 15:57:35,-3.1159205,-4.8834453,-1.1663746,-0.24228483,0.25755054,0.09240024,5.909097062516511,0.36547506666140533,jump
23/10/2020, 15:57:35,-3.1159205,-4.8834453,-1.1663746,0.38201922,0.4310362,-0.16171962,5.909097062516511,0.5982341770767662,jump
23/10/2020, 15:57:35,-1.5016773,-4.648733,-1.5112574,0.38201922,0.4310362,-0.16171962,5.113673180286613,0.5982341770767662,jump
23/10/2020, 15:57:35,-1.5016773,-4.648733,-1.5112574,1.0038798,0.66560835,-0.37185717,5.113673180286613,1.260589880497582,jump
23/10/2020, 15:57:35,-0.2706372,-3.5206788,-1.8010547,1.0038798,0.66560835,-0.37185717,3.963864467099083,1.260589880497582,jump
23/10/2020, 15:57:35,-0.2706372,-3.5206788,-1.8010547,1.5487714,0.870859,-0.5795513,3.963864467099083,1.8689483465700112,jump
23/10/2020, 15:57:35,0.8262818,-1.4944923,-2.42855,1.5487714,0.870859,-0.5795513,2.9688556597550875,1.8689483465700112,jump
23/10/2020, 15:57:35,0.8262818,-1.4944923,-2.42855,2.038685,1.0321274,-0.77747154,2.9688556597550875,2.4137078940341574,jump
23/10/2020, 15:57:35,1.7268091,0.9484278,-2.7806177,2.038685,1.0321274,-0.77747154,3.4078174798246357,2.4137078940341574,jump
23/10/2020, 15:57:35,1.7268091,0.9484278,-2.7806177,2.4113128,1.2007262,-0.870323,3.4078174798246357,2.830836436110055,jump
23/10/2020, 15:57:35,2.4740553,3.3123121,-3.288362,2.4113128,1.2007262,-0.870323,5.282583271055068,2.830836436110055,jump
23/10/2020, 15:57:35,2.4740553,3.3123121,-3.288362,2.5224903,1.3314512,-0.856884,5.282583271055068,2.9782494118589624,jump
23/10/2020, 15:57:35,2.8261232,4.761299,-3.175796,2.5224903,1.3314512,-0.856884,6.38299478516869,2.9782494118589624,jump
23/10/2020, 15:57:35,2.8261232,4.761299,-3.175796,2.2121708,1.4304113,-0.72738063,6.38299478516869,2.7329213318820753,jump
23/10/2020, 15:57:35,2.6321266,4.181704,-3.5685792,2.2121708,1.4304113,-0.72738063,6.095038677350672,2.7329213318820753,jump
23/10/2020, 15:57:35,2.6321266,4.181704,-3.5685792,1.3532945,1.4695067,-0.50624746,6.095038677350672,2.060859658889772,jump
23/10/2020, 15:57:35,2.7375073,3.0752053,-3.1255007,1.3532945,1.4695067,-0.50624746,5.169099413501532,2.060859658889772,jump
23/10/2020, 15:57:35,2.7375073,3.0752053,-3.1255007,0.33070657,1.37299,-0.32176626,5.169099413501532,1.4484481112616239,jump
23/10/2020, 15:57:35,2.8644435,2.2704787,-1.2621753,0.33070657,1.37299,-0.32176626,3.866936381966934,1.4484481112616239,jump
23/10/2020, 15:57:35,2.8644435,2.2704787,-1.2621753,-0.19341563,1.3167905,-0.19226287,3.866936381966934,1.3447348202083773,jump
23/10/2020, 15:57:35,2.3135889,0.51013917,0.91250247,-0.19341563,1.3167905,-0.19226287,2.538817859891348,1.3447348202083773,jump
23/10/2020, 15:57:35,2.3135889,0.51013917,0.91250247,0.015500206,1.4133072,-0.033437956,2.538817859891348,1.4137876666679978,jump
23/10/2020, 15:57:35,1.1352394,-1.3579761,1.8250049,0.015500206,1.4133072,-0.033437956,2.5423434967570175,1.4137876666679978,jump
23/10/2020, 15:57:35,1.1352394,-1.3579761,1.8250049,0.51763123,1.404755,0.012987785,2.5423434967570175,1.49714641077476,jump
23/10/2020, 15:57:35,0.18920656,-2.7015822,3.3769777,0.51763123,1.404755,0.012987785,4.328778549855759,1.49714641077476,jump
23/10/2020, 15:57:35,0.18920656,-2.7015822,3.3769777,1.0637445,1.3228991,-0.027329307,4.328778549855759,1.697751862068954,jump
23/10/2020, 15:57:35,-0.6610254,-3.3338673,3.0752053,1.0637445,1.3228991,-0.027329307,4.583504514457807,1.697751862068954,jump
23/10/2020, 15:57:35,-0.6610254,-3.3338673,3.0752053,1.5060108,1.2019478,-0.009003356,4.583504514457807,1.9268700101393723,jump
23/10/2020, 15:57:35,-1.707649,-3.271597,1.4801221,1.5060108,1.2019478,-0.009003356,3.976200801439279,1.9268700101393723,jump
23/10/2020, 15:57:35,-1.707649,-3.271597,1.4801221,1.8187736,0.92339337,0.056970067,3.976200801439279,2.0405485559677836,jump
23/10/2020, 15:57:36,-12.628939,-9.412427,9.002879,-0.98020977,0.45058388,0.731365,18.14209761786014,1.303354064464123,jump
23/10/2020, 15:57:36,-11.280542,-9.395662,7.7071733,-0.98020977,0.45058388,0.731365,16.58100200388833,1.303354064464123,jump
23/10/2020, 15:57:36,-11.280542,-9.395662,7.7071733,-0.9362275,0.4066016,0.8327686,16.58100200388833,1.3173269802652643,jump
23/10/2020, 15:57:36,-9.690249,-8.698711,6.4090724,-0.9362275,0.4066016,0.8327686,14.513604763259636,1.3173269802652643,jump
23/10/2020, 15:57:36,-9.690249,-8.698711,6.4090724,-0.73708546,0.51533556,0.82543826,14.513604763259636,1.2207432325197902,jump
23/10/2020, 15:57:36,-9.671089,-8.234077,6.07856,-0.73708546,0.51533556,0.82543826,14.081153626454084,1.2207432325197902,jump
23/10/2020, 15:57:36,-9.671089,-8.234077,6.07856,-0.36201435,0.5544309,0.7826777,14.081153626454084,1.0251987197092824,jump
23/10/2020, 15:57:36,-9.68067,-8.222102,5.010381,-0.36201435,0.5544309,0.7826777,13.653653411459105,1.0251987197092824,jump
23/10/2020, 15:57:36,-9.68067,-8.222102,5.010381,0.050930377,0.58253074,0.74846923,13.653653411459105,0.9498116425306637,jump
23/10/2020, 15:57:36,-8.744217,-7.795789,3.7506008,0.050930377,0.58253074,0.74846923,12.300514561003938,0.9498116425306637,jump
23/10/2020, 15:57:36,-8.744217,-7.795789,3.7506008,0.4137842,0.69737333,0.67150027,12.300514561003938,1.0528340505438696,jump
23/10/2020, 15:57:36,-7.206614,-6.6605496,2.6177564,0.4137842,0.69737333,0.67150027,10.156320963233899,1.0528340505438696,jump
23/10/2020, 15:57:36,-7.206614,-6.6605496,2.6177564,0.7827467,0.83787227,0.4491454,10.156320963233899,1.231443821333864,jump
23/10/2020, 15:57:36,-5.230723,-5.271438,1.1328443,0.7827467,0.83787227,0.4491454,7.51211409963766,1.231443821333864,jump
23/10/2020, 15:57:36,-5.230723,-5.271438,1.1328443,1.1798089,0.86841553,0.0019922145,7.51211409963766,1.464956806169846,jump
23/10/2020, 15:57:36,-2.9458742,-3.7194655,-0.17483643,1.1798089,0.86841553,0.0019922145,4.747964429535958,1.464956806169846,jump
23/10/2020, 15:57:36,-2.9458742,-3.7194655,-0.17483643,1.5341105,0.87574595,-0.5392342,4.747964429535958,1.8469433357417444,jump
23/10/2020, 15:57:36,-0.6993457,-2.2273684,-1.341211,1.5341105,0.87574595,-0.5392342,2.692415467554208,1.8469433357417444,jump
23/10/2020, 15:57:36,-0.6993457,-2.2273684,-1.341211,1.8041129,0.9685974,-0.99860466,2.692415467554208,2.2782044685914338,jump
23/10/2020, 15:57:36,0.84544194,-0.60833496,-3.178191,1.8041129,0.9685974,-0.99860466,3.3445091096165522,2.2782044685914338,jump
23/10/2020, 15:57:36,0.84544194,-0.60833496,-3.178191,1.953164,1.0553403,-1.3382456,3.3445091096165522,2.5921986870514178,jump
23/10/2020, 15:57:36,1.6789087,0.49337405,-4.402046,1.953164,1.0553403,-1.3382456,4.737104935901348,2.5921986870514178,jump
23/10/2020, 15:57:36,1.6789087,0.49337405,-4.402046,2.0044768,1.096879,-1.5251703,4.737104935901348,2.747219550896539,jump
23/10/2020, 15:57:36,2.1052222,1.5663428,-5.2043777,2.0044768,1.096879,-1.5251703,5.8284592489822025,2.747219550896539,jump
23/10/2020, 15:57:36,2.1052222,1.5663428,-5.2043777,2.021581,1.1066529,-1.5691526,5.8284592489822025,2.7881373496093365,jump
23/10/2020, 15:57:36,2.5219557,2.323169,-5.592371,2.021581,1.1066529,-1.5691526,6.559877142312958,2.7881373496093365,jump
23/10/2020, 15:57:36,2.5219557,2.323169,-5.592371,1.9702681,1.1054312,-1.4848533,6.559877142312958,2.70346515932432,jump
23/10/2020, 15:57:36,2.7087672,2.9027638,-5.527705,1.9702681,1.1054312,-1.4848533,6.805805039763743,2.70346515932432,jump
23/10/2020, 15:57:36,2.7087672,2.9027638,-5.527705,1.7821218,1.0785531,-1.2930416,6.805805039763743,2.451773097767427,jump
23/10/2020, 15:57:36,2.919529,3.1326857,-4.88584,1.7821218,1.0785531,-1.2930416,6.496830051530341,2.451773097767427,jump
23/10/2020, 15:57:37,-19.766096,-21.797073,8.612491,0.43333188,0.336963,-0.19714978,30.65919043523148,0.583256902801128,jump
23/10/2020, 15:57:37,-19.766096,-21.797073,8.612491,1.1724784,0.3613976,-0.18126729,30.65919043523148,1.2402305181798947,jump
23/10/2020, 15:57:37,-18.793718,-19.155367,8.008945,1.1724784,0.3613976,-0.18126729,28.00491273709535,1.2402305181798947,jump
23/10/2020, 15:57:37,-18.793718,-19.155367,8.008945,1.2995384,0.45669252,-0.08719408,28.00491273709535,1.3802068132879737,jump
23/10/2020, 15:57:37,-17.241747,-16.353193,7.2640944,1.2995384,0.45669252,-0.08719408,24.848980533771343,1.3802068132879737,jump
23/10/2020, 15:57:37,-17.241747,-16.353193,7.2640944,0.87559813,0.56664824,-0.004116436,24.848980533771343,1.0429665710253817,jump
23/10/2020, 15:57:37,-15.946041,-14.432388,7.070098,0.87559813,0.56664824,-0.004116436,22.63970723843447,1.0429665710253817,jump
23/10/2020, 15:57:37,-15.946041,-14.432388,7.070098,0.26351142,0.61918265,0.032535464,22.63970723843447,0.6737091167090753,jump
23/10/2020, 15:57:37,-14.635965,-13.301939,6.744375,0.26351142,0.61918265,0.032535464,20.895924490610295,0.6737091167090753,jump
23/10/2020, 15:57:37,-14.635965,-13.301939,6.744375,-0.45486584,0.5776438,0.0704091,20.895924490610295,0.7386018882239622,jump
23/10/2020, 15:57:37,-13.380975,-12.425362,6.2869267,-0.45486584,0.5776438,0.0704091,19.312315899885515,0.7386018882239622,jump
23/10/2020, 15:57:37,-13.380975,-12.425362,6.2869267,-1.1158218,0.4188189,0.17425615,19.312315899885515,1.2045052274295482,jump
23/10/2020, 15:57:37,-11.967913,-11.031461,6.3851223,-1.1158218,0.4188189,0.17425615,17.484102696193474,1.2045052274295482,jump
23/10/2020, 15:57:37,-11.967913,-11.031461,6.3851223,-1.2795336,0.23678114,0.32086375,17.484102696193474,1.3402332449770222,jump
23/10/2020, 15:57:37,-10.066268,-9.422008,6.70845,-1.2795336,0.23678114,0.32086375,15.333208291989395,1.3402332449770222,jump
23/10/2020, 15:57:37,-10.066268,-9.422008,6.70845,-0.97654456,0.18058155,0.40638486,15.333208291989395,1.0730319773550514,jump
23/10/2020, 15:57:37,-8.562195,-8.935819,6.0737696,-0.97654456,0.18058155,0.40638486,13.78588815898689,1.0730319773550514,jump
23/10/2020, 15:57:37,-8.562195,-8.935819,6.0737696,-0.75541145,0.17202945,0.4894625,13.78588815898689,0.9164137267671111,jump
23/10/2020, 15:57:37,-7.197034,-8.291558,4.893025,-0.75541145,0.17202945,0.4894625,12.020354739173206,0.9164137267671111,jump
23/10/2020, 15:57:37,-7.197034,-8.291558,4.893025,-0.6197994,0.23678114,0.47235826,12.020354739173206,0.8144561955424771,jump
23/10/2020, 15:57:37,-6.2917166,-7.1611085,4.1242237,-0.6197994,0.23678114,0.47235826,10.386356123817656,0.8144561955424771,jump
23/10/2020, 15:57:37,-6.2917166,-7.1611085,4.1242237,-0.39011416,0.38949737,0.37828505,10.386356123817656,0.668578220402925,jump
23/10/2020, 15:57:37,-5.716912,-5.9061184,2.9985645,-0.39011416,0.38949737,0.37828505,8.74966878623083,0.668578220402925,jump
23/10/2020, 15:57:37,-5.716912,-5.9061184,2.9985645,-0.06879917,0.5214442,0.27932492,8.74966878623083,0.595533199000754,jump
23/10/2020, 15:57:37,-4.629573,-4.528982,1.7818946,-0.06879917,0.5214442,0.27932492,6.717125323440914,0.595533199000754,jump
23/10/2020, 15:57:37,-4.629573,-4.528982,1.7818946,0.27084178,0.6423955,0.15715192,6.717125323440914,0.7146495426924436,jump
23/10/2020, 15:57:37,-2.9626393,-3.0608351,0.7783814,0.27084178,0.6423955,0.15715192,4.330337293580378,0.7146495426924436,jump
23/10/2020, 15:57:37,-2.9626393,-3.0608351,0.7783814,0.65690845,0.77067715,-0.083528884,4.330337293580378,1.0160950043417596,jump
23/10/2020, 15:57:37,-1.2741505,-1.6645386,0.0071850587,0.65690845,0.77067715,-0.083528884,2.0962347010721443,1.0160950043417596,jump
23/10/2020, 15:57:37,-1.2741505,-1.6645386,0.0071850587,1.0466403,0.88551974,-0.3559747,2.0962347010721443,1.4164459306084216,jump
23/10/2020, 15:57:38,-27.47327,-15.649058,6.0091043,-0.31681037,0.46890983,-0.6247553,32.18358196760218,0.8429498515839274,jump
23/10/2020, 15:57:38,-27.47327,-15.649058,6.0091043,-0.431653,0.23800287,-0.37918755,32.18358196760218,0.621894582706929,jump
23/10/2020, 15:57:38,-26.75716,-17.299227,5.8175025,-0.431653,0.23800287,-0.37918755,32.38907536663667,0.621894582706929,jump
23/10/2020, 15:57:38,-26.75716,-17.299227,5.8175025,-0.4035532,0.027865298,-0.18737595,32.38907536663667,0.44580421272762943,jump
23/10/2020, 15:57:38,-22.791006,-18.633253,6.1743608,-0.4035532,0.027865298,-0.18737595,30.079075953374478,0.44580421272762943,jump
23/10/2020, 15:57:38,-22.791006,-18.633253,6.1743608,-0.16165064,0.08528661,-0.2338017,30.079075953374478,0.29676247680441736,jump
23/10/2020, 15:57:38,-20.798351,-19.354155,6.3012967,-0.16165064,0.08528661,-0.2338017,29.1008772428181,0.29676247680441736,jump
23/10/2020, 15:57:38,-20.798351,-19.354155,6.3012967,0.12423418,0.25755054,-0.4219481,29.1008772428181,0.5097122851014982,jump
23/10/2020, 15:57:38,-22.084476,-19.40445,6.1144853,0.12423418,0.25755054,-0.4219481,30.02738233671437,0.5097122851014982,jump
23/10/2020, 15:57:38,-22.084476,-19.40445,6.1144853,0.40889728,0.36750624,-0.52457345,30.02738233671437,0.759891517963567,jump
23/10/2020, 15:57:38,-23.873556,-18.436861,6.013894,0.40889728,0.36750624,-0.52457345,30.757624251421277,0.759891517963567,jump
23/10/2020, 15:57:38,-23.873556,-18.436861,6.013894,0.5603918,0.4102668,-0.48792154,30.757624251421277,0.8487786595332673,jump
23/10/2020, 15:57:38,-23.487957,-17.275276,5.597161,0.5603918,0.4102668,-0.48792154,29.689181539862112,0.8487786595332673,jump
23/10/2020, 15:57:38,-23.487957,-17.275276,5.597161,0.5665004,0.42004064,-0.39384833,29.689181539862112,0.8077582408906641,jump
23/10/2020, 15:57:38,-21.708458,-16.779507,5.5468655,0.5665004,0.42004064,-0.39384833,27.992440183575386,0.8077582408906641,jump
23/10/2020, 15:57:38,-21.708458,-16.779507,5.5468655,0.49319664,0.42981446,-0.28389263,27.992440183575386,0.7131468408720291,jump
23/10/2020, 15:57:38,-19.873873,-16.592695,6.262976,0.49319664,0.42981446,-0.28389263,26.63668943510393,0.7131468408720291,jump
23/10/2020, 15:57:38,-19.873873,-16.592695,6.262976,0.3930148,0.42126235,-0.2423538,26.63668943510393,0.6250263655162644,jump
23/10/2020, 15:57:38,-18.103954,-16.334034,7.082073,0.3930148,0.42126235,-0.2423538,25.39113208240872,0.6250263655162644,jump
23/10/2020, 15:57:38,-18.103954,-16.334034,7.082073,0.2671766,0.43347967,-0.2582363,25.39113208240872,0.5709412729035708,jump
23/10/2020, 15:57:38,-16.152012,-15.299385,7.6401124,0.2671766,0.43347967,-0.2582363,23.522967255895995,0.5709412729035708,jump
23/10/2020, 15:57:38,-16.152012,-15.299385,7.6401124,0.14378186,0.44569695,-0.34131393,23.522967255895995,0.5794947721319281,jump
23/10/2020, 15:57:38,-14.288687,-13.922249,7.9826,0.14378186,0.44569695,-0.34131393,21.487612431915426,0.5794947721319281,jump
23/10/2020, 15:57:38,-14.288687,-13.922249,7.9826,-0.005269205,0.38338873,-0.45615655,21.487612431915426,0.5958972067323681,jump
23/10/2020, 15:57:38,-13.163028,-13.040882,8.167017,-0.005269205,0.38338873,-0.45615655,20.249199305719582,0.5958972067323681,jump
23/10/2020, 15:57:38,-13.163028,-13.040882,8.167017,-0.18364179,0.25388533,-0.549008,20.249199305719582,0.6321327904267332,jump
23/10/2020, 15:57:38,-11.876903,-11.805052,8.315508,-0.18364179,0.25388533,-0.549008,18.696730581441958,0.6321327904267332,jump
23/10/2020, 15:57:38,-11.876903,-11.805052,8.315508,-0.22273715,0.1011691,-0.6491899,18.696730581441958,0.6937539455719528,jump
23/10/2020, 15:57:38,-10.408755,-10.435101,8.389753,-0.22273715,0.1011691,-0.6491899,16.959406584008672,0.6937539455719528,jump
23/10/2020, 15:57:38,-10.408755,-10.435101,8.389753,-0.1640941,-0.006343142,-0.72493714,16.959406584008672,0.7433040893090342,jump
23/10/2020, 15:57:39,-9.601634,-8.657996,3.7529957,2.0276897,1.0052493,-1.1659817,13.462438513096517,2.545891747125753,jump
23/10/2020, 15:57:39,-9.601634,-8.657996,3.7529957,2.0411286,0.8830763,-1.1696469,13.462438513096517,2.5127880234914706,jump
23/10/2020, 15:57:39,-12.760665,-10.157278,3.4296682,2.0411286,0.8830763,-1.1696469,16.666358066327206,2.5127880234914706,jump
23/10/2020, 15:57:39,-12.760665,-10.157278,3.4296682,1.7466916,0.9466063,-1.1232212,16.666358066327206,2.2822402831415314,jump
23/10/2020, 15:57:39,-12.760665,-10.157278,3.4296682,1.1895827,1.0480099,-0.9143053,16.666358066327206,1.8301327659959117,jump
23/10/2020, 15:57:39,-17.675245,-12.889996,3.7937112,1.1895827,1.0480099,-0.9143053,22.202669352288087,1.8301327659959117,jump
23/10/2020, 15:57:39,-25.13573,-16.120876,5.726492,1.1895827,1.0480099,-0.9143053,30.40526801202005,1.8301327659959117,jump
