DATE,TIME,ax,ay,az,gx,gy,gz,ma,mg,label
10/07/2020, 20:43:05,-3.3523445,-1.9980069,9.178867,-0.19415668,-0.117226675,0.054950003,9.974058908599249,0.2333632601600226,jump
10/07/2020, 20:43:05,-3.3523445,-1.9980069,9.178867,-0.16118668,-0.16118668,-0.03297,9.974058908599249,0.23032436399602432,jump
10/07/2020, 20:43:05,-3.237489,-2.1798615,9.176475,-0.16118668,-0.16118668,-0.03297,9.972001646741404,0.23032436399602432,jump
10/07/2020, 20:43:05,-3.237489,-2.1798615,9.176475,-0.12821667,-0.15386,-0.05372889,9.972001646741404,0.20736250440662257,jump
10/07/2020, 20:43:05,-2.9742785,-2.2779672,9.111869,-0.12821667,-0.15386,-0.05372889,9.851985638462287,0.20736250440662257,jump
10/07/2020, 20:43:05,-2.9742785,-2.2779672,9.111869,-0.09646778,-0.11966889,0.0036633336,9.851985638462287,0.15375336190597783,jump
10/07/2020, 20:43:05,-2.8019953,-2.2851455,9.047262,-0.09646778,-0.11966889,0.0036633336,9.742998550455079,0.15375336190597783,jump
10/07/2020, 20:43:05,-2.8019953,-2.2851455,9.047262,-0.057392225,-0.091583334,0.048844445,9.742998550455079,0.11860503513080753,jump
10/07/2020, 20:43:05,-2.804388,-2.2205393,8.987442,-0.057392225,-0.091583334,0.048844445,9.673132958781355,0.11860503513080753,jump
10/07/2020, 20:43:05,-2.804388,-2.2205393,8.987442,-0.048844445,-0.07204556,0.03297,9.673132958781355,0.09307718878506566,jump
10/07/2020, 20:43:05,-2.8713872,-2.158326,8.889337,-0.048844445,-0.07204556,0.03297,9.587676484749629,0.09307718878506566,jump
10/07/2020, 20:43:05,-2.8713872,-2.158326,8.889337,-0.03297,-0.06960334,-0.019537779,9.587676484749629,0.07945672075221759,jump
10/07/2020, 20:43:05,-2.9671001,-2.1918256,8.896515,-0.03297,-0.06960334,-0.019537779,9.630979185929645,0.07945672075221759,jump
10/07/2020, 20:43:05,-2.9671001,-2.1918256,8.896515,-0.019537779,-0.081814446,-0.05250778,9.630979185929645,0.09915843537104509,jump
10/07/2020, 20:43:05,-3.050849,-2.3138595,8.968299,-0.019537779,-0.081814446,-0.05250778,9.751513234941067,0.09915843537104509,jump
10/07/2020, 20:43:05,-3.050849,-2.3138595,8.968299,-0.0048844446,-0.091583334,-0.05250778,9.751513234941067,0.10568080176492772,jump
10/07/2020, 20:43:05,-3.0604203,-2.4335005,9.0544405,-0.0048844446,-0.091583334,-0.05250778,9.862605630238553,0.10568080176492772,jump
10/07/2020, 20:43:05,-3.0604203,-2.4335005,9.0544405,0.009768889,-0.091583334,-0.036633335,9.862605630238553,0.09912083274987499,jump
10/07/2020, 20:43:05,-3.0580273,-2.5028925,9.140582,0.009768889,-0.091583334,-0.036633335,9.958224864521068,0.09912083274987499,jump
10/07/2020, 20:43:05,-3.0580273,-2.5028925,9.140582,0.036633335,-0.09280445,-0.039075557,9.958224864521068,0.10715206835183143,jump
10/07/2020, 20:43:06,-3.7830527,-7.704889,7.0731835,-0.15019667,1.9183656,3.7585802,11.122352479642146,4.222512378349118,jump
10/07/2020, 20:43:06,-3.9314077,-7.381858,6.8650084,-0.15019667,1.9183656,3.7585802,10.820172446452647,4.222512378349118,jump
10/07/2020, 20:43:06,-3.9314077,-7.381858,6.8650084,-0.3174889,1.9488934,3.6315846,10.820172446452647,4.13368985642929,jump
10/07/2020, 20:43:06,-3.9649072,-7.1473613,6.4008007,-0.3174889,1.9488934,3.6315846,10.38149853209796,4.13368985642929,jump
10/07/2020, 20:43:06,-3.9649072,-7.1473613,6.4008007,-0.36267,2.0209389,3.548549,10.38149853209796,4.099746701788136,jump
10/07/2020, 20:43:06,-3.7447674,-6.9894347,5.8672013,-0.36267,2.0209389,3.548549,9.864052524421785,4.099746701788136,jump
10/07/2020, 20:43:06,-3.7447674,-6.9894347,5.8672013,-0.31016225,2.162588,3.4887147,9.864052524421785,4.116323260552025,jump
10/07/2020, 20:43:06,-3.4073794,-6.745367,5.5657053,-0.31016225,2.162588,3.4887147,9.38548274839026,4.116323260552025,jump
10/07/2020, 20:43:06,-3.4073794,-6.745367,5.5657053,-0.1526389,2.3091211,3.3678246,9.38548274839026,4.086267399993992,jump
10/07/2020, 20:43:06,-3.3499517,-6.769295,6.046663,-0.1526389,2.3091211,3.3678246,9.675105452183619,4.086267399993992,jump
10/07/2020, 20:43:06,-3.3499517,-6.769295,6.046663,-0.05250778,2.4886246,3.063768,9.675105452183619,3.9474907393805245,jump
10/07/2020, 20:43:06,-3.8811584,-7.475178,6.5898337,-0.05250778,2.4886246,3.063768,10.694277976698961,3.9474907393805245,jump
10/07/2020, 20:43:06,-3.8811584,-7.475178,6.5898337,-0.07448778,2.6656857,2.7475002,10.694277976698961,3.8288621912746232,jump
10/07/2020, 20:43:06,-4.709075,-8.216953,7.02772,-0.07448778,2.6656857,2.7475002,11.793326770577414,3.8288621912746232,jump
10/07/2020, 20:43:06,-4.709075,-8.216953,7.02772,-0.045181114,2.7755857,2.5777657,11.793326770577414,3.788244060501968,jump
10/07/2020, 20:43:06,-5.221139,-8.7577305,7.7240314,-0.045181114,2.7755857,2.5777657,12.79135634029992,3.788244060501968,jump
10/07/2020, 20:43:06,-5.221139,-8.7577305,7.7240314,-0.14653334,2.8525157,2.3506389,12.79135634029992,3.6991648928516323,jump
10/07/2020, 20:43:06,-5.5106707,-9.140582,7.853244,-0.14653334,2.8525157,2.3506389,13.251081865634026,3.6991648928516323,jump
10/07/2020, 20:43:06,-5.5106707,-9.140582,7.853244,-0.31504667,2.8390834,2.0502455,13.251081865634026,3.516127962671869,jump
10/07/2020, 20:43:06,-5.4867425,-9.343972,7.3986077,-0.31504667,2.8390834,2.0502455,13.120730016530334,3.516127962671869,jump
10/07/2020, 20:43:07,-9.020942,-2.9958138,3.9696927,0.09280445,0.007326667,0.24666445,10.301007259768145,0.26364691555953795,jump
10/07/2020, 20:43:07,-9.056833,-2.7038896,4.1084766,0.09280445,0.007326667,0.24666445,10.30615486667625,0.26364691555953795,jump
10/07/2020, 20:43:07,-9.056833,-2.7038896,4.1084766,0.07937223,0.046402223,0.32481557,10.30615486667625,0.3375770610554928,jump
10/07/2020, 20:43:07,-9.217153,-2.7349963,4.1371903,0.07937223,0.046402223,0.32481557,10.466730662368485,0.3375770610554928,jump
10/07/2020, 20:43:07,-9.217153,-2.7349963,4.1371903,0.078151114,0.09036223,0.4261678,10.466730662368485,0.44259678141915504,jump
10/07/2020, 20:43:07,-9.150154,-2.6991038,4.206582,0.078151114,0.09036223,0.4261678,10.426208059958546,0.44259678141915504,jump
10/07/2020, 20:43:07,-9.150154,-2.6991038,4.206582,0.089141116,0.15508112,0.50554,10.426208059958546,0.5362527373243107,jump
10/07/2020, 20:43:07,-9.128618,-2.7948167,4.3669014,0.089141116,0.15508112,0.50554,10.498214103512414,0.5362527373243107,jump
10/07/2020, 20:43:07,-9.128618,-2.7948167,4.3669014,0.078151114,0.21735778,0.5971234,10.498214103512414,0.6402408448690675,jump
10/07/2020, 20:43:07,-9.243474,-2.9096723,4.2017965,0.078151114,0.21735778,0.5971234,10.562343417421635,0.6402408448690675,jump
10/07/2020, 20:43:07,-9.243474,-2.9096723,4.2017965,0.06227667,0.3174889,0.66428447,10.562343417421635,0.7388852716740348,jump
10/07/2020, 20:43:07,-9.346365,-2.8498518,4.4410787,0.06227667,0.3174889,0.66428447,10.733097105839523,0.7388852716740348,jump
10/07/2020, 20:43:07,-9.346365,-2.8498518,4.4410787,0.106236674,0.42372558,0.68626446,10.733097105839523,0.8135038393265157,jump
10/07/2020, 20:43:07,-9.533006,-2.6775684,4.5678983,0.106236674,0.42372558,0.68626446,10.904735912232834,0.8135038393265157,jump
10/07/2020, 20:43:07,-9.533006,-2.6775684,4.5678983,0.14042778,0.5006556,0.69237006,10.904735912232834,0.8658823704986317,jump
10/07/2020, 20:43:07,-9.74836,-2.4598217,4.505685,0.14042778,0.5006556,0.69237006,11.017369706331106,0.8658823704986317,jump
10/07/2020, 20:43:07,-9.74836,-2.4598217,4.505685,0.17706113,0.5836911,0.68260115,11.017369706331106,0.9154181018468639,jump
10/07/2020, 20:43:07,-9.891929,-2.1008983,4.6325045,0.17706113,0.5836911,0.68260115,11.123134629793354,0.9154181018468639,jump
10/07/2020, 20:43:07,-9.891929,-2.1008983,4.6325045,0.23201112,0.6740534,0.6459678,11.123134629793354,0.9620038895830938,jump
10/07/2020, 20:43:07,-10.140782,-2.1296122,4.776074,0.23201112,0.6740534,0.6459678,11.40971503417842,0.9620038895830938,jump
10/07/2020, 20:43:08,0.88295156,0.41156548,1.3256238,-0.8914111,-0.30405667,-3.3238647,1.6450738366402038,3.4547273104310086,jump
10/07/2020, 20:43:08,0.22013968,-0.050249275,0.54317075,-0.8914111,-0.30405667,-3.3238647,0.5882354402353479,3.4547273104310086,jump
10/07/2020, 20:43:08,0.22013968,-0.050249275,0.54317075,-0.72900337,-0.5043189,-3.0588834,0.5882354402353479,3.184737240116692,jump
10/07/2020, 20:43:08,-0.19381863,-0.2943172,-0.2440679,-0.72900337,-0.5043189,-3.0588834,0.42866934828482856,3.184737240116692,jump
10/07/2020, 20:43:08,-0.19381863,-0.2943172,-0.2440679,-0.5519422,-0.7998278,-2.7438369,0.42866934828482856,2.9108427609940946,jump
10/07/2020, 20:43:08,-0.17467605,-0.31345975,-0.7585248,-0.5519422,-0.7998278,-2.7438369,0.8391236937390846,2.9108427609940946,jump
10/07/2020, 20:43:08,-0.17467605,-0.31345975,-0.7585248,-0.42372558,-1.0721356,-2.3982623,0.8391236937390846,2.660954700389236,jump
10/07/2020, 20:43:08,0.30867413,-0.11485548,-1.0336994,-0.42372558,-1.0721356,-2.3982623,1.084899043350056,2.660954700389236,jump
10/07/2020, 20:43:08,0.30867413,-0.11485548,-1.0336994,-0.35656446,-1.2614079,-2.0478034,1.084899043350056,2.431416615523208,jump
10/07/2020, 20:43:08,1.079163,0.20578274,-1.1246266,-0.35656446,-1.2614079,-2.0478034,1.572171839276709,2.431416615523208,jump
10/07/2020, 20:43:08,1.079163,0.20578274,-1.1246266,-0.31504667,-1.3310112,-1.7205456,1.572171839276709,2.197981457176209,jump
10/07/2020, 20:43:08,2.0195422,0.5599205,-1.1700903,-0.31504667,-1.3310112,-1.7205456,2.400244377932115,2.197981457176209,jump
10/07/2020, 20:43:08,2.0195422,0.5599205,-1.1700903,-0.26620224,-1.2491968,-1.4592278,2.400244377932115,1.9392529415423052,jump
10/07/2020, 20:43:08,2.9312077,1.052842,-0.9499506,-0.26620224,-1.2491968,-1.4592278,3.2562034250508405,1.9392529415423052,jump
10/07/2020, 20:43:08,2.9312077,1.052842,-0.9499506,-0.2283478,-1.13197,-1.3236845,3.2562034250508405,1.7565988266514692,jump
10/07/2020, 20:43:08,3.6993039,1.1006985,-0.87338024,-0.2283478,-1.13197,-1.3236845,3.9571680863013765,1.7565988266514692,jump
10/07/2020, 20:43:08,3.6993039,1.1006985,-0.87338024,-0.2075889,-1.0147433,-1.1356333,3.9571680863013765,1.5370296926315592,jump
10/07/2020, 20:43:08,4.208975,0.90448695,-0.8207382,-0.2075889,-1.0147433,-1.1356333,4.382599345868247,1.5370296926315592,jump
10/07/2020, 20:43:08,4.208975,0.90448695,-0.8207382,-0.18316667,-0.8743156,-0.8034911,4.382599345868247,1.2014889943095086,jump
10/07/2020, 20:43:08,4.4458647,0.5024927,-0.66041905,-0.18316667,-0.8743156,-0.8034911,4.5226502171872935,1.2014889943095086,jump
10/07/2020, 20:43:09,-9.846465,-4.642076,3.089134,-0.098910004,0.23567446,-1.4665545,11.315674687996433,1.4886597346195496,jump
10/07/2020, 20:43:09,-9.846465,-4.642076,3.089134,0.18805112,0.2759711,-1.4628912,11.315674687996433,1.5005245763575772,jump
10/07/2020, 20:43:09,-10.090533,-4.87418,2.833102,0.18805112,0.2759711,-1.4628912,11.558674551529183,1.5005245763575772,jump
10/07/2020, 20:43:09,-10.090533,-4.87418,2.833102,0.48722336,0.24666445,-1.39573,11.558674551529183,1.498763568785117,jump
10/07/2020, 20:43:09,-10.229317,-4.855037,2.524428,0.48722336,0.24666445,-1.39573,11.600993185581386,1.498763568785117,jump
10/07/2020, 20:43:09,-10.229317,-4.855037,2.524428,0.7265611,0.15996556,-1.284609,11.600993185581386,1.4844865223861388,jump
10/07/2020, 20:43:09,-10.112068,-4.57747,2.2229323,0.7265611,0.15996556,-1.284609,11.32027300861727,1.4844865223861388,jump
10/07/2020, 20:43:09,-10.112068,-4.57747,2.2229323,0.8401245,0.045181114,-1.1954678,11.32027300861727,1.4618460315884974,jump
10/07/2020, 20:43:09,-9.829716,-4.1635113,2.1224337,0.8401245,0.045181114,-1.1954678,10.884064594947873,1.4618460315884974,jump
10/07/2020, 20:43:09,-9.829716,-4.1635113,2.1224337,0.8327978,-0.023201112,-1.1600556,10.884064594947873,1.4282225286135455,jump
10/07/2020, 20:43:09,-9.458828,-3.8093736,2.1798615,0.8327978,-0.023201112,-1.1600556,10.427490125850847,1.4282225286135455,jump
10/07/2020, 20:43:09,-9.458828,-3.8093736,2.1798615,0.75953114,-0.02075889,-1.1698245,10.427490125850847,1.3949221487224763,jump
10/07/2020, 20:43:09,-9.06162,-3.534199,2.3042881,0.75953114,-0.02075889,-1.1698245,9.995662013594766,1.3949221487224763,jump
10/07/2020, 20:43:09,-9.06162,-3.534199,2.3042881,0.6838223,0.019537779,-1.1820356,9.995662013594766,1.3657242420448648,jump
10/07/2020, 20:43:09,-8.7577305,-3.4073794,2.4478576,0.6838223,0.019537779,-1.1820356,9.710823057261633,1.3657242420448648,jump
10/07/2020, 20:43:09,-8.7577305,-3.4073794,2.4478576,0.63742,0.05372889,-1.1637189,9.710823057261633,1.327943077411461,jump
10/07/2020, 20:43:09,-8.5112705,-3.3930225,2.536392,0.63742,0.05372889,-1.1637189,9.507239983206222,1.327943077411461,jump
10/07/2020, 20:43:09,-8.5112705,-3.3930225,2.536392,0.59590226,0.06960334,-1.1051056,9.507239983206222,1.2574587887529085,jump
10/07/2020, 20:43:09,-8.322237,-3.414558,2.6129622,0.59590226,0.06960334,-1.1051056,9.3673051894372,1.2574587887529085,jump
10/07/2020, 20:43:09,-8.322237,-3.414558,2.6129622,0.5360678,0.06349778,-1.0135223,9.3673051894372,1.1483152979683096,jump
10/07/2020, 20:43:10,-4.7712884,5.7403817,-0.16031912,6.2215614,1.2174479,-2.4959512,7.466115283894939,6.813206165615769,jump
10/07/2020, 20:43:10,-4.7712884,5.7403817,-0.16031912,4.985797,0.8535567,-3.217628,7.466115283894939,5.994986238442135,jump
10/07/2020, 20:43:10,-6.9655066,6.0107703,-2.6919255,4.985797,0.8535567,-3.217628,9.586141269311035,5.994986238442135,jump
10/07/2020, 20:43:10,-6.9655066,6.0107703,-2.6919255,2.7511635,-0.0024422223,-3.6437957,9.586141269311035,4.5657588400151825,jump
10/07/2020, 20:43:10,-8.597412,5.020142,-4.0845485,2.7511635,-0.0024422223,-3.6437957,10.761080693729564,4.5657588400151825,jump
10/07/2020, 20:43:10,-8.597412,5.020142,-4.0845485,0.31993112,-0.7070234,-3.7817812,10.761080693729564,3.8605837645636822,jump
10/07/2020, 20:43:10,-9.343972,3.562913,-4.1228333,0.31993112,-0.7070234,-3.7817812,10.816742542793055,3.8605837645636822,jump
10/07/2020, 20:43:10,-9.343972,3.562913,-4.1228333,-1.570349,-1.05504,-3.7060723,10.816742542793055,4.161018797974232,jump
10/07/2020, 20:43:10,-9.427721,2.1678972,-3.1130621,-1.570349,-1.05504,-3.7060723,10.162325421966692,4.161018797974232,jump
10/07/2020, 20:43:10,-9.427721,2.1678972,-3.1130621,-2.6669068,-1.10999,-3.5363379,10.162325421966692,4.5661970246519115,jump
10/07/2020, 20:43:10,-9.19801,0.92602235,-1.4907285,-2.6669068,-1.10999,-3.5363379,9.363929996916905,4.5661970246519115,jump
10/07/2020, 20:43:10,-9.19801,0.92602235,-1.4907285,-3.0772002,-0.91217005,-3.39591,9.363929996916905,4.672624531578254,jump
10/07/2020, 20:43:10,-9.15494,-0.22492532,0.41874397,-3.0772002,-0.91217005,-3.39591,9.16727101893883,4.672624531578254,jump
10/07/2020, 20:43:10,-9.15494,-0.22492532,0.41874397,-3.0588834,-0.5922389,-3.3739302,9.16727101893883,4.592485149590711,jump
10/07/2020, 20:43:10,-9.399008,-1.524228,2.1008983,-3.0588834,-0.5922389,-3.3739302,9.750814941391392,4.592485149590711,jump
10/07/2020, 20:43:10,-9.399008,-1.524228,2.1008983,-2.9477623,-0.3162678,-3.4557445,9.750814941391392,4.5531854437484345,jump
10/07/2020, 20:43:10,-10.042677,-3.158526,3.359523,-2.9477623,-0.3162678,-3.4557445,11.050703196962727,4.5531854437484345,jump
10/07/2020, 20:43:10,-10.042677,-3.158526,3.359523,-2.756048,-0.21247335,-3.525348,11.050703196962727,4.479846365547395,jump
10/07/2020, 20:43:10,-10.942378,-4.9196434,4.493721,-2.756048,-0.21247335,-3.525348,12.811403395603843,4.479846365547395,jump
10/07/2020, 20:43:10,-10.942378,-4.9196434,4.493721,-2.196779,-0.21125223,-3.3873622,12.811403395603843,4.042856476668878,jump
10/07/2020, 20:43:11,-20.645273,1.9597218,3.505485,0.6887067,-3.140698,-2.8500733,21.03226666094082,4.296652021511707,jump
10/07/2020, 20:43:11,-23.090738,2.3712873,3.778267,0.6887067,-3.140698,-2.8500733,23.51766356535384,4.296652021511707,jump
10/07/2020, 20:43:11,-23.090738,2.3712873,3.778267,0.4713489,-3.515579,-3.1907635,23.51766356535384,4.77099957467667,jump
10/07/2020, 20:43:11,-24.937998,2.306681,3.6849468,0.4713489,-3.515579,-3.1907635,25.3140937970194,4.77099957467667,jump
10/07/2020, 20:43:11,-24.937998,2.306681,3.6849468,0.070824444,-3.966169,-3.3250856,25.3140937970194,5.176070719619503,jump
10/07/2020, 20:43:11,-25.564917,1.9788643,3.5509489,0.070824444,-3.966169,-3.3250856,25.886098645275368,5.176070719619503,jump
10/07/2020, 20:43:11,-25.564917,1.9788643,3.5509489,-0.5324045,-4.4301915,-3.2872312,25.886098645275368,5.542196353127636,jump
10/07/2020, 20:43:11,-24.55993,1.4739788,3.4528432,-0.5324045,-4.4301915,-3.2872312,24.84521966973202,5.542196353127636,jump
10/07/2020, 20:43:11,-24.55993,1.4739788,3.4528432,-1.2553023,-4.85758,-3.1687834,24.84521966973202,5.9340591120455795,jump
10/07/2020, 20:43:11,-22.236502,0.8877372,3.347559,-1.2553023,-4.85758,-3.1687834,22.504582556220836,5.9340591120455795,jump
10/07/2020, 20:43:11,-22.236502,0.8877372,3.347559,-1.9452301,-5.219029,-3.0185869,22.504582556220836,6.335144050352211,jump
10/07/2020, 20:43:11,-19.329222,0.3182454,3.1896327,-1.9452301,-5.219029,-3.0185869,19.59320926041446,6.335144050352211,jump
10/07/2020, 20:43:11,-19.329222,0.3182454,3.1896327,-2.4971724,-5.668398,-2.9856167,19.59320926041446,6.876082572884208,jump
10/07/2020, 20:43:11,-16.14916,-0.38524446,2.928815,-2.4971724,-5.668398,-2.9856167,16.41711762417534,6.876082572884208,jump
10/07/2020, 20:43:11,-16.14916,-0.38524446,2.928815,-3.1651201,-6.5610304,-3.3714879,16.41711762417534,8.026956803032018,jump
10/07/2020, 20:43:11,-12.502499,-1.4979069,2.914458,-3.1651201,-6.5610304,-3.3714879,12.924792559564791,8.026956803032018,jump
10/07/2020, 20:43:11,-12.502499,-1.4979069,2.914458,-3.548549,-6.8492126,-3.734158,12.924792559564791,8.570172092488008,jump
10/07/2020, 20:43:11,-8.29113,-3.1130621,5.9581285,-3.548549,-6.8492126,-3.734158,10.673953734783385,8.570172092488008,jump
10/07/2020, 20:43:11,-8.29113,-3.1130621,5.9581285,-3.4850512,-5.778298,-3.5912879,10.673953734783385,7.644060218183043,jump
10/07/2020, 20:43:11,-4.1778684,-5.252246,7.3172517,-3.4850512,-5.778298,-3.5912879,9.928889328279961,7.644060218183043,jump
10/07/2020, 20:43:12,-10.827522,-3.3762727,3.481557,1.5215045,0.4493689,1.4274789,11.864050500173848,2.1341519272488205,jump
10/07/2020, 20:43:12,-11.150554,-2.9623144,3.0939198,1.5215045,0.4493689,1.4274789,11.944977762449081,2.1341519272488205,jump
10/07/2020, 20:43:12,-11.150554,-2.9623144,3.0939198,1.2211112,0.3504589,1.3420012,11.944977762449081,1.8479451192567704,jump
10/07/2020, 20:43:12,-11.30848,-2.5818555,2.5842485,1.2211112,0.3504589,1.3420012,11.88385646119427,1.8479451192567704,jump
10/07/2020, 20:43:12,-11.30848,-2.5818555,2.5842485,0.84623003,0.17584,1.2430911,11.88385646119427,1.51403450095398,jump
10/07/2020, 20:43:12,-11.277373,-2.2205393,2.213361,0.84623003,0.17584,1.2430911,11.705080555466452,1.51403450095398,jump
10/07/2020, 20:43:12,-11.277373,-2.2205393,2.213361,0.45425335,-0.018316668,1.13197,11.705080555466452,1.2198515450135374,jump
10/07/2020, 20:43:12,-11.035698,-1.9740787,2.1080768,0.45425335,-0.018316668,1.13197,11.407348654899534,1.2198515450135374,jump
10/07/2020, 20:43:12,-11.035698,-1.9740787,2.1080768,0.09036223,-0.15508112,0.9866578,11.407348654899534,1.0028504863658267,jump
10/07/2020, 20:43:12,-10.636097,-1.7922242,2.1966112,0.09036223,-0.15508112,0.9866578,11.007439598198552,1.0028504863658267,jump
10/07/2020, 20:43:12,-10.636097,-1.7922242,2.1966112,-0.18927222,-0.19782001,0.81326,11.007439598198552,0.858107562503842,jump
10/07/2020, 20:43:12,-10.19821,-1.6606189,2.4311078,-0.18927222,-0.19782001,0.81326,10.614679572875719,0.858107562503842,jump
10/07/2020, 20:43:12,-10.19821,-1.6606189,2.4311078,-0.3602278,-0.18438779,0.6056711,10.614679572875719,0.7284232357581171,jump
10/07/2020, 20:43:12,-9.82493,-1.5577276,2.6823542,-0.3602278,-0.18438779,0.6056711,10.302950673242437,0.7284232357581171,jump
10/07/2020, 20:43:12,-9.82493,-1.5577276,2.6823542,-0.4359367,-0.15141778,0.37366003,10.302950673242437,0.5937928568361034,jump
10/07/2020, 20:43:12,-9.537791,-1.4045869,2.952743,-0.4359367,-0.15141778,0.37366003,10.082708857249678,0.5937928568361034,jump
10/07/2020, 20:43:12,-9.537791,-1.4045869,2.952743,-0.46524334,-0.089141116,0.14897557,10.082708857249678,0.49657952307727626,jump
10/07/2020, 20:43:12,-9.408579,-1.1724831,3.0867412,-0.46524334,-0.089141116,0.14897557,9.971160628698552,0.49657952307727626,jump
10/07/2020, 20:43:12,-9.408579,-1.1724831,3.0867412,-0.4921078,-0.01099,-0.070824444,9.971160628698552,0.49729968559409965,jump
10/07/2020, 20:43:12,-9.382257,-0.86141616,3.0723844,-0.4921078,-0.01099,-0.070824444,9.910012034161433,0.49729968559409965,jump
10/07/2020, 20:43:13,0.33020952,0.37088752,1.2203395,-2.2883623,1.7852645,3.152909,1.3175069127249326,4.285394565040158,jump
10/07/2020, 20:43:13,-0.5599205,-0.30149564,1.3926228,-2.2883623,1.7852645,3.152909,1.530950332023703,4.285394565040158,jump
10/07/2020, 20:43:13,-0.5599205,-0.30149564,1.3926228,-2.4910667,1.9635468,3.4166691,1.530950332023703,4.662033576917732,jump
10/07/2020, 20:43:13,-1.5696917,-1.0767702,1.5337993,-2.4910667,1.9635468,3.4166691,2.444566669094916,4.662033576917732,jump
10/07/2020, 20:43:13,-1.5696917,-1.0767702,1.5337993,-2.4214635,2.0917635,3.6401324,2.444566669094916,4.846599224577187,jump
10/07/2020, 20:43:13,-2.6632116,-1.8281165,1.7252251,-2.4214635,2.0917635,3.6401324,3.662117915345762,4.846599224577187,jump
10/07/2020, 20:43:13,-2.6632116,-1.8281165,1.7252251,-2.1051955,2.218759,3.822078,3.662117915345762,4.8952037865119165,jump
10/07/2020, 20:43:13,-3.644269,-2.510071,1.8544376,-2.1051955,2.218759,3.822078,4.797925787672204,4.8952037865119165,jump
10/07/2020, 20:43:13,-3.644269,-2.510071,1.8544376,-1.7058923,2.4361167,4.0357723,4.797925787672204,5.013201713898937,jump
10/07/2020, 20:43:13,-4.5272202,-3.1082766,1.847259,-1.7058923,2.4361167,4.0357723,5.793916863360954,5.013201713898937,jump
10/07/2020, 20:43:13,-4.5272202,-3.1082766,1.847259,-1.3261267,2.7426157,4.3434925,5.793916863360954,5.305325631234992,jump
10/07/2020, 20:43:13,-5.35753,-3.5724843,1.9262222,-1.3261267,2.7426157,4.3434925,6.721317184127974,5.305325631234992,jump
10/07/2020, 20:43:13,-5.35753,-3.5724843,1.9262222,-1.0147433,3.0833056,4.731806,6.721317184127974,5.738158552216004,jump
10/07/2020, 20:43:13,-6.3361945,-3.9026937,2.2444677,-1.0147433,3.0833056,4.731806,7.772773947822489,5.738158552216004,jump
10/07/2020, 20:43:13,-6.3361945,-3.9026937,2.2444677,-0.79128003,3.5546546,5.1555314,7.772773947822489,6.311988393758891,jump
10/07/2020, 20:43:13,-7.539784,-4.06062,2.7230322,-0.79128003,3.5546546,5.1555314,8.986204986187925,6.311988393758891,jump
10/07/2020, 20:43:13,-7.539784,-4.06062,2.7230322,-0.65940005,4.1994014,5.58292,8.986204986187925,7.017034766708035,jump
10/07/2020, 20:43:13,-9.38465,-4.1347976,3.3355947,-0.65940005,4.1994014,5.58292,10.78398825174935,7.017034766708035,jump
10/07/2020, 20:43:13,-9.38465,-4.1347976,3.3355947,-0.60811335,4.8783393,5.9736757,10.78398825174935,7.736458994943096,jump
10/07/2020, 20:43:13,-12.205789,-4.220939,4.0390844,-0.60811335,4.8783393,5.9736757,13.531881100059659,7.736458994943096,jump
10/07/2020, 20:43:14,-8.080562,-2.4215364,2.7469604,-0.45425335,0.04151778,0.46402225,8.871589856875065,0.6506815470327144,jump
10/07/2020, 20:43:14,-8.240881,-2.5459633,2.833102,-0.45425335,0.04151778,0.46402225,9.078574504452948,0.6506815470327144,jump
10/07/2020, 20:43:14,-8.240881,-2.5459633,2.833102,-0.40174556,0.06349778,0.50798225,9.078574504452948,0.6507514363375015,jump
10/07/2020, 20:43:14,-8.34138,-2.6751757,2.9599216,-0.40174556,0.06349778,0.50798225,9.246422173587757,0.6507514363375015,jump
10/07/2020, 20:43:14,-8.34138,-2.6751757,2.9599216,-0.31382558,0.085477784,0.5507211,9.246422173587757,0.6395988465430444,jump
10/07/2020, 20:43:14,-8.441878,-2.766103,3.0245278,-0.31382558,0.085477784,0.5507211,9.384263629022644,0.6395988465430444,jump
10/07/2020, 20:43:14,-8.441878,-2.766103,3.0245278,-0.21003112,0.11966889,0.5873545,9.384263629022644,0.6351527398039886,jump
10/07/2020, 20:43:14,-8.544769,-2.8881369,3.062813,-0.21003112,0.11966889,0.5873545,9.525504734839584,0.6351527398039886,jump
10/07/2020, 20:43:14,-8.544769,-2.8881369,3.062813,-0.106236674,0.15630223,0.6252089,9.525504734839584,0.6531483782652917,jump
10/07/2020, 20:43:14,-8.623733,-2.9599216,3.0867412,-0.106236674,0.15630223,0.6252089,9.625895830761326,0.6531483782652917,jump
10/07/2020, 20:43:14,-8.623733,-2.9599216,3.0867412,-0.012211111,0.19049335,0.65940005,9.625895830761326,0.6864730485060726,jump
10/07/2020, 20:43:14,-8.738588,-2.9575288,3.0963125,-0.012211111,0.19049335,0.65940005,9.73124113734074,0.6864730485060726,jump
10/07/2020, 20:43:14,-8.738588,-2.9575288,3.0963125,0.07448778,0.20636779,0.6801589,9.73124113734074,0.7146693235155318,jump
10/07/2020, 20:43:14,-8.803194,-2.940779,3.0747771,0.07448778,0.20636779,0.6801589,9.777456762522831,0.7146693235155318,jump
10/07/2020, 20:43:14,-8.803194,-2.940779,3.0747771,0.14409111,0.21125223,0.6874856,9.777456762522831,0.7335026718453974,jump
10/07/2020, 20:43:14,-8.829515,-2.9216363,3.0699914,0.14409111,0.21125223,0.6874856,9.793934297257882,0.7335026718453974,jump
10/07/2020, 20:43:14,-8.829515,-2.9216363,3.0699914,0.21125223,0.21003112,0.68138003,9.793934297257882,0.7436526916719233,jump
10/07/2020, 20:43:14,-8.805588,-2.8666015,3.0532417,0.21125223,0.21003112,0.68138003,9.750798171498055,0.7436526916719233,jump
10/07/2020, 20:43:14,-8.805588,-2.8666015,3.0532417,0.27230778,0.2185789,0.67039,9.750798171498055,0.755877656688715,jump
10/07/2020, 20:43:14,-8.807981,-2.8115666,3.0843484,0.27230778,0.2185789,0.67039,9.746724226372654,0.755877656688715,jump
10/07/2020, 20:43:15,-16.840685,-2.4239295,-1.9812572,-0.7314456,-2.097869,1.7925912,17.12919967994889,2.8547241451983374,jump
10/07/2020, 20:43:15,-13.3352,-2.1272194,0.8111669,-0.7314456,-2.097869,1.7925912,13.528141836641637,2.8547241451983374,jump
10/07/2020, 20:43:15,-13.3352,-2.1272194,0.8111669,-0.45791668,-2.7084246,0.5702589,13.528141836641637,2.805431616560058,jump
10/07/2020, 20:43:15,-9.578469,-1.9860427,4.3118663,-0.45791668,-2.7084246,0.5702589,10.690352205729821,2.805431616560058,jump
10/07/2020, 20:43:15,-9.578469,-1.9860427,4.3118663,0.47867557,-1.9586623,-0.24300112,10.690352205729821,2.030895798040372,jump
10/07/2020, 20:43:15,-5.8935223,-0.69152576,6.936793,0.47867557,-1.9586623,-0.24300112,9.128576426976084,2.030895798040372,jump
10/07/2020, 20:43:15,-5.8935223,-0.69152576,6.936793,1.6594901,-0.36511225,-0.7863956,9.128576426976084,1.872333417459572,jump
10/07/2020, 20:43:15,-3.225525,1.698904,7.4919276,1.6594901,-0.36511225,-0.7863956,8.33182245032145,1.872333417459572,jump
10/07/2020, 20:43:15,-3.225525,1.698904,7.4919276,2.7047613,0.93537116,-1.6191934,8.33182245032145,3.2882275007699078,jump
10/07/2020, 20:43:15,-2.4885356,3.9768713,5.436493,2.7047613,0.93537116,-1.6191934,7.180791729916068,3.2882275007699078,jump
10/07/2020, 20:43:15,-2.4885356,3.9768713,5.436493,2.856179,1.2601867,-2.669349,7.180791729916068,4.107463057317516,jump
10/07/2020, 20:43:15,-3.4624143,4.800002,2.806781,2.856179,1.2601867,-2.669349,6.550294082282622,4.107463057317516,jump
10/07/2020, 20:43:15,-3.4624143,4.800002,2.806781,1.9147023,0.89019006,-3.4960413,6.550294082282622,4.084216937389781,jump
10/07/2020, 20:43:15,-5.156533,4.388437,0.57188463,1.9147023,0.89019006,-3.4960413,6.795238015002371,4.084216937389781,jump
10/07/2020, 20:43:15,-5.156533,4.388437,0.57188463,0.3834289,0.40296668,-3.9368625,6.795238015002371,3.9759635264625026,jump
10/07/2020, 20:43:15,-6.6568327,3.347559,-0.997807,0.3834289,0.40296668,-3.9368625,7.517658643676689,3.9759635264625026,jump
10/07/2020, 20:43:15,-6.6568327,3.347559,-0.997807,-1.1478444,0.0036633336,-4.07729,7.517658643676689,4.235782629261992,jump
10/07/2020, 20:43:15,-7.63789,2.0338993,-1.861616,-1.1478444,0.0036633336,-4.07729,8.120327710500645,4.235782629261992,jump
10/07/2020, 20:43:15,-7.63789,2.0338993,-1.861616,-2.361629,-0.3309211,-4.0284457,8.120327710500645,4.681364681914426,jump
10/07/2020, 20:43:15,-8.130812,0.75613195,-1.835295,-2.361629,-0.3309211,-4.0284457,8.369596279256365,4.681364681914426,jump
10/07/2020, 20:43:16,-9.099904,-2.8426733,3.548556,0.16973445,0.22224224,0.57514334,10.172575668316817,0.6395242394233596,jump
10/07/2020, 20:43:16,-9.099904,-2.8426733,3.548556,0.089141116,0.21980001,0.46646446,10.172575668316817,0.5233041900894698,jump
10/07/2020, 20:43:16,-9.140582,-2.7613173,3.4672,0.089141116,0.21980001,0.46646446,10.158572239331248,0.5233041900894698,jump
10/07/2020, 20:43:16,-9.140582,-2.7613173,3.4672,0.037854444,0.19537778,0.36999667,10.158572239331248,0.4201225656470292,jump
10/07/2020, 20:43:16,-9.18126,-2.8354948,3.3092737,0.037854444,0.19537778,0.36999667,10.163014329218347,0.4201225656470292,jump
10/07/2020, 20:43:16,-9.18126,-2.8354948,3.3092737,0.014653334,0.1526389,0.32725778,10.163014329218347,0.3614014515768537,jump
10/07/2020, 20:43:16,-9.188439,-2.9838498,3.2159536,0.014653334,0.1526389,0.32725778,10.182000537131083,0.3614014515768537,jump
10/07/2020, 20:43:16,-9.188439,-2.9838498,3.2159536,0.0036633336,0.102573335,0.32237336,10.182000537131083,0.33831833026566416,jump
10/07/2020, 20:43:16,-9.133404,-3.0699914,3.158526,0.0036633336,0.102573335,0.32237336,10.14002946745715,0.33831833026566416,jump
10/07/2020, 20:43:16,-9.133404,-3.0699914,3.158526,0.0061055557,0.06105556,0.31138334,10.14002946745715,0.31737145681681334,jump
10/07/2020, 20:43:16,-9.035298,-3.0412776,3.141776,0.0061055557,0.06105556,0.31138334,10.037765833179904,0.31737145681681334,jump
10/07/2020, 20:43:16,-9.035298,-3.0412776,3.141776,0.013432222,0.02075889,0.2759711,10.037765833179904,0.27707654576003377,jump
10/07/2020, 20:43:16,-8.898908,-3.010171,3.237489,0.013432222,0.02075889,0.2759711,9.936449142558576,0.27707654576003377,jump
10/07/2020, 20:43:16,-8.898908,-3.010171,3.237489,0.042738892,-0.0024422223,0.22224224,9.936449142558576,0.22632761403416646,jump
10/07/2020, 20:43:16,-8.769695,-2.9862428,3.3523445,0.042738892,-0.0024422223,0.22224224,9.852076682633857,0.22632761403416646,jump
10/07/2020, 20:43:16,-8.769695,-2.9862428,3.3523445,0.08425667,-0.012211111,0.16118668,9.852076682633857,0.18228945055693768,jump
10/07/2020, 20:43:16,-8.6548395,-3.0029924,3.4217365,0.08425667,-0.012211111,0.16118668,9.779186616308856,0.18228945055693768,jump
10/07/2020, 20:43:16,-8.6548395,-3.0029924,3.4217365,0.15019667,-0.019537779,0.10379445,9.779186616308856,0.18361386758274192,jump
10/07/2020, 20:43:16,-8.578269,-3.0436704,3.507878,0.15019667,-0.019537779,0.10379445,9.754785350752389,0.18361386758274192,jump
10/07/2020, 20:43:16,-8.578269,-3.0436704,3.507878,0.24788557,-0.051286668,0.054950003,9.754785350752389,0.259031042223148,jump
10/07/2020, 20:43:17,-7.0899334,-5.087141,3.4528432,-1.7669479,0.66306335,-3.0173657,9.384470447003597,3.55896803772345,jump
10/07/2020, 20:43:17,-8.257631,-5.1589255,3.3379877,-1.7669479,0.66306335,-3.0173657,10.292965996410809,3.55896803772345,jump
10/07/2020, 20:43:17,-8.257631,-5.1589255,3.3379877,-1.4519012,0.6899278,-3.1236024,10.292965996410809,3.5129630472807225,jump
10/07/2020, 20:43:17,-9.554541,-5.319245,2.9048867,-1.4519012,0.6899278,-3.1236024,11.314679823059269,3.5129630472807225,jump
10/07/2020, 20:43:17,-9.554541,-5.319245,2.9048867,-1.1930256,0.5043189,-3.0246923,11.314679823059269,3.2903512112229625,jump
10/07/2020, 20:43:17,-10.724631,-5.508278,2.5914268,-1.1930256,0.5043189,-3.0246923,12.33184232739625,3.2903512112229625,jump
10/07/2020, 20:43:17,-10.724631,-5.508278,2.5914268,-0.91583335,0.16729222,-2.7120879,12.33184232739625,2.867430562826613,jump
10/07/2020, 20:43:17,-11.425728,-5.611169,2.440679,-0.91583335,0.16729222,-2.7120879,12.96107198886861,2.867430562826613,jump
10/07/2020, 20:43:17,-11.425728,-5.611169,2.440679,-0.59956557,-0.17584,-2.29691,12.96107198886861,2.3803769326185273,jump
10/07/2020, 20:43:17,-11.473584,-5.584848,2.4502504,-0.59956557,-0.17584,-2.29691,12.993744154477783,2.3803769326185273,jump
10/07/2020, 20:43:17,-11.473584,-5.584848,2.4502504,-0.28940335,-0.41273558,-1.9330189,12.993744154477783,1.9976654160751957,jump
10/07/2020, 20:43:17,-10.8682,-5.352744,2.5842485,-0.28940335,-0.41273558,-1.9330189,12.387412472529997,1.9976654160751957,jump
10/07/2020, 20:43:17,-10.8682,-5.352744,2.5842485,0.025643334,-0.5568267,-1.6643745,12.387412472529997,1.7552367205228443,jump
10/07/2020, 20:43:17,-9.882358,-5.056034,2.7948167,0.025643334,-0.5568267,-1.6643745,11.447072680386162,1.7552367205228443,jump
10/07/2020, 20:43:17,-9.882358,-5.056034,2.7948167,0.3724389,-0.64108336,-1.4653333,11.447072680386162,1.6422242291521953,jump
10/07/2020, 20:43:17,-8.750552,-4.9172506,2.9599216,0.3724389,-0.64108336,-1.4653333,10.464829337781211,1.6422242291521953,jump
10/07/2020, 20:43:17,-8.750552,-4.9172506,2.9599216,0.7522045,-0.62643003,-1.2321012,10.464829337781211,1.573626237928161,jump
10/07/2020, 20:43:17,-7.5589266,-4.8789654,2.9886355,0.7522045,-0.62643003,-1.2321012,9.48016965175201,1.573626237928161,jump
10/07/2020, 20:43:17,-7.5589266,-4.8789654,2.9886355,1.1356333,-0.53851,-0.9072856,9.48016965175201,1.5501042733871968,jump
10/07/2020, 20:43:17,-6.4821568,-4.651647,3.0149565,1.1356333,-0.53851,-0.9072856,8.529134737932234,1.5501042733871968,jump
10/07/2020, 20:43:18,-8.913264,-3.022135,3.495914,0.7631945,0.5482789,0.80104893,10.039969854336382,1.2348097120767372,jump
10/07/2020, 20:43:18,-8.903693,-3.1250265,3.5820556,0.7631945,0.5482789,0.80104893,10.093198952043712,1.2348097120767372,jump
10/07/2020, 20:43:18,-8.903693,-3.1250265,3.5820556,0.8962956,0.5250778,0.78029,10.093198952043712,1.299193991714451,jump
10/07/2020, 20:43:18,-8.829515,-3.2279177,3.802195,0.8962956,0.5250778,0.78029,10.140832464203458,1.299193991714451,jump
10/07/2020, 20:43:18,-8.829515,-3.2279177,3.802195,1.0281756,0.4701278,0.7326667,10.140832464203458,1.3472066063076695,jump
10/07/2020, 20:43:18,-8.721839,-3.3355947,4.17069,1.0281756,0.4701278,0.7326667,10.226989877731635,1.3472066063076695,jump
10/07/2020, 20:43:18,-8.721839,-3.3355947,4.17069,1.1563922,0.48844448,0.66062117,10.226989877731635,1.4185349102147389,jump
10/07/2020, 20:43:18,-8.752945,-3.534199,4.682754,1.1563922,0.48844448,0.66062117,10.537209934185222,1.4185349102147389,jump
10/07/2020, 20:43:18,-8.752945,-3.534199,4.682754,1.18692,0.50676113,0.5775856,10.537209934185222,1.4139275596659777,jump
10/07/2020, 20:43:18,-8.987442,-3.6873398,5.1756754,1.18692,0.50676113,0.5775856,11.007188761890243,1.4139275596659777,jump
10/07/2020, 20:43:18,-8.987442,-3.6873398,5.1756754,1.1502867,0.51775116,0.46646446,11.007188761890243,1.3449218515385908,jump
10/07/2020, 20:43:18,-9.427721,-3.9242291,5.6279187,1.1502867,0.51775116,0.46646446,11.65997286457458,1.3449218515385908,jump
10/07/2020, 20:43:18,-9.427721,-3.9242291,5.6279187,0.9097278,0.42372558,0.30039334,11.65997286457458,1.047561079448068,jump
10/07/2020, 20:43:18,-10.12164,-4.082155,6.0777693,0.9097278,0.42372558,0.30039334,12.492032307216606,1.047561079448068,jump
10/07/2020, 20:43:18,-10.12164,-4.082155,6.0777693,0.42983112,0.17095557,0.04029667,12.492032307216606,0.46433222752046366,jump
10/07/2020, 20:43:18,-11.179267,-4.3908296,6.8721867,0.42983112,0.17095557,0.04029667,13.837714509152521,0.46433222752046366,jump
10/07/2020, 20:43:18,-11.179267,-4.3908296,6.8721867,-0.017095556,-0.20148334,-0.30405667,13.837714509152521,0.36515511104992054,jump
10/07/2020, 20:43:18,-12.256038,-5.2642097,7.475178,-0.017095556,-0.20148334,-0.30405667,15.290541104905767,0.36515511104992054,jump
10/07/2020, 20:43:18,-12.256038,-5.2642097,7.475178,-0.035412222,-0.5360678,-0.72534,15.290541104905767,0.9026299477710519,jump
10/07/2020, 20:43:18,-13.014563,-6.62094,7.8484583,-0.035412222,-0.5360678,-0.72534,16.577514488659926,0.9026299477710519,jump
10/07/2020, 20:43:19,-12.406785,-1.7108682,2.3856442,1.6851335,-0.08669889,1.2540811,12.749379698083285,2.1023584248868956,jump
10/07/2020, 20:43:19,-12.406785,-1.7108682,2.3856442,1.0794623,-0.37366003,1.0635878,12.749379698083285,1.560794550073375,jump
10/07/2020, 20:43:19,-12.282358,-0.971486,2.1774685,1.0794623,-0.37366003,1.0635878,12.511653625122756,1.560794550073375,jump
10/07/2020, 20:43:19,-12.282358,-0.971486,2.1774685,0.40907225,-0.65329444,0.8083756,12.511653625122756,1.1169623280671377,jump
10/07/2020, 20:43:19,-11.8899355,-0.3804588,2.1367905,0.40907225,-0.65329444,0.8083756,12.086405116475072,1.1169623280671377,jump
10/07/2020, 20:43:19,-11.8899355,-0.3804588,2.1367905,-0.25887558,-0.8743156,0.49943447,12.086405116475072,1.0396533838820345,jump
10/07/2020, 20:43:19,-11.277373,0.038285162,2.184647,-0.25887558,-0.8743156,0.49943447,11.487092647545623,1.0396533838820345,jump
10/07/2020, 20:43:19,-11.277373,0.038285162,2.184647,-0.8523356,-0.9878789,0.18927222,11.487092647545623,1.318409898604681,jump
10/07/2020, 20:43:19,-10.559526,0.36610186,2.2492533,-0.8523356,-0.9878789,0.18927222,10.802627901087723,1.318409898604681,jump
10/07/2020, 20:43:19,-10.559526,0.36610186,2.2492533,-1.3920667,-1.0403867,-0.11966889,10.802627901087723,1.7420031074325766,jump
10/07/2020, 20:43:19,-9.8632145,0.567099,2.306681,-1.3920667,-1.0403867,-0.11966889,10.145214548488111,1.7420031074325766,jump
10/07/2020, 20:43:19,-9.8632145,0.567099,2.306681,-1.8206767,-1.0428289,-0.4261678,10.145214548488111,2.1410218873594506,jump
10/07/2020, 20:43:19,-9.293723,0.67477596,2.3904297,-1.8206767,-1.0428289,-0.4261678,9.61991507709756,2.1410218873594506,jump
10/07/2020, 20:43:19,-9.293723,0.67477596,2.3904297,-2.1479344,-1.0123012,-0.74609894,9.61991507709756,2.4889836679564104,jump
10/07/2020, 20:43:19,-8.863015,0.60777694,2.4789643,-2.1479344,-1.0123012,-0.74609894,9.22321500030386,2.4889836679564104,jump
10/07/2020, 20:43:19,-8.863015,0.60777694,2.4789643,-2.3530812,-0.9268234,-1.0672512,9.22321500030386,2.7449987188705474,jump
10/07/2020, 20:43:19,-8.575876,0.42592242,2.5411777,-2.3530812,-0.9268234,-1.0672512,8.954588068733056,2.7449987188705474,jump
10/07/2020, 20:43:19,-8.575876,0.42592242,2.5411777,-2.493509,-0.82547116,-1.3774134,8.954588068733056,2.965848562646211,jump
10/07/2020, 20:43:19,-8.484949,0.2009971,2.5555346,-2.493509,-0.82547116,-1.3774134,8.863719217354198,2.965848562646211,jump
10/07/2020, 20:43:19,-8.484949,0.2009971,2.5555346,-2.591198,-0.7436567,-1.6423945,8.863719217354198,3.1567058812395916,jump
10/07/2020, 20:43:20,-16.400406,-7.3172517,8.717052,-0.20026223,-1.2540811,-2.064899,19.96252711758531,2.4241766003923773,jump
10/07/2020, 20:43:20,-16.400406,-7.3172517,8.717052,0.3370267,-1.2259957,-2.7377312,19.96252711758531,3.0185798926818603,jump
10/07/2020, 20:43:20,-18.314665,-9.437292,8.425129,0.3370267,-1.2259957,-2.7377312,22.2592054662806,3.0185798926818603,jump
10/07/2020, 20:43:20,-18.314665,-9.437292,8.425129,0.80104893,-1.2504178,-3.2640302,22.2592054662806,3.5859611551449553,jump
10/07/2020, 20:43:20,-20.338993,-10.116854,7.9944205,0.80104893,-1.2504178,-3.2640302,24.08186304792367,3.5859611551449553,jump
10/07/2020, 20:43:20,-20.338993,-10.116854,7.9944205,0.89019006,-1.4543434,-3.7524745,24.08186304792367,4.121725173925188,jump
10/07/2020, 20:43:20,-22.492533,-9.600004,7.7479596,0.89019006,-1.4543434,-3.7524745,25.653557011810943,4.121725173925188,jump
10/07/2020, 20:43:20,-22.492533,-9.600004,7.7479596,0.5470578,-1.7986968,-4.2714467,25.653557011810943,4.66688753009277,jump
10/07/2020, 20:43:20,-25.019354,-8.525627,7.9393854,0.5470578,-1.7986968,-4.2714467,27.598699728810338,4.66688753009277,jump
10/07/2020, 20:43:20,-25.019354,-8.525627,7.9393854,0.13310112,-2.141829,-4.818505,27.598699728810338,5.2747640743418645,jump
10/07/2020, 20:43:20,-27.763922,-7.7671022,8.126026,0.13310112,-2.141829,-4.818505,29.953222339743228,5.2747640743418645,jump
10/07/2020, 20:43:20,-27.763922,-7.7671022,8.126026,-0.06594,-2.4324534,-5.2886324,29.953222339743228,5.821581416105205,jump
10/07/2020, 20:43:20,-30.271599,-7.9226356,7.733603,-0.06594,-2.4324534,-5.2886324,32.232692478057025,5.821581416105205,jump
10/07/2020, 20:43:20,-30.271599,-7.9226356,7.733603,-0.03174889,-2.9123502,-5.491337,32.232692478057025,6.215912776756987,jump
10/07/2020, 20:43:20,-31.231121,-8.183454,6.3361945,-0.03174889,-2.9123502,-5.491337,32.90135553389446,6.215912776756987,jump
10/07/2020, 20:43:20,-31.231121,-8.183454,6.3361945,0.27719223,-3.7805603,-5.521865,32.90135553389446,6.697795402387605,jump
10/07/2020, 20:43:20,-29.84089,-8.176275,5.1900325,0.27719223,-3.7805603,-5.521865,31.373024765840384,6.697795402387605,jump
10/07/2020, 20:43:20,-29.84089,-8.176275,5.1900325,0.5189722,-4.5193324,-5.48401,31.373024765840384,7.125171273286349,jump
10/07/2020, 20:43:20,-26.78765,-7.3746796,3.7710886,0.5189722,-4.5193324,-5.48401,28.038993476163423,7.125171273286349,jump
10/07/2020, 20:43:20,-26.78765,-7.3746796,3.7710886,0.39930335,-5.4437137,-5.5841413,28.038993476163423,7.808719176586898,jump
10/07/2020, 20:43:21,-5.2426744,-5.9748783,4.2568316,0.6691689,0.45791668,1.7022289,9.016951859864987,1.8854861247459236,jump
10/07/2020, 20:43:21,-5.723632,-5.5872407,3.9146578,0.6691689,0.45791668,1.7022289,8.90515391137036,1.8854861247459236,jump
10/07/2020, 20:43:21,-5.723632,-5.5872407,3.9146578,0.78761667,0.52752,1.954999,8.90515391137036,2.1727030039286364,jump
10/07/2020, 20:43:21,-6.242874,-4.962714,3.493521,0.78761667,0.52752,1.954999,8.70670423202455,2.1727030039286364,jump
10/07/2020, 20:43:21,-6.242874,-4.962714,3.493521,0.7668578,0.48966557,2.1442711,8.70670423202455,2.3293222104277223,jump
10/07/2020, 20:43:21,-6.7262244,-4.240082,3.1058838,0.7668578,0.48966557,2.1442711,8.536211276085304,2.3293222104277223,jump
10/07/2020, 20:43:21,-6.7262244,-4.240082,3.1058838,0.6972545,0.39686114,2.2016635,8.536211276085304,2.3432850255404754,jump
10/07/2020, 20:43:21,-7.135397,-3.6801612,2.87378,0.6972545,0.39686114,2.2016635,8.527372868202223,2.3432850255404754,jump
10/07/2020, 20:43:21,-7.135397,-3.6801612,2.87378,0.6691689,0.32725778,2.151598,8.527372868202223,2.2768966845252523,jump
10/07/2020, 20:43:21,-7.4249287,-3.400201,2.8235307,0.6691689,0.32725778,2.151598,8.640790389150572,2.2768966845252523,jump
10/07/2020, 20:43:21,-7.4249287,-3.400201,2.8235307,0.7448778,0.29917222,2.0465822,8.640790389150572,2.19837343728835,jump
10/07/2020, 20:43:21,-7.726424,-3.3930225,2.7302105,0.7448778,0.29917222,2.0465822,8.869288738676994,2.19837343728835,jump
10/07/2020, 20:43:21,-7.726424,-3.3930225,2.7302105,0.9280445,0.30283555,1.9281346,8.869288738676994,2.1611753391673982,jump
10/07/2020, 20:43:21,-8.118847,-3.6921253,2.6656044,0.9280445,0.30283555,1.9281346,9.30875452599777,2.1611753391673982,jump
10/07/2020, 20:43:21,-8.118847,-3.6921253,2.6656044,1.2223322,0.31993112,1.8145711,9.30875452599777,2.211135557649221,jump
10/07/2020, 20:43:21,-8.578269,-4.0390844,2.5794628,1.2223322,0.31993112,1.8145711,9.826216482080023,2.211135557649221,jump
10/07/2020, 20:43:21,-8.578269,-4.0390844,2.5794628,1.6045401,0.3370267,1.7083346,9.826216482080023,2.3678139573619807,jump
10/07/2020, 20:43:21,-9.119047,-4.3501515,2.5579274,1.6045401,0.3370267,1.7083346,10.422275760959808,2.3678139573619807,jump
10/07/2020, 20:43:21,-9.119047,-4.3501515,2.5579274,2.0050645,0.3602278,1.6057612,10.422275760959808,2.593938433803575,jump
10/07/2020, 20:43:21,-9.722038,-4.5320063,2.5459633,2.0050645,0.3602278,1.6057612,11.024474497217646,2.593938433803575,jump
10/07/2020, 20:43:22,-18.78605,-9.138189,8.286345,-0.3382478,-1.3053678,-3.3910258,22.47411208791875,3.6493085091140327,jump
10/07/2020, 20:43:22,-18.78605,-9.138189,8.286345,-0.34679556,-1.2723979,-3.9356413,22.47411208791875,4.150727149279857,jump
10/07/2020, 20:43:22,-21.123838,-8.903693,8.152347,-0.34679556,-1.2723979,-3.9356413,24.330085442576696,4.150727149279857,jump
10/07/2020, 20:43:22,-21.123838,-8.903693,8.152347,-0.24666445,-1.3236845,-4.588936,24.330085442576696,4.782396484879371,jump
10/07/2020, 20:43:22,-23.818157,-9.150154,7.32443,-0.24666445,-1.3236845,-4.588936,26.545756858356242,4.782396484879371,jump
10/07/2020, 20:43:22,-23.818157,-9.150154,7.32443,0.008547778,-1.5202833,-5.090812,26.545756858356242,5.312975006732601,jump
10/07/2020, 20:43:22,-26.3378,-9.9756775,6.2548385,0.008547778,-1.5202833,-5.090812,28.84990131012614,5.312975006732601,jump
10/07/2020, 20:43:22,-26.3378,-9.9756775,6.2548385,0.36511225,-1.9452301,-5.283748,28.84990131012614,5.642270970749572,jump
10/07/2020, 20:43:22,-27.66821,-10.523634,4.9459643,0.36511225,-1.9452301,-5.283748,30.012317943557036,5.642270970749572,jump
10/07/2020, 20:43:22,-27.66821,-10.523634,4.9459643,0.7619734,-2.713309,-5.3643413,30.012317943557036,6.059604489992015,jump
10/07/2020, 20:43:22,-27.00061,-10.057034,3.8069808,0.7619734,-2.713309,-5.3643413,29.063206742154907,6.059604489992015,jump
10/07/2020, 20:43:22,-27.00061,-10.057034,3.8069808,1.0355023,-3.4874935,-5.4571457,29.063206742154907,6.558606189782138,jump
10/07/2020, 20:43:22,-24.75375,-9.032906,3.4432719,1.0355023,-3.4874935,-5.4571457,26.574379313695946,6.558606189782138,jump
10/07/2020, 20:43:22,-24.75375,-9.032906,3.4432719,1.0342811,-4.01135,-5.569488,26.574379313695946,6.941171706088962,jump
10/07/2020, 20:43:22,-21.68376,-7.8029947,3.2327034,1.0342811,-4.01135,-5.569488,23.270636703143506,6.941171706088962,jump
10/07/2020, 20:43:22,-21.68376,-7.8029947,3.2327034,0.61666113,-4.4753723,-5.6867146,23.270636703143506,7.262778518264323,jump
10/07/2020, 20:43:22,-18.525232,-6.7645097,3.022135,0.61666113,-4.4753723,-5.6867146,19.951845117286577,7.262778518264323,jump
10/07/2020, 20:43:22,-18.525232,-6.7645097,3.022135,-0.045181114,-5.00045,-5.6635137,19.951845117286577,7.555258424459389,jump
10/07/2020, 20:43:22,-15.373885,-6.1591253,3.5413775,-0.045181114,-5.00045,-5.6635137,16.93613074079933,7.555258424459389,jump
10/07/2020, 20:43:22,-15.373885,-6.1591253,3.5413775,-0.60933447,-5.1653004,-5.4229546,16.93613074079933,7.513990454621317,jump
10/07/2020, 20:43:23,-10.066605,-1.9501505,2.4263222,0.028085556,-0.6935911,0.51775116,10.536918663275262,0.8659813497360068,jump
10/07/2020, 20:43:23,-10.066605,-1.9501505,2.4263222,-0.039075557,-0.6105556,0.18194556,10.536918663275262,0.6382861539557974,jump
10/07/2020, 20:43:23,-9.339187,-1.6199409,2.536392,-0.039075557,-0.6105556,0.18194556,9.812130263872682,0.6382861539557974,jump
10/07/2020, 20:43:23,-9.339187,-1.6199409,2.536392,-0.04151778,-0.5092034,-0.16485001,9.812130263872682,0.5368308194945381,jump
10/07/2020, 20:43:23,-8.800801,-1.2610176,2.6416762,-0.04151778,-0.5092034,-0.16485001,9.274843475164646,0.5368308194945381,jump
10/07/2020, 20:43:23,-8.800801,-1.2610176,2.6416762,-0.0061055557,-0.41395667,-0.5104245,9.274843475164646,0.6572142488555919,jump
10/07/2020, 20:43:23,-8.444271,-0.86141616,2.696711,-0.0061055557,-0.41395667,-0.5104245,8.906177775206453,0.6572142488555919,jump
10/07/2020, 20:43:23,-8.444271,-0.86141616,2.696711,0.02075889,-0.31260446,-0.8413456,8.906177775206453,0.897783331665924,jump
10/07/2020, 20:43:23,-8.274381,-0.50009996,2.725425,0.02075889,-0.31260446,-0.8413456,8.726019546546793,0.897783331665924,jump
10/07/2020, 20:43:23,-8.274381,-0.50009996,2.725425,0.02198,-0.21980001,-1.1405178,8.726019546546793,1.1617125666235333,jump
10/07/2020, 20:43:23,-8.185846,-0.26081768,2.7445676,0.02198,-0.21980001,-1.1405178,8.637636104196593,1.1617125666235333,jump
10/07/2020, 20:43:23,-8.185846,-0.26081768,2.7445676,-0.024422223,-0.13676445,-1.405499,8.637636104196593,1.4123485218551801,jump
10/07/2020, 20:43:23,-8.257631,-0.15792629,2.6464617,-0.024422223,-0.13676445,-1.405499,8.672783583970086,1.4123485218551801,jump
10/07/2020, 20:43:23,-8.257631,-0.15792629,2.6464617,-0.14531223,-0.08303556,-1.636289,8.672783583970086,1.644825900432539,jump
10/07/2020, 20:43:23,-8.451449,-0.29192436,2.507678,-0.14531223,-0.08303556,-1.636289,8.820468570625776,1.644825900432539,jump
10/07/2020, 20:43:23,-8.451449,-0.29192436,2.507678,-0.32359445,-0.06349778,-1.8316667,8.820468570625776,1.8611147912318398,jump
10/07/2020, 20:43:23,-8.748159,-0.6029913,2.3928227,-0.32359445,-0.06349778,-1.8316667,9.089526511424335,1.8611147912318398,jump
10/07/2020, 20:43:23,-8.748159,-0.6029913,2.3928227,-0.5128667,-0.07204556,-1.9574412,9.089526511424335,2.0247960102300193,jump
10/07/2020, 20:43:23,-9.042477,-1.0480564,2.3449662,-0.5128667,-0.07204556,-1.9574412,9.40019534555826,2.0247960102300193,jump
10/07/2020, 20:43:23,-9.042477,-1.0480564,2.3449662,-0.65085226,-0.10745778,-1.9940746,9.40019534555826,2.100354561815891,jump
10/07/2020, 20:43:24,-24.138794,-18.101704,1.6630118,-1.1490656,0.17095557,-6.2752905,30.217853268450405,6.381915724523274,jump
10/07/2020, 20:43:24,-24.138794,-18.101704,1.6630118,-0.6471889,-0.28329778,-6.5756836,30.217853268450405,6.61352597563583,jump
10/07/2020, 20:43:24,-23.246271,-18.75973,1.861616,-0.6471889,-0.28329778,-6.5756836,29.92962048556695,6.61352597563583,jump
10/07/2020, 20:43:24,-23.246271,-18.75973,1.861616,-0.39564002,-0.4798967,-6.644066,29.92962048556695,6.6731134390577616,jump
10/07/2020, 20:43:24,-21.50669,-17.96292,1.9812572,-0.39564002,-0.4798967,-6.644066,28.091449274997206,6.6731134390577616,jump
10/07/2020, 20:43:24,-21.50669,-17.96292,1.9812572,-0.31993112,-0.5800278,-6.568357,28.091449274997206,6.601674162707541,jump
10/07/2020, 20:43:24,-19.389042,-16.141981,1.3974084,-0.31993112,-0.5800278,-6.568357,25.267592892921577,6.601674162707541,jump
10/07/2020, 20:43:24,-19.389042,-16.141981,1.3974084,-0.42250445,-0.7436567,-6.50608,25.267592892921577,6.562058687661136,jump
10/07/2020, 20:43:24,-17.06322,-13.909478,0.485743,-0.42250445,-0.7436567,-6.50608,22.019604327610494,6.562058687661136,jump
10/07/2020, 20:43:24,-17.06322,-13.909478,0.485743,-0.7021389,-0.94391894,-6.449909,22.019604327610494,6.556318389733938,jump
10/07/2020, 20:43:24,-14.711074,-11.784652,-0.30867413,-0.7021389,-0.94391894,-6.449909,18.85176361250645,6.556318389733938,jump
10/07/2020, 20:43:24,-14.711074,-11.784652,-0.30867413,-0.9292656,-1.0525978,-6.333904,18.85176361250645,6.487667828356007,jump
10/07/2020, 20:43:24,-12.332608,-9.805787,-0.6149554,-0.9292656,-1.0525978,-6.333904,15.767842469457484,6.487667828356007,jump
10/07/2020, 20:43:24,-12.332608,-9.805787,-0.6149554,-0.80227005,-1.01108,-6.0725856,15.767842469457484,6.208237730686396,jump
10/07/2020, 20:43:24,-9.97807,-8.01117,-0.6843473,-0.80227005,-1.01108,-6.0725856,12.814408619122657,6.208237730686396,jump
10/07/2020, 20:43:24,-9.97807,-8.01117,-0.6843473,-0.34313223,-0.8853056,-5.7245693,12.814408619122657,5.802775164440709,jump
10/07/2020, 20:43:24,-7.6067834,-6.384051,-0.59342,-0.34313223,-0.8853056,-5.7245693,9.948437368707792,5.802775164440709,jump
10/07/2020, 20:43:24,-7.6067834,-6.384051,-0.59342,0.25887558,-0.75831,-5.3887634,9.948437368707792,5.448010823382376,jump
10/07/2020, 20:43:24,-5.304888,-4.7856455,-0.40438703,0.25887558,-0.75831,-5.3887634,7.155960162294253,5.448010823382376,jump
10/07/2020, 20:43:24,-5.304888,-4.7856455,-0.40438703,0.83890337,-0.61299783,-5.1164556,7.155960162294253,5.220885235802245,jump
10/07/2020, 20:43:25,-8.925228,0.019142581,2.589034,-1.3786345,-0.8498934,-0.41151446,9.293178190628428,1.6710164219533332,jump
10/07/2020, 20:43:25,-8.391629,0.3589234,2.8977082,-1.3786345,-0.8498934,-0.41151446,8.885098741341416,1.6710164219533332,jump
10/07/2020, 20:43:25,-8.391629,0.3589234,2.8977082,-1.5447056,-0.6655056,-0.7815111,8.885098741341416,1.8546624523566149,jump
10/07/2020, 20:43:25,-8.240881,0.65084773,3.1393833,-1.5447056,-0.6655056,-0.7815111,8.842592915851332,1.8546624523566149,jump
10/07/2020, 20:43:25,-8.240881,0.65084773,3.1393833,-1.6631534,-0.49821335,-1.1270856,8.842592915851332,2.0699318061719154,jump
10/07/2020, 20:43:25,-8.439486,0.7680961,3.2015967,-1.6631534,-0.49821335,-1.1270856,9.058979501891873,2.0699318061719154,jump
10/07/2020, 20:43:25,-8.439486,0.7680961,3.2015967,-1.7645056,-0.40907225,-1.4335845,9.058979501891873,2.3099750184274783,jump
10/07/2020, 20:43:25,-8.79123,0.7513463,3.0699914,-1.7645056,-0.40907225,-1.4335845,9.342114139607911,2.3099750184274783,jump
10/07/2020, 20:43:25,-8.79123,0.7513463,3.0699914,-1.9208078,-0.4041878,-1.7095556,9.342114139607911,2.602969643842985,jump
10/07/2020, 20:43:25,-9.128618,0.55034924,2.833102,-1.9208078,-0.4041878,-1.7095556,9.573976296853772,2.602969643842985,jump
10/07/2020, 20:43:25,-9.128618,0.55034924,2.833102,-2.1393867,-0.44448447,-1.9488934,9.573976296853772,2.927922009564422,jump
10/07/2020, 20:43:25,-9.300901,0.2009971,2.6536403,-2.1393867,-0.44448447,-1.9488934,9.67413942484785,2.927922009564422,jump
10/07/2020, 20:43:25,-9.300901,0.2009971,2.6536403,-2.371398,-0.46524334,-2.1442711,9.67413942484785,3.230770559620127,jump
10/07/2020, 20:43:25,-9.30808,-0.29192436,2.589034,-2.371398,-0.46524334,-2.1442711,9.665850472971647,3.230770559620127,jump
10/07/2020, 20:43:25,-9.30808,-0.29192436,2.589034,-2.5350268,-0.4591378,-2.2798145,9.665850472971647,3.440163136767711,jump
10/07/2020, 20:43:25,-9.24826,-1.0336994,2.5268207,-2.5350268,-0.4591378,-2.2798145,9.642803621442287,3.440163136767711,jump
10/07/2020, 20:43:25,-9.24826,-1.0336994,2.5268207,-2.5826502,-0.42983112,-2.3530812,9.642803621442287,3.520202838395817,jump
10/07/2020, 20:43:25,-9.219545,-1.8329022,2.5603201,-2.5826502,-0.42983112,-2.3530812,9.742421998098546,3.520202838395817,jump
10/07/2020, 20:43:25,-9.219545,-1.8329022,2.5603201,-2.4874034,-0.3834289,-2.3665135,9.742421998098546,3.454646069061549,jump
10/07/2020, 20:43:25,-9.255438,-2.6751757,2.672783,-2.4874034,-0.3834289,-2.3665135,9.998172987135948,3.454646069061549,jump
10/07/2020, 20:43:26,-10.908878,-3.7328033,5.95095,1.0696933,0.09402556,-0.25887558,12.975024269257183,1.104581904984861,jump
10/07/2020, 20:43:26,-11.837294,-3.5844483,6.0514483,1.0696933,0.09402556,-0.25887558,13.769161823459338,1.104581904984861,jump
10/07/2020, 20:43:26,-11.837294,-3.5844483,6.0514483,0.94758224,-0.091583334,-0.3712178,13.769161823459338,1.0218132233589092,jump
10/07/2020, 20:43:26,-12.586247,-3.3906298,5.9820566,0.94758224,-0.091583334,-0.3712178,14.342070852196347,1.0218132233589092,jump
10/07/2020, 20:43:26,-12.586247,-3.3906298,5.9820566,0.66428447,-0.31871,-0.57148004,14.342070852196347,0.9324373163860995,jump
10/07/2020, 20:43:26,-13.213166,-3.4049866,6.101698,0.66428447,-0.31871,-0.57148004,14.946986767028196,0.9324373163860995,jump
10/07/2020, 20:43:26,-13.213166,-3.4049866,6.101698,0.24788557,-0.5360678,-0.90240115,14.946986767028196,1.078491427342742,jump
10/07/2020, 20:43:26,-13.911871,-3.8141594,6.541977,0.24788557,-0.5360678,-0.90240115,15.839363229671596,1.078491427342742,jump
10/07/2020, 20:43:26,-13.911871,-3.8141594,6.541977,-0.054950003,-0.7631945,-1.39573,15.839363229671596,1.5917121707821014,jump
10/07/2020, 20:43:26,-14.892928,-4.759324,7.257431,-0.054950003,-0.7631945,-1.39573,17.237191734430336,1.5917121707821014,jump
10/07/2020, 20:43:26,-14.892928,-4.759324,7.257431,0.023201112,-0.9292656,-2.0026224,17.237191734430336,2.2078426623274696,jump
10/07/2020, 20:43:26,-16.228123,-6.3960147,8.250452,0.023201112,-0.9292656,-2.0026224,19.295878563572625,2.2078426623274696,jump
10/07/2020, 20:43:26,-16.228123,-6.3960147,8.250452,0.75098336,-1.0171856,-2.7291834,19.295878563572625,3.007837214480006,jump
10/07/2020, 20:43:26,-17.809778,-8.975478,8.676374,0.75098336,-1.0171856,-2.7291834,21.749181174914636,3.007837214480006,jump
10/07/2020, 20:43:26,-17.809778,-8.975478,8.676374,1.7168823,-1.0123012,-3.5424435,21.749181174914636,4.064645713823587,jump
10/07/2020, 20:43:26,-19.58286,-11.327622,8.212168,1.7168823,-1.0123012,-3.5424435,24.06747122964229,4.064645713823587,jump
10/07/2020, 20:43:26,-19.58286,-11.327622,8.212168,2.5020568,-1.0135223,-4.192075,24.06747122964229,4.986081299719311,jump
10/07/2020, 20:43:26,-21.564117,-12.136396,7.9106717,2.5020568,-1.0135223,-4.192075,25.97849120519472,4.986081299719311,jump
10/07/2020, 20:43:26,-21.564117,-12.136396,7.9106717,2.7413945,-1.1038845,-4.514448,25.97849120519472,5.395743419916465,jump
10/07/2020, 20:43:26,-23.940191,-11.207981,7.6570325,2.7413945,-1.1038845,-4.514448,27.5205694907571,5.395743419916465,jump
10/07/2020, 20:43:27,-9.02812,-0.11246266,2.199004,-0.018316668,-0.63742,-1.6460578,9.29275081064239,1.7652609385895592,jump
10/07/2020, 20:43:27,-8.681161,-0.038285162,2.268396,-0.018316668,-0.63742,-1.6460578,8.972716464561364,1.7652609385895592,jump
10/07/2020, 20:43:27,-8.681161,-0.038285162,2.268396,-0.09524667,-0.5153089,-1.8792901,8.972716464561364,1.9509860334726425,jump
10/07/2020, 20:43:27,-8.690732,-0.040677983,2.2301106,-0.09524667,-0.5153089,-1.8792901,8.972394938011675,1.9509860334726425,jump
10/07/2020, 20:43:27,-8.690732,-0.040677983,2.2301106,-0.22590557,-0.45791668,-2.0392556,8.972394938011675,2.1022094301667438,jump
10/07/2020, 20:43:27,-8.908479,-0.076570325,2.1631117,-0.22590557,-0.45791668,-2.0392556,9.167655566674242,2.1022094301667438,jump
10/07/2020, 20:43:27,-8.908479,-0.076570325,2.1631117,-0.4481478,-0.46524334,-2.1174068,9.167655566674242,2.213752372433047,jump
10/07/2020, 20:43:27,-9.171689,-0.11724831,2.1128623,-0.4481478,-0.46524334,-2.1174068,9.4126411913929,2.213752372433047,jump
10/07/2020, 20:43:27,-9.171689,-0.11724831,2.1128623,-0.75098336,-0.5104245,-2.1393867,9.4126411913929,2.32410938272194,jump
10/07/2020, 20:43:27,-9.396614,-0.24885355,2.053042,-0.75098336,-0.5104245,-2.1393867,9.621500160824462,2.32410938272194,jump
10/07/2020, 20:43:27,-9.396614,-0.24885355,2.053042,-1.0965579,-0.5775856,-2.1332812,9.621500160824462,2.4671710603011814,jump
10/07/2020, 20:43:27,-9.4636135,-0.47377887,2.0841484,-1.0965579,-0.5775856,-2.1332812,9.701964835672442,2.4671710603011814,jump
10/07/2020, 20:43:27,-9.4636135,-0.47377887,2.0841484,-1.4225945,-0.6252089,-2.1125224,9.701964835672442,2.622482062740845,jump
10/07/2020, 20:43:27,-9.32483,-0.8279166,2.1415763,-1.4225945,-0.6252089,-2.1125224,9.603345797103703,2.622482062740845,jump
10/07/2020, 20:43:27,-9.32483,-0.8279166,2.1415763,-1.6863545,-0.6459678,-2.074668,9.603345797103703,2.7505113992184653,jump
10/07/2020, 20:43:27,-9.066405,-1.3854443,2.3234308,-1.6863545,-0.6459678,-2.074668,9.46136837003605,2.7505113992184653,jump
10/07/2020, 20:43:27,-9.066405,-1.3854443,2.3234308,-1.8634156,-0.6520734,-2.0148335,9.46136837003605,2.8208281095941485,jump
10/07/2020, 20:43:27,-8.779266,-2.0841484,2.536392,-1.8634156,-0.6520734,-2.0148335,9.37296519784957,2.8208281095941485,jump
10/07/2020, 20:43:27,-8.779266,-2.0841484,2.536392,-1.9244711,-0.6227667,-1.9061545,9.37296519784957,2.779361892024935,jump
10/07/2020, 20:43:27,-8.5423765,-2.8642087,2.821138,-1.9244711,-0.6227667,-1.9061545,9.441117896018,2.779361892024935,jump
10/07/2020, 20:43:28,-0.38763726,1.7108682,-3.2757742,1.3871822,-3.5204635,-4.100491,3.7159157216950893,5.5796025307203,jump
10/07/2020, 20:43:28,-0.38763726,1.7108682,-3.2757742,1.10999,-3.3910258,-3.8660378,3.7159157216950893,5.260929792070915,jump
10/07/2020, 20:43:28,0.13399807,2.225325,-3.426522,1.10999,-3.3910258,-3.8660378,4.087918840421801,5.260929792070915,jump
10/07/2020, 20:43:28,0.13399807,2.225325,-3.426522,0.7754056,-3.1663413,-3.5741923,4.087918840421801,4.837542927435799,jump
10/07/2020, 20:43:28,0.5479564,2.507678,-3.3954153,0.7754056,-3.1663413,-3.5741923,4.256471594721324,4.837542927435799,jump
10/07/2020, 20:43:28,0.5479564,2.507678,-3.3954153,0.4921078,-2.9245613,-3.3788147,4.256471594721324,4.49573324716771,jump
10/07/2020, 20:43:28,0.87338024,2.7086751,-3.2925239,0.4921078,-2.9245613,-3.3788147,4.352060141144686,4.49573324716771,jump
10/07/2020, 20:43:28,0.87338024,2.7086751,-3.2925239,0.37366003,-2.735289,-3.2139645,4.352060141144686,4.2368615536220515,jump
10/07/2020, 20:43:28,1.1724831,2.8283165,-3.0939198,0.37366003,-2.735289,-3.2139645,4.352749702740871,4.2368615536220515,jump
10/07/2020, 20:43:28,1.1724831,2.8283165,-3.0939198,0.32970002,-2.5826502,-3.0002701,4.352749702740871,3.972455779964108,jump
10/07/2020, 20:43:28,1.5433706,2.9479575,-2.7732813,0.32970002,-2.5826502,-3.0002701,4.331689705532679,3.972455779964108,jump
10/07/2020, 20:43:28,1.5433706,2.9479575,-2.7732813,0.23445335,-2.427569,-2.7181935,4.331689705532679,3.651935825093805,jump
10/07/2020, 20:43:28,2.0291135,3.1106694,-2.4119651,0.23445335,-2.427569,-2.7181935,4.428446846944105,3.651935825093805,jump
10/07/2020, 20:43:28,2.0291135,3.1106694,-2.4119651,0.07204556,-2.29691,-2.4092524,4.428446846944105,3.329486969573993,jump
10/07/2020, 20:43:28,2.6512475,3.3379877,-2.0865414,0.07204556,-2.29691,-2.4092524,4.746043616989498,3.329486969573993,jump
10/07/2020, 20:43:28,2.6512475,3.3379877,-2.0865414,-0.18683001,-2.1723568,-2.0783312,4.746043616989498,3.012225161201996,jump
10/07/2020, 20:43:28,3.2685957,3.5533416,-1.875973,-0.18683001,-2.1723568,-2.0783312,5.179693927702218,3.012225161201996,jump
10/07/2020, 20:43:28,3.2685957,3.5533416,-1.875973,-0.55316335,-1.998959,-1.7168823,5.179693927702218,2.6924916997730235,jump
10/07/2020, 20:43:28,3.8931224,3.737589,-1.6342978,-0.55316335,-1.998959,-1.7168823,5.638874213905671,2.6924916997730235,jump
10/07/2020, 20:43:28,3.8931224,3.737589,-1.6342978,-0.9414767,-1.7681689,-1.3200212,5.638874213905671,2.39901137480906,jump
10/07/2020, 20:43:29,-8.997013,-3.8763726,2.1367905,-0.69481224,-0.39930335,-2.1601458,10.02688299648242,2.3040045381554846,jump
10/07/2020, 20:43:29,-8.695518,-3.8763726,2.115255,-0.69481224,-0.39930335,-2.1601458,9.75256857683785,2.3040045381554846,jump
10/07/2020, 20:43:29,-8.695518,-3.8763726,2.115255,-0.54461557,-0.36755446,-1.9965167,9.75256857683785,2.101851884703536,jump
10/07/2020, 20:43:29,-8.391629,-3.8739798,2.1535404,-0.54461557,-0.36755446,-1.9965167,9.490252716964825,2.101851884703536,jump
10/07/2020, 20:43:29,-8.391629,-3.8739798,2.1535404,-0.39075556,-0.32970002,-1.8328879,9.490252716964825,1.9028583829891104,jump
10/07/2020, 20:43:29,-8.087741,-3.8548372,2.1894326,-0.39075556,-0.32970002,-1.8328879,9.223065526995336,1.9028583829891104,jump
10/07/2020, 20:43:29,-8.087741,-3.8548372,2.1894326,-0.21613668,-0.28085557,-1.6655957,9.223065526995336,1.7028810248146338,jump
10/07/2020, 20:43:29,-7.838887,-3.845266,2.3042881,-0.21613668,-0.28085557,-1.6655957,9.030169879124392,1.7028810248146338,jump
10/07/2020, 20:43:29,-7.838887,-3.845266,2.3042881,-0.02075889,-0.21247335,-1.5007457,9.030169879124392,1.5158540079224945,jump
10/07/2020, 20:43:29,-7.7144604,-3.7591243,2.416751,-0.02075889,-0.21247335,-1.5007457,8.915413570967248,1.5158540079224945,jump
10/07/2020, 20:43:29,-7.7144604,-3.7591243,2.416751,0.16607112,-0.12577444,-1.3456645,8.915413570967248,1.3616944503777249,jump
10/07/2020, 20:43:29,-7.7240314,-3.5796626,2.4335005,0.16607112,-0.12577444,-1.3456645,8.854183795829934,1.3616944503777249,jump
10/07/2020, 20:43:29,-7.7240314,-3.5796626,2.4335005,0.34313223,-0.04396,-1.1966889,8.854183795829934,1.2456871629417952,jump
10/07/2020, 20:43:29,-7.8604226,-3.359523,2.349752,0.34313223,-0.04396,-1.1966889,8.86532419189176,1.2456871629417952,jump
10/07/2020, 20:43:29,-7.8604226,-3.359523,2.349752,0.49699223,-0.01099,-1.05504,8.86532419189176,1.1662896135800211,jump
10/07/2020, 20:43:29,-8.030313,-3.101098,2.1774685,0.49699223,-0.01099,-1.05504,8.879419906561722,1.1662896135800211,jump
10/07/2020, 20:43:29,-8.030313,-3.101098,2.1774685,0.60445005,-0.026864445,-0.92316,8.879419906561722,1.1037689857331021,jump
10/07/2020, 20:43:29,-8.068598,-2.861816,1.9884356,0.60445005,-0.026864445,-0.92316,8.788978154896952,1.1037689857331021,jump
10/07/2020, 20:43:29,-8.068598,-2.861816,1.9884356,0.6618422,-0.068382226,-0.7888378,8.788978154896952,1.0319768999080172,jump
10/07/2020, 20:43:29,-8.070991,-2.6416762,1.8520447,0.6618422,-0.068382226,-0.7888378,8.691916435131011,1.0319768999080172,jump
10/07/2020, 20:43:30,-5.8935223,-3.7710886,2.5411777,-0.0061055557,-4.0809536,-6.644066,7.443943729296126,7.797296368504499,jump
10/07/2020, 20:43:30,-4.098905,-1.9669002,1.9046868,-0.0061055557,-4.0809536,-6.644066,4.9292546353080615,7.797296368504499,jump
10/07/2020, 20:43:30,-4.098905,-1.9669002,1.9046868,0.123332225,-3.757359,-6.669709,4.9292546353080615,7.6562378874720425,jump
10/07/2020, 20:43:30,-2.7565317,-0.63888365,1.4045869,0.123332225,-3.757359,-6.669709,3.1590352653477436,7.6562378874720425,jump
10/07/2020, 20:43:30,-2.7565317,-0.63888365,1.4045869,0.26986557,-3.4679556,-6.6086535,3.1590352653477436,7.468188875448485,jump
10/07/2020, 20:43:30,-1.9453648,0.124426775,0.87338024,0.26986557,-3.4679556,-6.6086535,2.136052294649742,7.468188875448485,jump
10/07/2020, 20:43:30,-1.9453648,0.124426775,0.87338024,0.42983112,-3.2127435,-6.4230447,2.136052294649742,7.194579814046789,jump
10/07/2020, 20:43:30,-1.6582261,0.63888365,0.70348984,0.42983112,-3.2127435,-6.4230447,1.911225831711517,7.194579814046789,jump
10/07/2020, 20:43:30,-1.6582261,0.63888365,0.70348984,0.56171113,-2.9709635,-6.1311994,1.911225831711517,6.83620866967219,jump
10/07/2020, 20:43:30,-1.7706888,1.1102697,0.567099,0.56171113,-2.9709635,-6.1311994,2.165557366191513,6.83620866967219,jump
10/07/2020, 20:43:30,-1.7706888,1.1102697,0.567099,0.58247,-2.7548268,-5.8039412,2.165557366191513,6.450897297501915,jump
10/07/2020, 20:43:30,-2.0721843,1.7826529,0.37806597,0.58247,-2.7548268,-5.8039412,2.7594805589483458,6.450897297501915,jump
10/07/2020, 20:43:30,-2.0721843,1.7826529,0.37806597,0.50798225,-2.6424847,-5.507211,2.7594805589483458,6.1294491161958025,jump
10/07/2020, 20:43:30,-2.2971098,2.644069,0.17706887,0.50798225,-2.6424847,-5.507211,3.5070169175361356,6.1294491161958025,jump
10/07/2020, 20:43:30,-2.2971098,2.644069,0.17706887,0.31993112,-2.59364,-5.2764215,3.5070169175361356,5.888119324008344,jump
10/07/2020, 20:43:30,-2.239682,3.6083765,-0.15553348,0.31993112,-2.59364,-5.2764215,4.249793751249788,5.888119324008344,jump
10/07/2020, 20:43:30,-2.239682,3.6083765,-0.15553348,0.08425667,-2.5411322,-5.0822644,4.249793751249788,5.682769023371466,jump
10/07/2020, 20:43:30,-1.7922242,4.699504,-0.37567315,0.08425667,-2.5411322,-5.0822644,5.043662823406859,5.682769023371466,jump
10/07/2020, 20:43:30,-1.7922242,4.699504,-0.37567315,-0.17584,-2.4361167,-4.889329,5.043662823406859,5.465448006062187,jump
10/07/2020, 20:43:30,-0.9882358,5.6781683,-0.485743,-0.17584,-2.4361167,-4.889329,5.783956379155056,5.465448006062187,jump
10/07/2020, 20:43:31,-13.715659,-2.4622145,2.184647,0.27108666,-1.0843467,-0.28940335,14.105122780793204,1.1545778185713937,jump
10/07/2020, 20:43:31,-12.7082815,-2.1104696,2.1511476,0.27108666,-1.0843467,-0.28940335,13.06070200934954,1.1545778185713937,jump
10/07/2020, 20:43:31,-12.7082815,-2.1104696,2.1511476,0.13554333,-1.2089001,-0.53118336,13.06070200934954,1.3273911240247356,jump
10/07/2020, 20:43:31,-11.586047,-1.7156538,2.2971098,0.13554333,-1.2089001,-0.53118336,11.935521379270293,1.3273911240247356,jump
10/07/2020, 20:43:31,-11.586047,-1.7156538,2.2971098,0.047623336,-1.2089001,-0.8071545,11.935521379270293,1.4543747002328058,jump
10/07/2020, 20:43:31,-10.487741,-1.4141582,2.4741786,0.047623336,-1.2089001,-0.8071545,10.868032211233567,1.4543747002328058,jump
10/07/2020, 20:43:31,-10.487741,-1.4141582,2.4741786,0.009768889,-1.1002212,-1.1026634,10.868032211233567,1.5577061964615329,jump
10/07/2020, 20:43:31,-9.640682,-1.1365907,2.6273193,0.009768889,-1.1002212,-1.1026634,10.056709155180384,1.5577061964615329,jump
10/07/2020, 20:43:31,-9.640682,-1.1365907,2.6273193,0.023201112,-0.9549089,-1.4091623,10.056709155180384,1.702388807738435,jump
10/07/2020, 20:43:31,-9.116654,-0.8925229,2.6488547,0.023201112,-0.9549089,-1.4091623,9.535534376596152,1.702388807738435,jump
10/07/2020, 20:43:31,-9.116654,-0.8925229,2.6488547,0.03174889,-0.81326,-1.6985656,9.535534376596152,1.8834874450384418,jump
10/07/2020, 20:43:31,-8.970692,-0.715454,2.5674987,0.03174889,-0.81326,-1.6985656,9.35827084063932,1.8834874450384418,jump
10/07/2020, 20:43:31,-8.970692,-0.715454,2.5674987,-0.0036633336,-0.70946556,-1.944009,9.35827084063932,2.069426391364031,jump
10/07/2020, 20:43:31,-9.188439,-0.6149554,2.3449662,-0.0036633336,-0.70946556,-1.944009,9.50286559780131,2.069426391364031,jump
10/07/2020, 20:43:31,-9.188439,-0.6149554,2.3449662,-0.10013112,-0.6789378,-2.1430502,9.50286559780131,2.2502548522565764,jump
10/07/2020, 20:43:31,-9.678967,-0.56470615,2.0889342,-0.10013112,-0.6789378,-2.1430502,9.917910589076122,2.2502548522565764,jump
10/07/2020, 20:43:31,-9.678967,-0.56470615,2.0889342,-0.25643334,-0.7436567,-2.2908046,9.917910589076122,2.422100155763104,jump
10/07/2020, 20:43:31,-10.152746,-0.6723832,1.8807586,-0.25643334,-0.7436567,-2.2908046,10.34734785536476,2.422100155763104,jump
10/07/2020, 20:43:31,-10.152746,-0.6723832,1.8807586,-0.44204223,-0.85966223,-2.3860512,10.34734785536476,2.574424346592338,jump
10/07/2020, 20:43:31,-10.473385,-0.87338024,1.7252251,-0.44204223,-0.85966223,-2.3860512,10.650398350828516,2.574424346592338,jump
10/07/2020, 20:43:32,-16.962719,-9.915857,7.853244,0.21613668,-6.5427136,-5.120119,21.159666810957702,8.310802392805021,jump
10/07/2020, 20:43:32,-13.986049,-7.877172,7.5828547,0.21613668,-6.5427136,-5.120119,17.75272043749538,8.310802392805021,jump
10/07/2020, 20:43:32,-13.986049,-7.877172,7.5828547,-0.04029667,-6.646508,-5.1933856,17.75272043749538,8.434983657334781,jump
10/07/2020, 20:43:32,-10.729417,-6.472585,7.893922,-0.04029667,-6.646508,-5.1933856,14.809751762823858,8.434983657334781,jump
10/07/2020, 20:43:32,-10.729417,-6.472585,7.893922,-0.26620224,-6.150737,-5.177511,14.809751762823858,8.044193515056554,jump
10/07/2020, 20:43:32,-7.946564,-5.517849,7.1449685,-0.26620224,-6.150737,-5.177511,12.026849745012381,8.044193515056554,jump
10/07/2020, 20:43:32,-7.946564,-5.517849,7.1449685,-0.4041878,-5.723348,-5.120119,12.026849745012381,7.689974074191247,jump
10/07/2020, 20:43:32,-6.175875,-4.9435716,5.8863435,-0.4041878,-5.723348,-5.120119,9.860495612410604,7.689974074191247,jump
10/07/2020, 20:43:32,-6.175875,-4.9435716,5.8863435,-0.39930335,-5.3875422,-5.0468526,9.860495612410604,7.3929544625916055,jump
10/07/2020, 20:43:32,-5.426922,-4.7306104,4.8526444,-0.39930335,-5.3875422,-5.0468526,8.682068490863037,7.3929544625916055,jump
10/07/2020, 20:43:32,-5.426922,-4.7306104,4.8526444,-0.24300112,-5.0138826,-5.0151033,8.682068490863037,7.095726189314177,jump
10/07/2020, 20:43:32,-5.4556355,-4.601398,3.830909,-0.24300112,-5.0138826,-5.0151033,8.100165836173163,7.095726189314177,jump
10/07/2020, 20:43:32,-5.4556355,-4.601398,3.830909,0.08669889,-4.737911,-5.041968,8.100165836173163,6.9193033939485735,jump
10/07/2020, 20:43:32,-5.7690954,-4.1347976,2.3808584,0.08669889,-4.737911,-5.041968,7.486487812556176,6.9193033939485735,jump
10/07/2020, 20:43:32,-5.7690954,-4.1347976,2.3808584,0.5788067,-4.6768556,-5.0468526,7.486487812556176,6.904977640314132,jump
10/07/2020, 20:43:32,-5.962914,-3.1657043,0.7322037,0.5788067,-4.6768556,-5.0468526,6.790739940793603,6.904977640314132,jump
10/07/2020, 20:43:32,-5.962914,-3.1657043,0.7322037,1.0367234,-4.7916403,-4.889329,6.790739940793603,6.923882551850095,jump
10/07/2020, 20:43:32,-5.680561,-1.8185452,-0.4953143,1.0367234,-4.7916403,-4.889329,5.9850828734596275,6.923882551850095,jump
10/07/2020, 20:43:32,-5.680561,-1.8185452,-0.4953143,1.2577446,-4.8832235,-4.592599,5.9850828734596275,6.820539438285516,jump
10/07/2020, 20:43:32,-4.974678,-0.27996024,-1.119841,1.2577446,-4.8832235,-4.592599,5.106842777631588,6.820539438285516,jump
10/07/2020, 20:43:33,-13.323236,-2.160719,2.589034,1.6887968,-0.87065226,0.34435335,13.74337780992594,1.9309710187812898,jump
10/07/2020, 20:43:33,-12.873385,-1.294517,2.07697,1.6887968,-0.87065226,0.34435335,13.10395480680947,1.9309710187812898,jump
10/07/2020, 20:43:33,-12.873385,-1.294517,2.07697,1.1454023,-1.1527289,0.12211112,13.10395480680947,1.6296139218873888,jump
10/07/2020, 20:43:33,-12.196217,-0.58624154,1.8089739,1.1454023,-1.1527289,0.12211112,12.34357179644663,1.6296139218873888,jump
10/07/2020, 20:43:33,-12.196217,-0.58624154,1.8089739,0.6252089,-1.3334534,-0.16729222,12.34357179644663,1.4822182325840754,jump
10/07/2020, 20:43:33,-11.46162,-0.09810573,1.7778672,0.6252089,-1.3334534,-0.16729222,11.599102427141906,1.4822182325840754,jump
10/07/2020, 20:43:33,-11.46162,-0.09810573,1.7778672,0.21491556,-1.4128256,-0.4921078,11.599102427141906,1.511434723900689,jump
10/07/2020, 20:43:33,-10.779666,0.20578274,1.9262222,0.21491556,-1.4128256,-0.4921078,10.952345705297034,1.511434723900689,jump
10/07/2020, 20:43:33,-10.779666,0.20578274,1.9262222,-0.051286668,-1.4287001,-0.8120389,10.952345705297034,1.6441476334273912,jump
10/07/2020, 20:43:33,-10.258031,0.42831525,2.1104696,-0.051286668,-1.4287001,-0.8120389,10.481637924068567,1.6441476334273912,jump
10/07/2020, 20:43:33,-10.258031,0.42831525,2.1104696,-0.22468445,-1.3920667,-1.10999,10.481637924068567,1.7945502632821295,jump
10/07/2020, 20:43:33,-9.915857,0.64606214,2.268396,-0.22468445,-1.3920667,-1.10999,10.19250913849531,1.7945502632821295,jump
10/07/2020, 20:43:33,-9.915857,0.64606214,2.268396,-0.3614489,-1.3468856,-1.3871822,10.19250913849531,1.9669826103344057,jump
10/07/2020, 20:43:33,-9.734002,0.83988076,2.3282163,-0.3614489,-1.3468856,-1.3871822,10.043743726686241,1.9669826103344057,jump
10/07/2020, 20:43:33,-9.734002,0.83988076,2.3282163,-0.5287411,-1.3224634,-1.6546056,10.043743726686241,2.1831620143332846,jump
10/07/2020, 20:43:33,-9.693324,0.9284152,2.3114667,-0.5287411,-1.3224634,-1.6546056,10.008264830495717,2.1831620143332846,jump
10/07/2020, 20:43:33,-9.693324,0.9284152,2.3114667,-0.74732006,-1.3151367,-1.8927222,10.008264830495717,2.4229051243503097,jump
10/07/2020, 20:43:33,-9.698111,0.9403793,2.1678972,-0.74732006,-1.3151367,-1.8927222,9.98185556270214,2.4229051243503097,jump
10/07/2020, 20:43:33,-9.698111,0.9403793,2.1678972,-1.0232911,-1.3310112,-2.0893211,9.98185556270214,2.6802944353342184,jump
10/07/2020, 20:43:33,-9.755538,0.7968099,2.091327,-1.0232911,-1.3310112,-2.0893211,10.008949788391153,2.6802944353342184,jump
10/07/2020, 20:43:34,-7.6307116,-2.5746772,1.3734802,0.31138334,0.54461557,1.7596211,8.16964929100444,1.8681092757234181,jump
10/07/2020, 20:43:34,-7.891529,-2.4909284,1.5936198,0.31138334,0.54461557,1.7596211,8.427370869058734,1.8681092757234181,jump
10/07/2020, 20:43:34,-7.891529,-2.4909284,1.5936198,0.4921078,0.55316335,1.9073756,8.427370869058734,2.046030636956886,jump
10/07/2020, 20:43:34,-8.118847,-2.605784,2.2061825,0.4921078,0.55316335,1.9073756,8.807555049506485,2.046030636956886,jump
10/07/2020, 20:43:34,-8.118847,-2.605784,2.2061825,0.67283225,0.60445005,2.00018,8.807555049506485,2.195172693272612,jump
10/07/2020, 20:43:34,-8.489735,-3.0843484,3.0580273,0.67283225,0.60445005,2.00018,9.53626396921209,2.195172693272612,jump
10/07/2020, 20:43:34,-8.489735,-3.0843484,3.0580273,0.8767578,0.6899278,1.9891901,9.53626396921209,2.280697676831224,jump
10/07/2020, 20:43:34,-9.056833,-3.9601214,3.9361932,0.8767578,0.6899278,1.9891901,10.639661996760637,2.280697676831224,jump
10/07/2020, 20:43:34,-9.056833,-3.9601214,3.9361932,1.1771512,0.7619734,1.8902801,10.639661996760637,2.3536030568099133,jump
10/07/2020, 20:43:34,-9.80818,-5.1254263,4.5391846,1.1771512,0.7619734,1.8902801,11.961378821741912,2.3536030568099133,jump
10/07/2020, 20:43:34,-9.80818,-5.1254263,4.5391846,1.6680379,0.7815111,1.7754956,11.961378821741912,2.558416472672994,jump
10/07/2020, 20:43:34,-10.60499,-6.2811594,4.7976093,1.6680379,0.7815111,1.7754956,13.226330999656698,2.558416472672994,jump
10/07/2020, 20:43:34,-10.60499,-6.2811594,4.7976093,2.3359857,0.7424356,1.7071134,13.226330999656698,2.987017860437036,jump
10/07/2020, 20:43:34,-11.272588,-7.082755,4.843073,2.3359857,0.7424356,1.7071134,14.166580739529316,2.987017860437036,jump
10/07/2020, 20:43:34,-11.272588,-7.082755,4.843073,3.0564413,0.67039,1.6875756,14.166580739529316,3.5551606943550675,jump
10/07/2020, 20:43:34,-11.708081,-7.245467,4.8191447,3.0564413,0.67039,1.6875756,14.58767003604895,3.5551606943550675,jump
10/07/2020, 20:43:34,-11.708081,-7.245467,4.8191447,3.6706603,0.6239878,1.6387311,14.58767003604895,4.067990558253852,jump
10/07/2020, 20:43:34,-11.844472,-6.853044,4.6755753,3.6706603,0.6239878,1.6387311,14.460868986052846,4.067990558253852,jump
10/07/2020, 20:43:34,-11.844472,-6.853044,4.6755753,4.083396,0.62765115,1.4848711,14.460868986052846,4.390092351085863,jump
10/07/2020, 20:43:34,-11.870793,-6.094519,4.4482574,4.083396,0.62765115,1.4848711,14.065770239076814,4.390092351085863,jump
10/07/2020, 20:43:35,-29.709286,-12.01197,9.954143,7.942107,4.073627,4.6304536,33.55613246673162,10.055476323811618,jump
10/07/2020, 20:43:35,-26.2373,-7.0779696,4.304688,7.942107,4.073627,4.6304536,27.514068194907274,10.055476323811618,jump
10/07/2020, 20:43:35,-26.2373,-7.0779696,4.304688,4.7830925,3.6193736,4.9039826,27.514068194907274,7.747701887981855,jump
10/07/2020, 20:43:35,-24.780071,-3.089134,-1.442872,4.7830925,3.6193736,4.9039826,25.013527541255694,7.747701887981855,jump
10/07/2020, 20:43:35,-24.780071,-3.089134,-1.442872,1.6485001,1.9098178,5.051737,25.013527541255694,5.646680585270526,jump
10/07/2020, 20:43:35,-23.093132,0.69152576,-4.6061835,1.6485001,1.9098178,5.051737,23.558180766431978,5.646680585270526,jump
10/07/2020, 20:43:35,-23.093132,0.69152576,-4.6061835,-0.5006556,-0.02198,4.3850102,23.558180766431978,4.413553440054297,jump
10/07/2020, 20:43:35,-20.451456,3.5581272,-3.6490545,-0.5006556,-0.02198,4.3850102,21.07695241834556,4.413553440054297,jump
10/07/2020, 20:43:35,-20.451456,3.5581272,-3.6490545,-1.6314045,-1.2052367,2.7865756,21.07695241834556,3.4466040491864156,jump
10/07/2020, 20:43:35,-16.601404,5.4556355,-1.4907285,-1.6314045,-1.2052367,2.7865756,17.538325226879046,3.4466040491864156,jump
10/07/2020, 20:43:35,-16.601404,5.4556355,-1.4907285,-2.0062857,-1.5471479,0.86943114,17.538325226879046,2.6785741010706974,jump
10/07/2020, 20:43:35,-12.756138,6.5204415,2.5507488,-2.0062857,-1.5471479,0.86943114,14.55134118001638,2.6785741010706974,jump
10/07/2020, 20:43:35,-12.756138,6.5204415,2.5507488,-1.74741,-1.2259957,-0.46646446,14.55134118001638,2.1849705637540016,jump
10/07/2020, 20:43:35,-9.02812,7.6737823,5.623133,-1.74741,-1.2259957,-0.46646446,13.115392247103905,2.1849705637540016,jump
10/07/2020, 20:43:35,-9.02812,7.6737823,5.623133,-1.2675134,-0.6105556,-0.9402556,13.115392247103905,1.6921728317406446,jump
10/07/2020, 20:43:35,-6.0107703,9.097511,5.9437714,-1.2675134,-0.6105556,-0.9402556,12.418634770252105,1.6921728317406446,jump
10/07/2020, 20:43:35,-6.0107703,9.097511,5.9437714,-1.2369856,-0.106236674,-1.1661612,12.418634770252105,1.7033353790929238,jump
10/07/2020, 20:43:35,-4.024728,9.915857,4.1443686,-1.2369856,-0.106236674,-1.1661612,11.47599458973199,1.7033353790929238,jump
10/07/2020, 20:43:35,-4.024728,9.915857,4.1443686,-2.1760201,0.07693,-1.4946401,11.47599458973199,2.641009459002235,jump
10/07/2020, 20:43:35,-3.2446675,10.085748,1.9453648,-2.1760201,0.07693,-1.4946401,10.771936630018084,2.641009459002235,jump
10/07/2020, 20:43:36,-6.407979,-3.3164523,1.8329022,0.12577444,0.54461557,1.0684723,7.444500056165142,1.2058434018177304,jump
10/07/2020, 20:43:36,-6.407979,-3.3164523,1.8329022,0.27475002,0.63742,1.2052367,7.444500056165142,1.3908225153504583,jump
10/07/2020, 20:43:36,-6.355337,-2.928815,1.5553347,0.27475002,0.63742,1.2052367,7.168495856033626,1.3908225153504583,jump
10/07/2020, 20:43:36,-6.355337,-2.928815,1.5553347,0.3944189,0.6777167,1.3737501,7.168495856033626,1.5817886914577475,jump
10/07/2020, 20:43:36,-6.2380886,-2.2588246,1.2035898,0.3944189,0.6777167,1.3737501,6.742749171691524,1.5817886914577475,jump
10/07/2020, 20:43:36,-6.2380886,-2.2588246,1.2035898,0.44326335,0.69114894,1.57157,6.742749171691524,1.7731332828530173,jump
10/07/2020, 20:43:36,-5.9437714,-1.3639089,0.92602235,0.44326335,0.69114894,1.57157,6.168158789566229,1.7731332828530173,jump
10/07/2020, 20:43:36,-5.9437714,-1.3639089,0.92602235,0.4359367,0.7070234,1.8060234,6.168158789566229,1.987874048936804,jump
10/07/2020, 20:43:36,-5.6063833,-0.35413775,0.88295156,0.4359367,0.7070234,1.8060234,5.686523627837081,1.987874048936804,jump
10/07/2020, 20:43:36,-5.6063833,-0.35413775,0.88295156,0.4151778,0.77906895,2.0795524,5.686523627837081,2.259172250526388,jump
10/07/2020, 20:43:36,-5.359923,0.45702913,1.227518,0.4151778,0.77906895,2.0795524,5.517648894252603,2.259172250526388,jump
10/07/2020, 20:43:36,-5.359923,0.45702913,1.227518,0.37732336,0.86576784,2.383609,5.517648894252603,2.5638874777134633,jump
10/07/2020, 20:43:36,-5.453243,0.7920243,2.009971,0.37732336,0.86576784,2.383609,5.865589684882722,2.5638874777134633,jump
10/07/2020, 20:43:36,-5.453243,0.7920243,2.009971,0.38709223,0.9512456,2.6644645,5.865589684882722,2.8555348940592444,jump
10/07/2020, 20:43:36,-6.1184473,0.22731815,3.101098,0.38709223,0.9512456,2.6644645,6.8632266561090916,2.8555348940592444,jump
10/07/2020, 20:43:36,-6.1184473,0.22731815,3.101098,0.4798967,0.9964267,2.8427467,6.8632266561090916,3.0503075264730275,jump
10/07/2020, 20:43:36,-7.2861447,-1.3328022,4.0965123,0.4798967,0.9964267,2.8427467,8.464377111566556,3.0503075264730275,jump
10/07/2020, 20:43:36,-7.2861447,-1.3328022,4.0965123,0.59956557,0.99886894,2.8574002,8.464377111566556,3.085766325190644,jump
10/07/2020, 20:43:36,-8.671589,-3.5509489,4.6899323,0.59956557,0.99886894,2.8574002,10.478604736226647,3.085766325190644,jump
10/07/2020, 20:43:36,-8.671589,-3.5509489,4.6899323,0.83890337,0.9292656,2.7499423,10.478604736226647,3.021502294825399,jump
10/07/2020, 20:43:37,-29.388647,-1.7324036,7.8963146,6.606211,6.4938693,6.8724136,30.480249082198018,11.53440219286743,jump
10/07/2020, 20:43:37,-29.388647,-1.7324036,7.8963146,7.2350836,5.4192915,6.2740693,30.480249082198018,11.003594886605528,jump
10/07/2020, 20:43:37,-34.466217,-7.771888,11.478371,7.2350836,5.4192915,6.2740693,37.14936540412351,11.003594886605528,jump
10/07/2020, 20:43:37,-34.466217,-7.771888,11.478371,8.540451,4.078511,6.03351,37.14936540412351,11.223938857861368,jump
10/07/2020, 20:43:37,-34.64807,-12.770494,13.395021,8.540451,4.078511,6.03351,39.281051057379145,11.223938857861368,jump
10/07/2020, 20:43:37,-34.64807,-12.770494,13.395021,9.2596855,3.2652512,5.587805,39.281051057379145,11.297221048420859,jump
10/07/2020, 20:43:37,-31.262228,-12.210574,12.559926,9.2596855,3.2652512,5.587805,35.83541214091529,11.297221048420859,jump
10/07/2020, 20:43:37,-31.262228,-12.210574,12.559926,8.170455,3.427659,4.8380423,35.83541214091529,10.095139123521506,jump
10/07/2020, 20:43:37,-26.763721,-7.812566,9.24826,8.170455,3.427659,4.8380423,29.37453447712167,10.095139123521506,jump
10/07/2020, 20:43:37,-26.763721,-7.812566,9.24826,5.348467,3.69264,4.196959,29.37453447712167,7.736675872505384,jump
10/07/2020, 20:43:37,-23.526232,-3.5964124,4.505685,5.348467,3.69264,4.196959,24.22228229096691,7.736675872505384,jump
10/07/2020, 20:43:37,-23.526232,-3.5964124,4.505685,1.8048023,2.7975657,3.8806913,24.22228229096691,5.113066600629332,jump
10/07/2020, 20:43:37,-21.920649,-0.44985065,0.086141616,1.8048023,2.7975657,3.8806913,21.925433175316417,5.113066600629332,jump
10/07/2020, 20:43:37,-21.920649,-0.44985065,0.086141616,-1.2125634,1.2089001,3.6547856,21.925433175316417,4.035989029875887,jump
10/07/2020, 20:43:37,-19.762321,1.9214365,-2.4526432,-1.2125634,1.2089001,3.6547856,20.006417141235552,4.035989029875887,jump
10/07/2020, 20:43:37,-19.762321,1.9214365,-2.4526432,-2.7169724,-0.22590557,2.8806012,20.006417141235552,3.9662116899026176,jump
10/07/2020, 20:43:37,-17.240288,3.117848,-1.3519448,-2.7169724,-0.22590557,2.8806012,17.572030422406204,3.9662116899026176,jump
10/07/2020, 20:43:37,-17.240288,3.117848,-1.3519448,-2.8403046,-1.1966889,1.5117356,17.572030422406204,3.432890763581019,jump
10/07/2020, 20:43:37,-14.309079,3.2542388,0.4019942,-2.8403046,-1.1966889,1.5117356,14.679966501622744,3.432890763581019,jump
10/07/2020, 20:43:37,-14.309079,3.2542388,0.4019942,-2.196779,-1.4921979,0.29306668,14.679966501622744,2.67177480274234,jump
10/07/2020, 20:43:38,-8.973084,-1.6582261,2.9312077,-0.5226356,0.15386,0.22102112,9.584254628110466,0.5879380771981816,jump
10/07/2020, 20:43:38,-8.973084,-1.6582261,2.9312077,-0.6056711,0.13920668,0.19537778,9.584254628110466,0.6514510477309534,jump
10/07/2020, 20:43:38,-8.932407,-1.7754744,2.993421,-0.6056711,0.13920668,0.19537778,9.586489492206452,0.6514510477309534,jump
10/07/2020, 20:43:38,-8.932407,-1.7754744,2.993421,-0.69603336,0.12455334,0.19049335,9.586489492206452,0.7323002695389261,jump
10/07/2020, 20:43:38,-8.9013,-1.969293,3.0460632,-0.69603336,0.12455334,0.19049335,9.611959487484643,0.7323002695389261,jump
10/07/2020, 20:43:38,-8.9013,-1.969293,3.0460632,-0.78029,0.12577444,0.20026223,9.611959487484643,0.8153383768158899,jump
10/07/2020, 20:43:38,-8.822337,-2.1176481,3.0604203,-0.78029,0.12577444,0.20026223,9.575188699781476,0.8153383768158899,jump
10/07/2020, 20:43:38,-8.822337,-2.1176481,3.0604203,-0.83768225,0.12699556,0.22712667,9.575188699781476,0.8771692800633669,jump
10/07/2020, 20:43:38,-8.786445,-2.2971098,3.0652058,-0.83768225,0.12699556,0.22712667,9.585082687898755,0.8771692800633669,jump
10/07/2020, 20:43:38,-8.786445,-2.2971098,3.0652058,-0.8718734,0.12699556,0.2515489,9.585082687898755,0.9162793809358267,jump
10/07/2020, 20:43:38,-8.73141,-2.4909284,3.0580273,-0.8718734,0.12699556,0.2515489,9.580906855375684,0.9162793809358267,jump
10/07/2020, 20:43:38,-8.73141,-2.4909284,3.0580273,-0.86576784,0.123332225,0.2845189,9.580906855375684,0.9196280702353228,jump
10/07/2020, 20:43:38,-8.685946,-2.644069,3.0604203,-0.86576784,0.123332225,0.2845189,9.581385019343642,0.9196280702353228,jump
10/07/2020, 20:43:38,-8.685946,-2.644069,3.0604203,-0.8315767,0.11966889,0.32359445,9.581385019343642,0.9003076302159333,jump
10/07/2020, 20:43:38,-8.662018,-2.7732813,3.07717,-0.8315767,0.11966889,0.32359445,9.601594486577099,0.9003076302159333,jump
10/07/2020, 20:43:38,-8.662018,-2.7732813,3.07717,-0.77296335,0.12211112,0.36633334,9.601594486577099,0.864050676208199,jump
10/07/2020, 20:43:38,-8.676374,-2.8666015,3.1130621,-0.77296335,0.12211112,0.36633334,9.65339490662575,0.864050676208199,jump
10/07/2020, 20:43:38,-8.676374,-2.8666015,3.1130621,-0.7009178,0.11966889,0.41151446,9.65339490662575,0.8215537295884685,jump
10/07/2020, 20:43:38,-8.664411,-2.9455647,3.0819557,-0.7009178,0.11966889,0.41151446,9.65643895695794,0.8215537295884685,jump
10/07/2020, 20:43:38,-8.664411,-2.9455647,3.0819557,-0.6252089,0.11112112,0.4591378,9.65643895695794,0.7836080693411311,jump
10/07/2020, 20:43:39,3.9074793,2.548356,-3.117848,-4.985797,-0.018316668,-2.823209,5.611014935836481,5.72966105772977,jump
10/07/2020, 20:43:39,3.9074793,2.548356,-3.117848,-5.182396,0.35412225,-2.459318,5.611014935836481,5.747249328238767,jump
10/07/2020, 20:43:39,4.074977,1.8927227,-3.4791641,-5.182396,0.35412225,-2.459318,5.682641922808387,5.747249328238767,jump
10/07/2020, 20:43:39,4.074977,1.8927227,-3.4791641,-5.283748,0.6288723,-2.0844367,5.682641922808387,5.714748552550172,jump
10/07/2020, 20:43:39,3.8476589,1.1629118,-3.991228,-5.283748,0.6288723,-2.0844367,5.664516251750699,5.714748552550172,jump
10/07/2020, 20:43:39,3.8476589,1.1629118,-3.991228,-5.0028925,0.7778478,-1.6338468,5.664516251750699,5.320097347248137,jump
10/07/2020, 20:43:39,3.5174494,0.014356935,-4.287938,-5.0028925,0.7778478,-1.6338468,5.546085967493237,5.320097347248137,jump
10/07/2020, 20:43:39,3.5174494,0.014356935,-4.287938,-4.4814777,0.88408446,-1.12098,5.546085967493237,4.703386467636405,jump
10/07/2020, 20:43:39,3.158526,-1.2729816,-4.462614,-4.4814777,0.88408446,-1.12098,5.613527647220016,4.703386467636405,jump
10/07/2020, 20:43:39,3.158526,-1.2729816,-4.462614,-3.7402635,0.92193896,-0.62765115,5.613527647220016,3.903010142983121,jump
10/07/2020, 20:43:39,2.8809586,-2.2827528,-4.302295,-3.7402635,0.92193896,-0.62765115,5.658677088563237,3.903010142983121,jump
10/07/2020, 20:43:39,2.8809586,-2.2827528,-4.302295,-2.8195457,0.9634567,-0.20392556,5.658677088563237,2.9865821005052267,jump
10/07/2020, 20:43:39,2.7230322,-3.0029924,-4.101298,-2.8195457,0.9634567,-0.20392556,5.766585814958663,2.9865821005052267,jump
10/07/2020, 20:43:39,2.7230322,-3.0029924,-4.101298,-1.8292245,0.97811,0.16973445,5.766585814958663,2.0812426905100176,jump
10/07/2020, 20:43:39,2.536392,-3.3690944,-3.885944,-1.8292245,0.97811,0.16973445,5.734513147821384,2.0812426905100176,jump
10/07/2020, 20:43:39,2.536392,-3.3690944,-3.885944,-0.8645467,0.9646778,0.5775856,5.734513147821384,1.418326268100896,jump
10/07/2020, 20:43:39,2.347359,-3.438486,-3.802195,-0.8645467,0.9646778,0.5775856,5.638259308003686,1.418326268100896,jump
10/07/2020, 20:43:39,2.347359,-3.438486,-3.802195,-0.051286668,0.9500245,1.0025322,5.638259308003686,1.3821171242714827,jump
10/07/2020, 20:43:39,2.2085752,-3.3954153,-3.8620157,-0.051286668,0.9500245,1.0025322,5.596589602956437,1.3821171242714827,jump
10/07/2020, 20:43:39,2.2085752,-3.3954153,-3.8620157,0.5678167,0.9317078,1.3713078,5.596589602956437,1.7524213017305228,jump
10/07/2020, 20:43:40,-9.454042,-1.3471591,3.0580273,-1.2919356,-1.3603178,-2.1259546,10.027227278441545,2.8353562682520352,jump
10/07/2020, 20:43:40,-9.454042,-1.3471591,3.0580273,-1.3993934,-1.2601867,-2.1247334,10.027227278441545,2.839166193079378,jump
10/07/2020, 20:43:40,-9.635897,-1.6917256,3.062813,-1.3993934,-1.2601867,-2.1247334,10.251500581167322,2.839166193079378,jump
10/07/2020, 20:43:40,-9.635897,-1.6917256,3.062813,-1.4677756,-1.174709,-2.107638,10.251500581167322,2.824259859130462,jump
10/07/2020, 20:43:40,-9.88475,-2.0434706,3.0125637,-1.4677756,-1.174709,-2.107638,10.533736377041311,2.824259859130462,jump
10/07/2020, 20:43:40,-9.88475,-2.0434706,3.0125637,-1.4873134,-1.1551712,-2.0697834,10.533736377041311,2.798307532308655,jump
10/07/2020, 20:43:40,-10.057034,-2.361716,2.8929226,-1.4873134,-1.1551712,-2.0697834,10.728029997021565,2.798307532308655,jump
10/07/2020, 20:43:40,-10.057034,-2.361716,2.8929226,-1.449459,-1.1893623,-2.0172756,10.728029997021565,2.7540723757489864,jump
10/07/2020, 20:43:40,-10.04507,-2.6488547,2.7397819,-1.449459,-1.1893623,-2.0172756,10.743661442130065,2.7540723757489864,jump
10/07/2020, 20:43:40,-10.04507,-2.6488547,2.7397819,-1.3810767,-1.2357645,-1.944009,10.743661442130065,2.6858252968575695,jump
10/07/2020, 20:43:40,-9.736395,-2.8522446,2.6703901,-1.3810767,-1.2357645,-1.944009,10.49112329975544,2.6858252968575695,jump
10/07/2020, 20:43:40,-9.736395,-2.8522446,2.6703901,-1.2919356,-1.2284378,-1.8499835,10.49112329975544,2.569162443468643,jump
10/07/2020, 20:43:40,-9.262616,-2.9910283,2.6751757,-1.2919356,-1.2284378,-1.8499835,10.094497177893887,2.569162443468643,jump
10/07/2020, 20:43:40,-9.262616,-2.9910283,2.6751757,-1.1966889,-1.1515079,-1.7535156,10.094497177893887,2.4151297279722868,jump
10/07/2020, 20:43:40,-8.693125,-3.0699914,2.6799614,-1.1966889,-1.1515079,-1.7535156,9.600909254443339,2.4151297279722868,jump
10/07/2020, 20:43:40,-8.693125,-3.0699914,2.6799614,-1.0965579,-1.0306178,-1.6497211,9.600909254443339,2.2329783041961777,jump
10/07/2020, 20:43:40,-8.152347,-3.0652058,2.6225336,-1.0965579,-1.0306178,-1.6497211,9.095819051148366,2.2329783041961777,jump
10/07/2020, 20:43:40,-8.152347,-3.0652058,2.6225336,-0.9829945,-0.89263225,-1.5532534,9.095819051148366,2.0434448047523177,jump
10/07/2020, 20:43:40,-7.726424,-3.0029924,2.5316064,-0.9829945,-0.89263225,-1.5532534,8.667446315616488,2.0434448047523177,jump
10/07/2020, 20:43:40,-7.726424,-3.0029924,2.5316064,-0.86943114,-0.7546467,-1.4665545,8.667446315616488,1.8644528261783224,jump
10/07/2020, 20:43:41,-12.368501,-3.5796626,4.5726843,2.559449,0.31871,-2.4116945,13.663939236299797,3.5310940966515045,jump
10/07/2020, 20:43:41,-12.368501,-3.5796626,4.5726843,2.7389524,0.17828223,-2.6449268,13.663939236299797,3.8117295942411795,jump
10/07/2020, 20:43:41,-12.744173,-3.4767714,4.4171505,2.7389524,0.17828223,-2.6449268,13.928858686058017,3.8117295942411795,jump
10/07/2020, 20:43:41,-12.744173,-3.4767714,4.4171505,2.7951233,-0.009768889,-2.8537369,13.928858686058017,3.9945743296887906,jump
10/07/2020, 20:43:41,-13.186846,-3.505485,4.469793,2.7951233,-0.009768889,-2.8537369,14.358285940842013,3.9945743296887906,jump
10/07/2020, 20:43:41,-13.186846,-3.505485,4.469793,2.724299,-0.20636779,-3.030798,14.358285940842013,4.080456925436436,jump
10/07/2020, 20:43:41,-13.777873,-3.6251264,4.807181,2.724299,-0.20636779,-3.030798,15.035967366697426,4.080456925436436,jump
10/07/2020, 20:43:41,-13.777873,-3.6251264,4.807181,2.5338056,-0.39075556,-3.17611,15.035967366697426,4.081731947522076,jump
10/07/2020, 20:43:41,-14.507684,-3.7758741,5.1876397,2.5338056,-0.39075556,-3.17611,15.863219068181007,4.081731947522076,jump
10/07/2020, 20:43:41,-14.507684,-3.7758741,5.1876397,2.3054578,-0.6325356,-3.2786834,15.863219068181007,4.057708966722007,jump
10/07/2020, 20:43:41,-15.41217,-3.9649072,5.1852465,2.3054578,-0.6325356,-3.2786834,16.737451016891843,4.057708966722007,jump
10/07/2020, 20:43:41,-15.41217,-3.9649072,5.1852465,2.1833467,-0.96956223,-3.3324122,16.737451016891843,4.1002469807047115,jump
10/07/2020, 20:43:41,-16.228123,-4.402794,5.1182475,2.1833467,-0.96956223,-3.3324122,17.576490499528383,4.1002469807047115,jump
10/07/2020, 20:43:41,-16.228123,-4.402794,5.1182475,2.2041056,-1.3163579,-3.3458445,17.576490499528383,4.217292380571973,jump
10/07/2020, 20:43:41,-16.790436,-5.0847483,5.3359947,2.2041056,-1.3163579,-3.3458445,18.337018259771945,4.217292380571973,jump
10/07/2020, 20:43:41,-16.790436,-5.0847483,5.3359947,2.2895834,-1.6020979,-3.3714879,18.337018259771945,4.379022755583501,jump
10/07/2020, 20:43:41,-17.142181,-5.723632,5.6446686,2.2895834,-1.6020979,-3.3714879,18.933479026666912,4.379022755583501,jump
10/07/2020, 20:43:41,-17.142181,-5.723632,5.6446686,2.2529502,-1.8927222,-3.4337647,18.933479026666912,4.522048436900652,jump
10/07/2020, 20:43:41,-17.419748,-6.096912,5.8600225,2.2529502,-1.8927222,-3.4337647,19.363879520497346,4.522048436900652,jump
10/07/2020, 20:43:41,-17.419748,-6.096912,5.8600225,1.9916323,-2.2248645,-3.5241268,19.363879520497346,4.619100651853463,jump
10/07/2020, 20:43:42,-4.2352962,-4.113262,3.3619158,2.5838711,0.32359445,0.4249467,6.794051668872076,2.638500153390015,jump
10/07/2020, 20:43:42,-4.2352962,-4.113262,3.3619158,2.8976967,0.4383789,0.54339445,6.794051668872076,2.9806207312837025,jump
10/07/2020, 20:43:42,-4.8861437,-4.132405,3.1728828,2.8976967,0.4383789,0.54339445,7.1427134062220095,2.9806207312837025,jump
10/07/2020, 20:43:42,-4.8861437,-4.132405,3.1728828,3.140698,0.52752,0.6691689,7.1427134062220095,3.254235394904412,jump
10/07/2020, 20:43:42,-5.4795637,-4.058227,2.993421,3.140698,0.52752,0.6691689,7.446837927791928,3.254235394904412,jump
10/07/2020, 20:43:42,-5.4795637,-4.058227,2.993421,3.2786834,0.59346,0.77296335,7.446837927791928,3.420443264688917,jump
10/07/2020, 20:43:42,-6.0634127,-3.897908,2.885744,3.2786834,0.59346,0.77296335,7.764417473568277,3.420443264688917,jump
10/07/2020, 20:43:42,-6.0634127,-3.897908,2.885744,3.3128746,0.63986224,0.8535567,7.764417473568277,3.4803908593580926,jump
10/07/2020, 20:43:42,-6.666404,-3.7543387,2.8354948,3.3128746,0.63986224,0.8535567,8.159413528577717,3.4803908593580926,jump
10/07/2020, 20:43:42,-6.666404,-3.7543387,2.8354948,3.28601,0.65329444,0.88286334,8.159413528577717,3.4646938118339126,jump
10/07/2020, 20:43:42,-7.2287173,-3.723232,2.8378878,3.28601,0.65329444,0.88286334,8.612224910671511,3.4646938118339126,jump
10/07/2020, 20:43:42,-7.2287173,-3.723232,2.8378878,3.2786834,0.6386411,0.8865267,8.612224910671511,3.4559451775569956,jump
10/07/2020, 20:43:42,-7.874779,-3.8811584,2.955136,3.2786834,0.6386411,0.8865267,9.263280581026388,3.4559451775569956,jump
10/07/2020, 20:43:42,-7.874779,-3.8811584,2.955136,3.3214223,0.6325356,0.87065226,9.263280581026388,3.4914156099762357,jump
10/07/2020, 20:43:42,-8.62134,-4.2568316,3.1441689,3.3214223,0.6325356,0.87065226,10.116022605509096,3.4914156099762357,jump
10/07/2020, 20:43:42,-8.62134,-4.2568316,3.1441689,3.437428,0.6056711,0.84623003,10.116022605509096,3.59149745832719,jump
10/07/2020, 20:43:42,-9.47797,-4.7377887,3.4241292,3.437428,0.6056711,0.84623003,11.135673321028545,3.59149745832719,jump
10/07/2020, 20:43:42,-9.47797,-4.7377887,3.4241292,3.6645546,0.56171113,0.8095967,11.135673321028545,3.7947235245586173,jump
10/07/2020, 20:43:42,-10.4159565,-5.1421757,3.656233,3.6645546,0.56171113,0.8095967,12.17793745660699,3.7947235245586173,jump
10/07/2020, 20:43:42,-10.4159565,-5.1421757,3.656233,4.006466,0.49577114,0.7754056,12.17793745660699,4.110816457650867,jump
10/07/2020, 20:43:43,-8.779266,-3.141776,3.1513474,0.48600224,0.46768558,0.82913446,9.842624912586425,1.0688273648218969,jump
10/07/2020, 20:43:43,-8.779266,-3.141776,3.1513474,0.54095227,0.46402225,0.82425004,9.842624912586425,1.0896486283679798,jump
10/07/2020, 20:43:43,-8.76491,-3.1369905,3.1728828,0.54095227,0.46402225,0.82425004,9.835219252822712,1.0896486283679798,jump
10/07/2020, 20:43:43,-8.76491,-3.1369905,3.1728828,0.59468114,0.45547447,0.81570226,9.835219252822712,1.1074623371563905,jump
10/07/2020, 20:43:43,-8.719446,-3.1465619,3.1680973,0.59468114,0.45547447,0.81570226,9.796245888309132,1.1074623371563905,jump
10/07/2020, 20:43:43,-8.719446,-3.1465619,3.1680973,0.6435256,0.4481478,0.80227005,9.796245888309132,1.1218729398161371,jump
10/07/2020, 20:43:43,-8.73141,-3.158526,3.1728828,0.6435256,0.4481478,0.80227005,9.812287828129024,1.1218729398161371,jump
10/07/2020, 20:43:43,-8.73141,-3.158526,3.1728828,0.68626446,0.43960002,0.7900589,9.812287828129024,1.1350771618681728,jump
10/07/2020, 20:43:43,-8.700303,-3.117848,3.1537402,0.68626446,0.43960002,0.7900589,9.76536360498418,1.1350771618681728,jump
10/07/2020, 20:43:43,-8.700303,-3.117848,3.1537402,0.70580226,0.42128336,0.78029,9.76536360498418,1.1333529908121012,jump
10/07/2020, 20:43:43,-8.678768,-3.0963125,3.1441689,0.70580226,0.42128336,0.78029,9.736219274438614,1.1333529908121012,jump
10/07/2020, 20:43:43,-8.678768,-3.0963125,3.1441689,0.70580226,0.4041878,0.7570889,9.736219274438614,1.1111742487909555,jump
10/07/2020, 20:43:43,-8.690732,-3.0293136,3.1680973,0.70580226,0.4041878,0.7570889,9.733570960322528,1.1111742487909555,jump
10/07/2020, 20:43:43,-8.690732,-3.0293136,3.1680973,0.69603336,0.37854445,0.7326667,9.733570960322528,1.0791472503442525,jump
10/07/2020, 20:43:43,-8.676374,-2.9790642,3.17049,0.69603336,0.37854445,0.7326667,9.705993200862752,1.0791472503442525,jump
10/07/2020, 20:43:43,-8.676374,-2.9790642,3.17049,0.67039,0.35900667,0.6996967,9.705993200862752,1.0333847570772552,jump
10/07/2020, 20:43:43,-8.71466,-2.926422,3.1800613,0.67039,0.35900667,0.6996967,9.727385572450418,1.0333847570772552,jump
10/07/2020, 20:43:43,-8.71466,-2.926422,3.1800613,0.63742,0.32359445,0.66306335,9.727385572450418,0.9750233976396973,jump
10/07/2020, 20:43:43,-8.733803,-2.8833513,3.1848469,0.63742,0.32359445,0.66306335,9.733256175341912,0.9750233976396973,jump
10/07/2020, 20:43:43,-8.733803,-2.8833513,3.1848469,0.5922389,0.29184556,0.62154555,9.733256175341912,0.9067742960226819,jump
10/07/2020, 20:43:44,-29.714071,-16.74258,10.858629,13.24173,3.1895423,6.227667,35.79315380433064,14.976662542348798,jump
10/07/2020, 20:43:44,-29.714071,-16.74258,10.858629,12.910809,4.052868,5.0810437,35.79315380433064,14.454470629270547,jump
10/07/2020, 20:43:44,-24.126831,-11.564512,7.3268228,12.910809,4.052868,5.0810437,27.740300144551938,14.454470629270547,jump
10/07/2020, 20:43:44,-24.126831,-11.564512,7.3268228,10.939935,5.0041137,4.5767245,27.740300144551938,12.871275499692851,jump
10/07/2020, 20:43:44,-20.573488,-6.463014,3.8524444,10.939935,5.0041137,4.5767245,21.90617031113402,12.871275499692851,jump
10/07/2020, 20:43:44,-20.573488,-6.463014,3.8524444,7.949434,4.8172836,4.3434925,21.90617031113402,10.259904801657822,jump
10/07/2020, 20:43:44,-18.807587,-2.4670002,-1.294517,7.949434,4.8172836,4.3434925,19.012816228221645,10.259904801657822,jump
10/07/2020, 20:43:44,-18.807587,-2.4670002,-1.294517,4.3483768,3.338518,3.9930334,19.012816228221645,6.782211879004866,jump
10/07/2020, 20:43:44,-17.79303,0.7896315,-3.8524444,4.3483768,3.338518,3.9930334,18.222424502619873,6.782211879004866,jump
10/07/2020, 20:43:44,-17.79303,0.7896315,-3.8524444,1.0623667,1.7132189,3.590067,18.222424502619873,4.117319828020049,jump
10/07/2020, 20:43:44,-15.840486,3.3619158,-3.9481573,1.0623667,1.7132189,3.590067,16.667675523520742,4.117319828020049,jump
10/07/2020, 20:43:44,-15.840486,3.3619158,-3.9481573,-1.0916734,0.7717422,2.9611945,16.667675523520742,3.2490013503040327,jump
10/07/2020, 20:43:44,-13.576876,5.1732826,-1.3950156,-1.0916734,0.7717422,2.9611945,14.595906105065975,3.2490013503040327,jump
10/07/2020, 20:43:44,-13.576876,5.1732826,-1.3950156,-1.9171445,0.5092034,1.7730534,14.595906105065975,2.6605355924276926,jump
10/07/2020, 20:43:44,-11.447264,5.946164,1.0456635,-1.9171445,0.5092034,1.7730534,12.941797657250918,2.6605355924276926,jump
10/07/2020, 20:43:44,-11.447264,5.946164,1.0456635,-1.7290934,0.5739222,0.39564002,12.941797657250918,1.8643180605917105,jump
10/07/2020, 20:43:44,-9.999606,5.9964137,3.3643086,-1.7290934,0.5739222,0.39564002,12.13538925977993,1.8643180605917105,jump
10/07/2020, 20:43:44,-9.999606,5.9964137,3.3643086,-0.96589893,0.7167922,-0.5250778,12.13538925977993,1.3124246861632807,jump
10/07/2020, 20:43:44,-9.020942,5.8672013,4.759324,-0.96589893,0.7167922,-0.5250778,11.766588581224427,1.3124246861632807,jump
10/07/2020, 20:43:44,-9.020942,5.8672013,4.759324,-0.3052778,0.95613,-0.7778478,11.766588581224427,1.2698135308154215,jump
10/07/2020, 20:43:45,-9.367901,-2.8474588,2.9168508,0.44692668,0.79250115,1.3493278,10.216340184610637,1.6274172957166613,jump
10/07/2020, 20:43:45,-9.367901,-2.8474588,2.9168508,0.4481478,0.80471224,1.3725289,10.216340184610637,1.6529470188145459,jump
10/07/2020, 20:43:45,-9.461221,-2.7900312,2.9503503,0.4481478,0.80471224,1.3725289,10.295801998101025,1.6529470188145459,jump
10/07/2020, 20:43:45,-9.461221,-2.7900312,2.9503503,0.43960002,0.8181445,1.3822979,10.295801998101025,1.665339608766242,jump
10/07/2020, 20:43:45,-9.516255,-2.7326035,3.0005996,0.43960002,0.8181445,1.3822979,10.34552254312088,1.665339608766242,jump
10/07/2020, 20:43:45,-9.516255,-2.7326035,3.0005996,0.42372558,0.84623003,1.3908457,10.34552254312088,1.6822901850672702,jump
10/07/2020, 20:43:45,-9.578469,-2.6751757,3.0364919,0.42372558,0.84623003,1.3908457,10.398265307717818,1.6822901850672702,jump
10/07/2020, 20:43:45,-9.578469,-2.6751757,3.0364919,0.40296668,0.8718734,1.3884034,10.398265307717818,1.6882563125734988,jump
10/07/2020, 20:43:45,-9.597611,-2.6153553,3.0388846,0.40296668,0.8718734,1.3884034,10.401396447774088,1.6882563125734988,jump
10/07/2020, 20:43:45,-9.597611,-2.6153553,3.0388846,0.37732336,0.88042116,1.3749712,10.401396447774088,1.6757267099293063,jump
10/07/2020, 20:43:45,-9.602397,-2.57707,3.050849,0.37732336,0.88042116,1.3749712,10.39975945056107,1.6757267099293063,jump
10/07/2020, 20:43:45,-9.602397,-2.57707,3.050849,0.3504589,0.8877478,1.3639811,10.39975945056107,1.6647408656922305,jump
10/07/2020, 20:43:45,-9.597611,-2.507678,3.0747771,0.3504589,0.8877478,1.3639811,10.385415186589825,1.6647408656922305,jump
10/07/2020, 20:43:45,-9.597611,-2.507678,3.0747771,0.3162678,0.90362227,1.3603178,10.385415186589825,1.6634371369633234,jump
10/07/2020, 20:43:45,-9.614362,-2.4526432,3.089134,0.3162678,0.90362227,1.3603178,10.39202383052153,1.6634371369633234,jump
10/07/2020, 20:43:45,-9.614362,-2.4526432,3.089134,0.2735289,0.9317078,1.3578756,10.39202383052153,1.6693482532258777,jump
10/07/2020, 20:43:45,-9.659825,-2.388037,3.1226335,0.2735289,0.9317078,1.3578756,10.429083640004059,1.6693482532258777,jump
10/07/2020, 20:43:45,-9.659825,-2.388037,3.1226335,0.22590557,0.94514006,1.3554333,10.429083640004059,1.6677897402915987,jump
10/07/2020, 20:43:45,-9.712467,-2.3545375,3.0699914,0.22590557,0.94514006,1.3554333,10.454698113996267,1.6677897402915987,jump
10/07/2020, 20:43:45,-9.712467,-2.3545375,3.0699914,0.17095557,0.94758224,1.3578756,10.454698113996267,1.6646212851777182,jump
10/07/2020, 20:43:46,5.460421,5.3742795,-3.2829528,-0.17706113,-1.3810767,-0.64108336,8.335277893096277,1.5328768214518778,jump
10/07/2020, 20:43:46,6.0658054,5.5202417,-3.1393833,-0.17706113,-1.3810767,-0.64108336,8.781958324966725,1.5328768214518778,jump
10/07/2020, 20:43:46,6.0658054,5.5202417,-3.1393833,-0.2942878,-0.94880337,0.09768889,8.781958324966725,0.9981864830729524,jump
10/07/2020, 20:43:46,6.3122663,5.5465627,-3.0388846,-0.2942878,-0.94880337,0.09768889,8.935540487012386,0.9981864830729524,jump
10/07/2020, 20:43:46,6.3122663,5.5465627,-3.0388846,-0.48844448,-0.58124894,0.7082445,8.935540487012386,1.0382863824304518,jump
10/07/2020, 20:43:46,6.13759,5.2833524,-3.0675986,-0.48844448,-0.58124894,0.7082445,8.659906670508876,1.0382863824304518,jump
10/07/2020, 20:43:46,6.13759,5.2833524,-3.0675986,-0.7009178,-0.2759711,1.2321012,8.659906670508876,1.4441326680711413,jump
10/07/2020, 20:43:46,5.8241305,4.6492543,-3.0867412,-0.7009178,-0.2759711,1.2321012,8.066227961868428,1.4441326680711413,jump
10/07/2020, 20:43:46,5.8241305,4.6492543,-3.0867412,-0.82791334,-0.007326667,1.7376412,8.066227961868428,1.9248093875146604,jump
10/07/2020, 20:43:46,5.426922,3.749553,-3.0269206,-0.82791334,-0.007326667,1.7376412,7.2576081599391244,1.9248093875146604,jump
10/07/2020, 20:43:46,5.426922,3.749553,-3.0269206,-0.8205867,0.25643334,2.2456234,7.2576081599391244,2.4045674848389966,jump
10/07/2020, 20:43:46,5.0440702,2.7397819,-2.8163524,-0.8205867,0.25643334,2.2456234,6.39381653658601,2.4045674848389966,jump
10/07/2020, 20:43:46,5.0440702,2.7397819,-2.8163524,-0.6899278,0.54095227,2.7218568,6.39381653658601,2.859568911876924,jump
10/07/2020, 20:43:46,4.7162533,1.7706888,-2.6081767,-0.6899278,0.54095227,2.7218568,5.672827291259063,2.859568911876924,jump
10/07/2020, 20:43:46,4.7162533,1.7706888,-2.6081767,-0.48478112,0.81448114,3.1333714,5.672827291259063,3.273592566812822,jump
10/07/2020, 20:43:46,4.4482574,0.96430755,-2.3641088,-0.48478112,0.81448114,3.1333714,5.128927156371231,3.273592566812822,jump
10/07/2020, 20:43:46,4.4482574,0.96430755,-2.3641088,-0.23201112,1.0892311,3.482609,5.128927156371231,3.656339604685765,jump
10/07/2020, 20:43:46,4.1204405,0.30867413,-2.0937197,-0.23201112,1.0892311,3.482609,4.6321670696062975,3.656339604685765,jump
10/07/2020, 20:43:46,4.1204405,0.30867413,-2.0937197,0.035412222,1.3896245,3.8049824,4.6321670696062975,4.050950685489903,jump
10/07/2020, 20:43:46,3.7686956,-0.09092726,-1.8448663,0.035412222,1.3896245,3.8049824,4.1970067683534005,4.050950685489903,jump
10/07/2020, 20:43:47,-8.772088,-4.024728,2.2301106,-0.8755367,-0.74732006,-2.6400423,9.905622458883338,2.880082484340837,jump
10/07/2020, 20:43:47,-8.772088,-4.024728,2.2301106,-0.6288723,-0.65451556,-2.5081623,9.905622458883338,2.6673486621681723,jump
10/07/2020, 20:43:47,-8.389236,-3.9625144,2.254039,-0.6288723,-0.65451556,-2.5081623,9.547853194640187,2.6673486621681723,jump
10/07/2020, 20:43:47,-8.389236,-3.9625144,2.254039,-0.3931978,-0.5788067,-2.3750613,9.547853194640187,2.4759922780312174,jump
10/07/2020, 20:43:47,-8.080562,-3.8620157,2.3377876,-0.3931978,-0.5788067,-2.3750613,9.256127312857412,2.4759922780312174,jump
10/07/2020, 20:43:47,-8.080562,-3.8620157,2.3377876,-0.13432223,-0.46280113,-2.2370756,9.256127312857412,2.288391233734835,jump
10/07/2020, 20:43:47,-7.893922,-3.739982,2.3832514,-0.13432223,-0.46280113,-2.2370756,9.054355532817398,2.288391233734835,jump
10/07/2020, 20:43:47,-7.893922,-3.739982,2.3832514,0.07937223,-0.3492378,-2.0844367,9.054355532817398,2.114980652404001,jump
10/07/2020, 20:43:47,-7.786245,-3.5796626,2.3377876,0.07937223,-0.3492378,-2.0844367,8.882839873131502,2.114980652404001,jump
10/07/2020, 20:43:47,-7.786245,-3.5796626,2.3377876,0.26009667,-0.25399113,-1.922029,8.882839873131502,1.9561076957849428,jump
10/07/2020, 20:43:47,-7.728817,-3.4217365,2.1631117,0.26009667,-0.25399113,-1.922029,8.724789092232276,1.9561076957849428,jump
10/07/2020, 20:43:47,-7.728817,-3.4217365,2.1631117,0.38831335,-0.20270446,-1.7522945,8.724789092232276,1.8062149690367553,jump
10/07/2020, 20:43:47,-7.647461,-3.1944182,1.9573289,0.38831335,-0.20270446,-1.7522945,8.515814867599039,1.8062149690367553,jump
10/07/2020, 20:43:47,-7.647461,-3.1944182,1.9573289,0.4249467,-0.21369445,-1.5740123,8.515814867599039,1.6443113055220873,jump
10/07/2020, 20:43:47,-7.515856,-2.9455647,1.7371893,0.4249467,-0.21369445,-1.5740123,8.257255389119155,1.6443113055220873,jump
10/07/2020, 20:43:47,-7.515856,-2.9455647,1.7371893,0.42250445,-0.17950334,-1.4091623,8.257255389119155,1.4820491900987611,jump
10/07/2020, 20:43:47,-7.32443,-2.696711,1.5960127,0.42250445,-0.17950334,-1.4091623,7.9666041571337,1.4820491900987611,jump
10/07/2020, 20:43:47,-7.32443,-2.696711,1.5960127,0.37488112,-0.15752333,-1.2345434,7.9666041571337,1.2997872771248649,jump
10/07/2020, 20:43:47,-7.051648,-2.5268207,1.4907285,0.37488112,-0.15752333,-1.2345434,7.637593573171852,1.2997872771248649,jump
10/07/2020, 20:43:47,-7.051648,-2.5268207,1.4907285,0.32970002,-0.070824444,-1.0794623,7.637593573171852,1.1309098293655866,jump
10/07/2020, 20:43:48,-19.774286,-8.3581295,6.218946,0.01099,-4.206728,-5.759981,22.35074977171417,7.132605695082311,jump
10/07/2020, 20:43:48,-19.774286,-8.3581295,6.218946,0.058613338,-4.4289703,-5.7831826,22.35074977171417,7.284532585998113,jump
10/07/2020, 20:43:48,-18.422342,-8.099705,5.8504515,0.058613338,-4.4289703,-5.7831826,20.957473491437028,7.284532585998113,jump
10/07/2020, 20:43:48,-18.422342,-8.099705,5.8504515,0.05006556,-4.67075,-5.7856245,20.957473491437028,7.435849940891242,jump
10/07/2020, 20:43:48,-16.747366,-7.6067834,5.237889,0.05006556,-4.67075,-5.7856245,19.12519017095913,7.435849940891242,jump
10/07/2020, 20:43:48,-16.747366,-7.6067834,5.237889,0.028085556,-4.955269,-5.7428856,19.12519017095913,7.585262893744076,jump
10/07/2020, 20:43:48,-14.711074,-7.0731835,4.8119664,0.028085556,-4.955269,-5.7428856,17.01765673438653,7.585262893744076,jump
10/07/2020, 20:43:48,-14.711074,-7.0731835,4.8119664,-0.051286668,-5.095697,-5.623217,17.01765673438653,7.58876327900718,jump
10/07/2020, 20:43:48,-12.533605,-6.5898337,4.388437,-0.051286668,-5.095697,-5.623217,14.824828194243825,7.58876327900718,jump
10/07/2020, 20:43:48,-12.533605,-6.5898337,4.388437,-0.11478445,-5.0834856,-5.4205127,14.824828194243825,7.432157090802566,jump
10/07/2020, 20:43:48,-10.437492,-5.907879,3.9696927,-0.11478445,-5.0834856,-5.4205127,12.633397800483927,7.432157090802566,jump
10/07/2020, 20:43:48,-10.437492,-5.907879,3.9696927,-0.117226675,-4.9784703,-5.258105,12.633397800483927,7.242000757741148,jump
10/07/2020, 20:43:48,-8.609376,-5.3503513,3.7328033,-0.117226675,-4.9784703,-5.258105,10.801918094267196,7.242000757741148,jump
10/07/2020, 20:43:48,-8.609376,-5.3503513,3.7328033,-0.18316667,-4.7208157,-5.195828,10.801918094267196,7.02255499874301,jump
10/07/2020, 20:43:48,-7.183254,-4.6612186,3.4073794,-0.18316667,-4.7208157,-5.195828,9.216090721819205,7.02255499874301,jump
10/07/2020, 20:43:48,-7.183254,-4.6612186,3.4073794,-0.15630223,-4.4961314,-5.131109,9.216090721819205,6.824068445047809,jump
10/07/2020, 20:43:48,-6.1998034,-3.7256248,2.754139,-0.15630223,-4.4961314,-5.131109,7.7397107887211405,6.824068445047809,jump
10/07/2020, 20:43:48,-6.1998034,-3.7256248,2.754139,-0.06960334,-4.3886733,-5.0700536,7.7397107887211405,6.706022762057037,jump
10/07/2020, 20:43:48,-5.426922,-2.7182465,1.8568304,-0.06960334,-4.3886733,-5.0700536,6.347295763037783,6.706022762057037,jump
10/07/2020, 20:43:48,-5.426922,-2.7182465,1.8568304,0.009768889,-4.402106,-4.9064245,6.347295763037783,6.591785234085248,jump
10/07/2020, 20:43:49,-11.990435,-0.74177504,2.7445676,1.8707423,-1.5337156,-0.20881,12.322881347667467,2.4280778421798814,jump
10/07/2020, 20:43:49,-11.990435,-0.74177504,2.7445676,1.5898868,-1.6985656,-0.4273889,12.322881347667467,2.365486497616209,jump
10/07/2020, 20:43:49,-11.882757,-0.29671,2.6081767,1.5898868,-1.6985656,-0.4273889,12.169245701213283,2.365486497616209,jump
10/07/2020, 20:43:49,-11.882757,-0.29671,2.6081767,1.295599,-1.8426567,-0.6520734,12.169245701213283,2.3450288387378717,jump
10/07/2020, 20:43:49,-11.734403,0.09810573,2.5842485,1.295599,-1.8426567,-0.6520734,12.015996461844027,2.3450288387378717,jump
10/07/2020, 20:43:49,-11.734403,0.09810573,2.5842485,0.9854367,-1.9598835,-0.8767578,12.015996461844027,2.362399803252013,jump
10/07/2020, 20:43:49,-11.531013,0.39481574,2.629712,0.9854367,-1.9598835,-0.8767578,11.833660266778717,2.362399803252013,jump
10/07/2020, 20:43:49,-11.531013,0.39481574,2.629712,0.65940005,-2.0404768,-1.0782411,11.833660266778717,2.4001995497801967,jump
10/07/2020, 20:43:49,-11.330015,0.6436693,2.7326035,0.65940005,-2.0404768,-1.0782411,11.672646502566646,2.4001995497801967,jump
10/07/2020, 20:43:49,-11.330015,0.6436693,2.7326035,0.31016225,-2.0832157,-1.2589656,11.672646502566646,2.4537690883201497,jump
10/07/2020, 20:43:49,-11.1936245,0.7848458,2.7900312,0.31016225,-2.0832157,-1.2589656,11.562762922865316,2.4537690883201497,jump
10/07/2020, 20:43:49,-11.1936245,0.7848458,2.7900312,-0.058613338,-2.107638,-1.4152678,11.562762922865316,2.5394007133185488,jump
10/07/2020, 20:43:49,-11.093125,0.83030945,2.8402805,-0.058613338,-2.107638,-1.4152678,11.481029447383252,2.5394007133185488,jump
10/07/2020, 20:43:49,-11.093125,0.83030945,2.8402805,-0.42983112,-2.1186278,-1.5654645,11.481029447383252,2.6690855321514393,jump
10/07/2020, 20:43:49,-11.035698,0.80159557,2.806781,-0.42983112,-2.1186278,-1.5654645,11.415218101078208,2.6690855321514393,jump
10/07/2020, 20:43:49,-11.035698,0.80159557,2.806781,-0.8120389,-2.1357234,-1.7229879,11.415218101078208,2.8617142905390565,jump
10/07/2020, 20:43:49,-11.052447,0.6628119,2.7613173,-0.8120389,-2.1357234,-1.7229879,11.41143217542762,2.8617142905390565,jump
10/07/2020, 20:43:49,-11.052447,0.6628119,2.7613173,-1.2113422,-2.1552613,-1.8878379,11.41143217542762,3.1106965501514865,jump
10/07/2020, 20:43:49,-11.018949,0.41874397,2.7397819,-1.2113422,-2.1552613,-1.8878379,11.362173136760788,3.1106965501514865,jump
10/07/2020, 20:43:49,-11.018949,0.41874397,2.7397819,-1.6240778,-2.1711357,-2.0490246,11.362173136760788,3.3985232821332145,jump
10/07/2020, 20:43:50,-9.45165,-2.993421,3.5892339,-0.31138334,0.39075556,0.89263225,10.544043387886784,1.0229573890602093,jump
10/07/2020, 20:43:50,-9.377472,-3.0412776,3.6323047,-0.31138334,0.39075556,0.89263225,10.506188015294214,1.0229573890602093,jump
10/07/2020, 20:43:50,-9.377472,-3.0412776,3.6323047,-0.23689556,0.36999667,0.83524,10.506188015294214,0.9437387926844243,jump
10/07/2020, 20:43:50,-9.284152,-3.0915267,3.641876,-0.23689556,0.36999667,0.83524,10.441086017742974,0.9437387926844243,jump
10/07/2020, 20:43:50,-9.284152,-3.0915267,3.641876,-0.15752333,0.34191114,0.7778478,10.441086017742974,0.864155117788209,jump
10/07/2020, 20:43:50,-9.212367,-3.1250265,3.644269,-0.15752333,0.34191114,0.7778478,10.388175666570339,0.864155117788209,jump
10/07/2020, 20:43:50,-9.212367,-3.1250265,3.644269,-0.081814446,0.32237336,0.71801335,10.388175666570339,0.7913035778439318,jump
10/07/2020, 20:43:50,-9.145369,-3.1369905,3.6466618,-0.081814446,0.32237336,0.71801335,10.333277218058202,0.7913035778439318,jump
10/07/2020, 20:43:50,-9.145369,-3.1369905,3.6466618,-0.007326667,0.29673,0.6557367,10.333277218058202,0.7197867598727253,jump
10/07/2020, 20:43:50,-9.064013,-3.1537402,3.6514473,-0.007326667,0.29673,0.6557367,10.268177418578732,0.7197867598727253,jump
10/07/2020, 20:43:50,-9.064013,-3.1537402,3.6514473,0.068382226,0.26986557,0.59346,10.268177418578732,0.65551381022528,jump
10/07/2020, 20:43:50,-9.025727,-3.1489546,3.6394832,0.068382226,0.26986557,0.59346,10.228661012619847,0.65551381022528,jump
10/07/2020, 20:43:50,-9.025727,-3.1489546,3.6394832,0.13310112,0.23567446,0.52996224,10.228661012619847,0.5950784275837884,jump
10/07/2020, 20:43:50,-8.932407,-3.1561332,3.65384,0.13310112,0.23567446,0.52996224,10.153798571244065,0.5950784275837884,jump
10/07/2020, 20:43:50,-8.932407,-3.1561332,3.65384,0.19049335,0.20514667,0.46768558,10.153798571244065,0.5450712548996965,jump
10/07/2020, 20:43:50,-8.85823,-3.1274192,3.641876,0.19049335,0.20514667,0.46768558,10.075328482769482,0.5450712548996965,jump
10/07/2020, 20:43:50,-8.85823,-3.1274192,3.641876,0.24422224,0.1746189,0.40052447,10.075328482769482,0.5005558019650861,jump
10/07/2020, 20:43:50,-8.774481,-3.103491,3.6323047,0.24422224,0.1746189,0.40052447,9.990836184626605,0.5005558019650861,jump
10/07/2020, 20:43:50,-8.774481,-3.103491,3.6323047,0.28574002,0.14409111,0.33214223,9.990836184626605,0.4612245338008225,jump
10/07/2020, 20:43:50,-8.709874,-3.0412776,3.5940197,0.28574002,0.14409111,0.33214223,9.900921913866613,0.4612245338008225,jump
10/07/2020, 20:43:51,-0.8757731,5.139783,-4.156333,0.036633335,-3.152909,-5.28619,6.667792029245684,6.1551590136364505,jump
10/07/2020, 20:43:51,-0.8757731,5.139783,-4.156333,0.03174889,-2.8903701,-4.976028,6.667792029245684,5.754659138252761,jump
10/07/2020, 20:43:51,-0.634098,4.912465,-4.601398,0.03174889,-2.8903701,-4.976028,6.760714241346286,5.754659138252761,jump
10/07/2020, 20:43:51,-0.634098,4.912465,-4.601398,0.18927222,-2.6546957,-4.6096945,6.760714241346286,5.322829764663073,jump
10/07/2020, 20:43:51,-0.35413775,5.0368915,-4.5894337,0.18927222,-2.6546957,-4.6096945,6.823385562949689,5.322829764663073,jump
10/07/2020, 20:43:51,-0.35413775,5.0368915,-4.5894337,0.56293225,-2.4019256,-4.3459344,6.823385562949689,4.997327772569775,jump
10/07/2020, 20:43:51,0.18424734,5.76431,-4.5631127,0.56293225,-2.4019256,-4.3459344,7.354129000214591,4.997327772569775,jump
10/07/2020, 20:43:51,0.18424734,5.76431,-4.5631127,1.075799,-2.1613667,-4.010129,7.354129000214591,4.680810172983329,jump
10/07/2020, 20:43:51,0.9738788,6.9224358,-4.6468616,1.075799,-2.1613667,-4.010129,8.394157436666259,4.680810172983329,jump
10/07/2020, 20:43:51,0.9738788,6.9224358,-4.6468616,1.5324945,-1.8695211,-3.3885834,8.394157436666259,4.162468790647232,jump
10/07/2020, 20:43:51,1.847259,8.590233,-4.551149,1.5324945,-1.8695211,-3.3885834,9.895323269721272,4.162468790647232,jump
10/07/2020, 20:43:51,1.847259,8.590233,-4.551149,1.691239,-1.5251678,-2.5509012,9.895323269721272,3.4195793663980805,jump
10/07/2020, 20:43:51,2.8881369,10.4016,-4.278367,1.691239,-1.5251678,-2.5509012,11.61202132454711,3.4195793663980805,jump
10/07/2020, 20:43:51,2.8881369,10.4016,-4.278367,1.3822979,-1.174709,-1.6338468,11.61202132454711,2.4413405727199806,jump
10/07/2020, 20:43:51,3.9050865,11.935399,-4.106084,1.3822979,-1.174709,-1.6338468,13.212243415422387,2.4413405727199806,jump
10/07/2020, 20:43:51,3.9050865,11.935399,-4.106084,0.54339445,-0.84623003,-0.7131289,13.212243415422387,1.2328567033101954,jump
10/07/2020, 20:43:51,4.6899323,12.428321,-4.098905,0.54339445,-0.84623003,-0.7131289,13.901785796607054,1.2328567033101954,jump
10/07/2020, 20:43:51,4.6899323,12.428321,-4.098905,-0.68626446,-0.51653004,0.17095557,13.901785796607054,0.8757785040177265,jump
10/07/2020, 20:43:51,4.9674997,11.600404,-4.1228333,-0.68626446,-0.51653004,0.17095557,13.275661023538198,0.8757785040177265,jump
10/07/2020, 20:43:51,4.9674997,11.600404,-4.1228333,-1.9501145,-0.17339778,0.96712005,13.275661023538198,2.183651644005161,jump
10/07/2020, 20:43:52,-6.029913,-2.9910283,1.1222339,0.3394689,0.04151778,-0.8853056,6.823892537689723,0.9490673494243904,jump
10/07/2020, 20:43:52,-6.0083776,-3.0723844,1.1964114,0.3394689,0.04151778,-0.8853056,6.853579109990406,0.9490673494243904,jump
10/07/2020, 20:43:52,-6.0083776,-3.0723844,1.1964114,0.47379112,0.15141778,-0.7009178,6.853579109990406,0.8594714106668747,jump
10/07/2020, 20:43:52,-6.1304116,-3.101098,1.2634103,0.47379112,0.15141778,-0.7009178,6.985339042151886,0.8594714106668747,jump
10/07/2020, 20:43:52,-6.1304116,-3.101098,1.2634103,0.58613336,0.22224224,-0.51775116,6.985339042151886,0.8130253311602816,jump
10/07/2020, 20:43:52,-6.302695,-3.0963125,1.3016955,0.58613336,0.22224224,-0.51775116,7.141815177974081,0.8130253311602816,jump
10/07/2020, 20:43:52,-6.302695,-3.0963125,1.3016955,0.6691689,0.26742333,-0.34191114,7.141815177974081,0.7976248909971495,jump
10/07/2020, 20:43:52,-6.4941206,-3.089134,1.3806586,0.6691689,0.26742333,-0.34191114,7.322743291671542,0.7976248909971495,jump
10/07/2020, 20:43:52,-6.4941206,-3.089134,1.3806586,0.7265611,0.28940335,-0.17217667,7.322743291671542,0.8008059564510094,jump
10/07/2020, 20:43:52,-6.6568327,-3.0867412,1.4691931,0.7265611,0.28940335,-0.17217667,7.483309507741981,0.8008059564510094,jump
10/07/2020, 20:43:52,-6.6568327,-3.0867412,1.4691931,0.76930004,0.3162678,0.0012211112,7.483309507741981,0.8317748265937208,jump
