DATE,TIME,ax,ay,az,gx,gy,gz,ma,mg,label
10/07/2020, 20:29:41,-3.2614172,0.74177504,9.698111,0.046402223,-0.23323223,0.8230289,10.258675395191505,0.8566954219590333,jump
10/07/2020, 20:29:41,-3.2614172,0.74177504,9.698111,-0.01099,-0.26498112,0.8327978,10.258675395191505,0.8740068606057717,jump
10/07/2020, 20:29:41,-3.2015967,0.6053841,9.662218,-0.01099,-0.26498112,0.8327978,10.196821567609655,0.8740068606057717,jump
10/07/2020, 20:29:41,-3.2015967,0.6053841,9.662218,-0.037854444,-0.28329778,0.8523356,10.196821567609655,0.8989808213813822,jump
10/07/2020, 20:29:41,-3.1561332,0.41156548,9.643075,-0.037854444,-0.28329778,0.8523356,10.154775133590531,0.8989808213813822,jump
10/07/2020, 20:29:41,-3.1561332,0.41156548,9.643075,-0.029306669,-0.29306668,0.8779789,10.154775133590531,0.9260636833520093,jump
10/07/2020, 20:29:41,-3.0915267,0.28235307,9.664611,-0.029306669,-0.29306668,0.8779789,10.150958773039175,0.9260636833520093,jump
10/07/2020, 20:29:41,-3.0915267,0.28235307,9.664611,-0.02075889,-0.31016225,0.9060645,10.150958773039175,0.9579062831980844,jump
10/07/2020, 20:29:41,-3.0795627,0.17467605,9.690931,-0.02075889,-0.31016225,0.9060645,10.169973833560995,0.9579062831980844,jump
10/07/2020, 20:29:41,-3.0795627,0.17467605,9.690931,-0.029306669,-0.34557447,0.92438114,10.169973833560995,0.9872998937878349,jump
10/07/2020, 20:29:41,-3.0604203,0.08135597,9.717253,-0.029306669,-0.34557447,0.92438114,10.18812012570135,0.9872998937878349,jump
10/07/2020, 20:29:41,-3.0604203,0.08135597,9.717253,-0.03297,-0.39686114,0.9280445,10.18812012570135,1.0098774046117693,jump
10/07/2020, 20:29:41,-2.9886355,-0.02871387,9.734002,-0.03297,-0.39686114,0.9280445,10.182512657489319,1.0098774046117693,jump
10/07/2020, 20:29:41,-2.9886355,-0.02871387,9.734002,-0.026864445,-0.43105224,0.9170545,10.182512657489319,1.0136649540144969,jump
10/07/2020, 20:29:41,-2.8594232,-0.19621146,9.71486,-0.026864445,-0.43105224,0.9170545,10.12883526558399,1.0136649540144969,jump
10/07/2020, 20:29:41,-2.8594232,-0.19621146,9.71486,-0.01099,-0.46158,0.9060645,10.12883526558399,1.0169217182496517,jump
10/07/2020, 20:29:41,-2.696711,-0.37806597,9.678967,-0.01099,-0.46158,0.9060645,10.054730023181873,1.0169217182496517,jump
10/07/2020, 20:29:41,-2.696711,-0.37806597,9.678967,0.015874445,-0.4798967,0.89263225,10.054730023181873,1.0135803677879147,jump
10/07/2020, 20:29:41,-2.5722845,-0.55034924,9.664611,0.015874445,-0.4798967,0.89263225,10.016198617868742,1.0135803677879147,jump
10/07/2020, 20:29:41,-2.5722845,-0.55034924,9.664611,0.04396,-0.49821335,0.8621045,10.016198617868742,0.9966810679843213,jump
10/07/2020, 20:29:42,-2.4478576,-0.8877372,9.958928,0.06349778,-0.54461557,0.7387723,10.293703577738729,0.9200122582120576,jump
10/07/2020, 20:29:42,-2.4478576,-0.8877372,9.958928,0.057392225,-0.58247,0.6667267,10.293703577738729,0.887180743602014,jump
10/07/2020, 20:29:42,-2.4382863,-0.9092726,10.109675,0.057392225,-0.58247,0.6667267,10.439231467265214,0.887180743602014,jump
10/07/2020, 20:29:42,-2.4382863,-0.9092726,10.109675,0.015874445,-0.6191034,0.59834445,10.439231467265214,0.8611370730004398,jump
10/07/2020, 20:29:42,-2.359323,-0.91884387,10.200603,0.015874445,-0.6191034,0.59834445,10.51013659227924,0.8611370730004398,jump
10/07/2020, 20:29:42,-2.359323,-0.91884387,10.200603,-0.057392225,-0.6423045,0.5336256,10.51013659227924,0.837021622455834,jump
10/07/2020, 20:29:42,-2.3018954,-0.9523434,10.171889,-0.057392225,-0.6423045,0.5336256,10.472488354529993,0.837021622455834,jump
10/07/2020, 20:29:42,-2.3018954,-0.9523434,10.171889,-0.14653334,-0.6789378,0.4591378,10.472488354529993,0.8326079889225467,jump
10/07/2020, 20:29:42,-2.2899313,-1.0456635,9.97807,-0.14653334,-0.6789378,0.4591378,10.290728037743754,0.8326079889225467,jump
10/07/2020, 20:29:42,-2.2899313,-1.0456635,9.97807,-0.24300112,-0.72900337,0.37366003,10.290728037743754,0.8544690007241414,jump
10/07/2020, 20:29:42,-2.268396,-1.1724831,9.848858,-0.24300112,-0.72900337,0.37366003,10.174494487888966,0.8544690007241414,jump
10/07/2020, 20:29:42,-2.268396,-1.1724831,9.848858,-0.2942878,-0.79250115,0.29673,10.174494487888966,0.8959420097105931,jump
10/07/2020, 20:29:42,-2.2325034,-1.3543376,9.803394,-0.2942878,-0.79250115,0.29673,10.145188115696467,0.8959420097105931,jump
10/07/2020, 20:29:42,-2.2325034,-1.3543376,9.803394,-0.28329778,-0.83401895,0.23323223,10.145188115696467,0.9111764403318524,jump
10/07/2020, 20:29:42,-2.091327,-1.4620147,9.781859,-0.28329778,-0.83401895,0.23323223,10.10919920718054,0.9111764403318524,jump
10/07/2020, 20:29:42,-2.091327,-1.4620147,9.781859,-0.22346334,-0.85722005,0.1856089,10.10919920718054,0.9051037215980544,jump
10/07/2020, 20:29:42,-1.9334008,-1.4955142,9.77468,-0.22346334,-0.85722005,0.1856089,10.075662402040631,0.9051037215980544,jump
10/07/2020, 20:29:42,-1.9334008,-1.4955142,9.77468,-0.15630223,-0.8645467,0.12821667,10.075662402040631,0.8878687545865632,jump
10/07/2020, 20:29:42,-1.7395821,-1.4093726,9.688539,-0.15630223,-0.8645467,0.12821667,9.94385519031934,0.8878687545865632,jump
10/07/2020, 20:29:42,-1.7395821,-1.4093726,9.688539,-0.10501556,-0.86576784,0.06349778,9.94385519031934,0.8744221996135002,jump
10/07/2020, 20:29:44,-0.53359944,-2.7278178,9.040084,-0.036633335,0.007326667,-0.3260367,9.457739413670064,0.32817008639068684,jump
10/07/2020, 20:29:44,-0.50009996,-2.9742785,9.272188,-0.036633335,0.007326667,-0.3260367,9.750379789205967,0.32817008639068684,jump
10/07/2020, 20:29:44,-0.50009996,-2.9742785,9.272188,0.04029667,0.018316668,-0.30772,9.750379789205967,0.31088731675450715,jump
10/07/2020, 20:29:44,-0.43070808,-3.182454,9.470792,0.04029667,0.018316668,-0.30772,10.000471051067269,0.31088731675450715,jump
10/07/2020, 20:29:44,-0.43070808,-3.182454,9.470792,0.14897557,0.04396,-0.26986557,10.000471051067269,0.31137377568605173,jump
10/07/2020, 20:29:44,-0.4019942,-3.1609187,9.58804,0.14897557,0.04396,-0.26986557,10.103639157872033,0.31137377568605173,jump
10/07/2020, 20:29:44,-0.4019942,-3.1609187,9.58804,0.25765446,0.05372889,-0.21980001,10.103639157872033,0.34290619416632456,jump
10/07/2020, 20:29:44,-0.43788654,-2.9192436,9.65504,0.25765446,0.05372889,-0.21980001,10.096213198912215,0.34290619416632456,jump
10/07/2020, 20:29:44,-0.43788654,-2.9192436,9.65504,0.32237336,0.05617111,-0.17950334,10.096213198912215,0.37323079337245785,jump
10/07/2020, 20:29:44,-0.4761717,-2.605784,9.662218,0.32237336,0.05617111,-0.17950334,10.018747822063826,0.37323079337245785,jump
10/07/2020, 20:29:44,-0.4761717,-2.605784,9.662218,0.3162678,0.035412222,-0.16851334,10.018747822063826,0.3601056596945458,jump
10/07/2020, 20:29:44,-0.6053841,-2.28036,9.564112,0.3162678,0.035412222,-0.16851334,9.850825567943104,0.3601056596945458,jump
10/07/2020, 20:29:44,-0.6053841,-2.28036,9.564112,0.2503278,0.0036633336,-0.16607112,9.850825567943104,0.30042809657479574,jump
10/07/2020, 20:29:44,-0.6771688,-2.0697916,9.444471,0.2503278,0.0036633336,-0.16607112,9.692297658657521,0.30042809657479574,jump
10/07/2020, 20:29:44,-0.6771688,-2.0697916,9.444471,0.16729222,-0.03052778,-0.16729222,9.692297658657521,0.23854836130144821,jump
10/07/2020, 20:29:44,-0.71306115,-2.0458634,9.341579,0.16729222,-0.03052778,-0.16729222,9.589531771789565,0.23854836130144821,jump
10/07/2020, 20:29:44,-0.71306115,-2.0458634,9.341579,0.10501556,-0.054950003,-0.15141778,9.589531771789565,0.19228914167650085,jump
10/07/2020, 20:29:44,-0.6628119,-2.143969,9.322437,0.10501556,-0.054950003,-0.15141778,9.588730878819987,0.19228914167650085,jump
10/07/2020, 20:29:44,-0.6628119,-2.143969,9.322437,0.07326667,-0.059834447,-0.12089001,9.588730878819987,0.15350100853246262,jump
10/07/2020, 20:29:44,-0.57906306,-2.2301106,9.346365,0.07326667,-0.059834447,-0.12089001,9.626175032728666,0.15350100853246262,jump
10/07/2020, 20:29:45,-0.49052864,-2.9048867,9.286545,-0.013432222,-0.02198,0.03174889,9.742633090671347,0.04088443591405653,jump
10/07/2020, 20:29:45,-0.49052864,-2.9048867,9.286545,-0.054950003,-0.04029667,0.045181114,9.742633090671347,0.08175975466858144,jump
10/07/2020, 20:29:45,-0.4953143,-2.7637103,9.413364,-0.054950003,-0.04029667,0.045181114,9.823179738874204,0.08175975466858144,jump
10/07/2020, 20:29:45,-0.4953143,-2.7637103,9.413364,-0.13310112,-0.07204556,0.036633335,9.823179738874204,0.1557192083597451,jump
10/07/2020, 20:29:45,-0.55752766,-2.806781,9.485149,-0.13310112,-0.07204556,0.036633335,9.907417211555794,0.1557192083597451,jump
10/07/2020, 20:29:45,-0.55752766,-2.806781,9.485149,-0.1856089,-0.12455334,0.017095556,9.907417211555794,0.2241795115027178,jump
10/07/2020, 20:29:45,-0.6580262,-2.955136,9.568898,-0.1856089,-0.12455334,0.017095556,10.036415715898942,0.2241795115027178,jump
10/07/2020, 20:29:45,-0.6580262,-2.955136,9.568898,-0.18683001,-0.1526389,0.013432222,10.036415715898942,0.24162887181717807,jump
10/07/2020, 20:29:45,-0.6436693,-3.2231321,9.6071825,-0.18683001,-0.1526389,0.013432222,10.153858703372274,0.24162887181717807,jump
10/07/2020, 20:29:45,-0.6436693,-3.2231321,9.6071825,-0.13554333,-0.13920668,0.012211111,10.153858703372274,0.19467820901564908,jump
10/07/2020, 20:29:45,-0.53599226,-3.414558,9.616755,-0.13554333,-0.13920668,0.012211111,10.219024479726661,0.19467820901564908,jump
10/07/2020, 20:29:45,-0.53599226,-3.414558,9.616755,-0.07693,-0.13310112,0.034191113,10.219024479726661,0.15749020801453248,jump
10/07/2020, 20:29:45,-0.4139583,-3.4719856,9.580862,-0.07693,-0.13310112,0.034191113,10.198968716087112,0.15749020801453248,jump
10/07/2020, 20:29:45,-0.4139583,-3.4719856,9.580862,-0.05617111,-0.12089001,0.046402223,10.198968716087112,0.1411479854153669,jump
10/07/2020, 20:29:45,-0.36370903,-3.3643086,9.523434,-0.05617111,-0.12089001,0.046402223,10.1067623770187,0.1411479854153669,jump
10/07/2020, 20:29:45,-0.36370903,-3.3643086,9.523434,-0.04151778,-0.109900005,0.04396,10.1067623770187,0.1254361145877004,jump
10/07/2020, 20:29:45,-0.4019942,-3.1848469,9.4636135,-0.04151778,-0.109900005,0.04396,9.993239196650018,0.1254361145877004,jump
10/07/2020, 20:29:45,-0.4019942,-3.1848469,9.4636135,-0.059834447,-0.11478445,0.03297,9.993239196650018,0.13357638912895103,jump
10/07/2020, 20:29:45,-0.42592242,-3.0963125,9.363115,-0.059834447,-0.11478445,0.03297,9.870992324543854,0.13357638912895103,jump
10/07/2020, 20:29:45,-0.42592242,-3.0963125,9.363115,-0.07204556,-0.12577444,0.019537779,9.870992324543854,0.1462583250740692,jump
10/07/2020, 20:29:46,-6.4941206,-3.5653057,1.4189439,-0.13798556,-0.10867889,0.036633335,7.5431033987427005,0.17942440438021587,jump
10/07/2020, 20:29:46,-6.4941206,-3.5653057,1.4189439,-0.117226675,-0.081814446,0.039075557,7.5431033987427005,0.1481978273622053,jump
10/07/2020, 20:29:46,-6.8745794,-3.4025939,1.3423735,-0.117226675,-0.081814446,0.039075557,7.787133865374702,0.1481978273622053,jump
10/07/2020, 20:29:46,-6.8745794,-3.4025939,1.3423735,-0.09036223,-0.11966889,0.037854444,7.787133865374702,0.15465747752618791,jump
10/07/2020, 20:29:46,-7.283752,-3.2757742,1.2634103,-0.09036223,-0.11966889,0.037854444,8.08578661711644,0.15465747752618791,jump
10/07/2020, 20:29:46,-7.283752,-3.2757742,1.2634103,-0.06227667,-0.18805112,0.046402223,8.08578661711644,0.20345705528448516,jump
10/07/2020, 20:29:46,-7.556534,-3.1082766,1.2035898,-0.06227667,-0.18805112,0.046402223,8.259008120268634,0.20345705528448516,jump
10/07/2020, 20:29:46,-7.556534,-3.1082766,1.2035898,-0.018316668,-0.21980001,0.09036223,8.259008120268634,0.23835451994568013,jump
10/07/2020, 20:29:46,-7.7503524,-2.9240294,1.1916257,-0.018316668,-0.21980001,0.09036223,8.368863814144152,0.23835451994568013,jump
10/07/2020, 20:29:46,-7.7503524,-2.9240294,1.1916257,0.015874445,-0.19537778,0.14042778,8.368863814144152,0.2411315781631801,jump
10/07/2020, 20:29:46,-7.9633136,-2.7613173,1.2969099,0.015874445,-0.19537778,0.14042778,8.527673275924219,0.2411315781631801,jump
10/07/2020, 20:29:46,-7.9633136,-2.7613173,1.2969099,0.045181114,-0.12821667,0.1746189,8.527673275924219,0.2212975541165365,jump
10/07/2020, 20:29:46,-8.274381,-2.658426,1.4548361,0.045181114,-0.12821667,0.1746189,8.811875675000925,0.2212975541165365,jump
10/07/2020, 20:29:46,-8.274381,-2.658426,1.4548361,0.08425667,-0.089141116,0.19293556,8.811875675000925,0.228625138571707,jump
10/07/2020, 20:29:46,-8.69791,-2.6392834,1.7300107,0.08425667,-0.089141116,0.19293556,9.25269679025852,0.228625138571707,jump
10/07/2020, 20:29:46,-8.69791,-2.6392834,1.7300107,0.15508112,-0.081814446,0.20514667,9.25269679025852,0.26986832826378987,jump
10/07/2020, 20:29:46,-9.188439,-2.6632116,1.9669002,0.15508112,-0.081814446,0.20514667,9.766719536044784,0.26986832826378987,jump
10/07/2020, 20:29:46,-9.188439,-2.6632116,1.9669002,0.27230778,-0.09524667,0.22346334,9.766719536044784,0.36491001981952037,jump
10/07/2020, 20:29:46,-9.602397,-2.7230322,2.0793629,0.27230778,-0.09524667,0.22346334,10.195326477110038,0.36491001981952037,jump
10/07/2020, 20:29:46,-9.602397,-2.7230322,2.0793629,0.41151446,-0.09646778,0.23201112,10.195326477110038,0.4821611201064716,jump
10/07/2020, 20:29:47,-0.02632105,-0.25124636,1.1174482,-1.9134812,1.8145711,4.7073836,1.145647431008892,5.395696390064381,jump
10/07/2020, 20:29:47,-0.56470615,-0.19381863,1.3567305,-1.9134812,1.8145711,4.7073836,1.4822875015117114,5.395696390064381,jump
10/07/2020, 20:29:47,-0.56470615,-0.19381863,1.3567305,-2.0917635,1.9818634,5.04441,1.4822875015117114,5.809417486761739,jump
10/07/2020, 20:29:47,-1.0480564,-0.2321038,1.3734802,-2.0917635,1.9818634,5.04441,1.7431988342448366,5.809417486761739,jump
10/07/2020, 20:29:47,-1.0480564,-0.2321038,1.3734802,-2.2346334,2.1564822,5.320381,1.7431988342448366,6.160394300431637,jump
10/07/2020, 20:29:47,-1.4787644,-0.2727818,1.3184453,-2.2346334,2.1564822,5.320381,1.9998630387507117,6.160394300431637,jump
10/07/2020, 20:29:47,-1.4787644,-0.2727818,1.3184453,-2.3555233,2.294468,5.545066,1.9998630387507117,6.446768874204436,jump
10/07/2020, 20:29:47,-1.9214365,-0.22971097,1.0624132,-2.3555233,2.294468,5.545066,2.2075795291918907,6.446768874204436,jump
10/07/2020, 20:29:47,-1.9214365,-0.22971097,1.0624132,-2.416579,2.4092524,5.746549,2.2075795291918907,6.683350817651255,jump
10/07/2020, 20:29:47,-2.3018954,-0.2727818,0.7752745,-2.416579,2.4092524,5.746549,2.4442141516195868,6.683350817651255,jump
10/07/2020, 20:29:47,-2.3018954,-0.2727818,0.7752745,-2.4764135,2.4751923,5.946811,2.4442141516195868,6.900997331397228,jump
10/07/2020, 20:29:47,-2.7014968,-0.43788654,0.567099,-2.4764135,2.4751923,5.946811,2.7948937439771893,6.900997331397228,jump
10/07/2020, 20:29:47,-2.7014968,-0.43788654,0.567099,-2.5277002,2.5411322,6.1788225,2.7948937439771893,7.143141385126192,jump
10/07/2020, 20:29:47,-3.1633115,-0.76570326,0.55513483,-2.5277002,2.5411322,6.1788225,3.3016686228695,7.143141385126192,jump
10/07/2020, 20:29:47,-3.1633115,-0.76570326,0.55513483,-2.4922879,2.6864445,6.434035,3.3016686228695,7.4044099787464575,jump
10/07/2020, 20:29:47,-3.8763726,-1.3136597,0.83748794,-2.4922879,2.6864445,6.434035,4.177720923222371,7.4044099787464575,jump
10/07/2020, 20:29:47,-3.8763726,-1.3136597,0.83748794,-2.339649,2.9489834,6.7173324,4.177720923222371,7.70019575190931,jump
10/07/2020, 20:29:47,-5.003392,-1.8951155,1.375873,-2.339649,2.9489834,6.7173324,5.524348185034842,7.70019575190931,jump
10/07/2020, 20:29:47,-5.003392,-1.8951155,1.375873,-2.0062857,3.43987,6.917595,5.524348185034842,7.9819175609497774,jump
10/07/2020, 20:29:47,-6.5108705,-2.3952155,1.969293,-2.0062857,3.43987,6.917595,7.211560605219704,7.9819175609497774,jump
10/07/2020, 20:29:48,-4.0797625,-2.7708886,-0.70588267,0.18194556,-2.810998,-5.0578423,4.9820232348410105,5.789350741507225,jump
10/07/2020, 20:29:48,-4.0797625,-2.7708886,-0.70588267,0.8633256,-2.7536056,-4.8075147,4.9820232348410105,5.607126910113501,jump
10/07/2020, 20:29:48,-4.168297,-1.5290136,-1.4715859,0.8633256,-2.7536056,-4.8075147,4.6774080422386355,5.607126910113501,jump
10/07/2020, 20:29:48,-4.168297,-1.5290136,-1.4715859,1.2907145,-2.8256512,-4.74768,4.6774080422386355,5.673686245694332,jump
10/07/2020, 20:29:48,-3.8069808,-0.47138608,-1.9094725,1.2907145,-2.8256512,-4.74768,4.285019615789442,5.673686245694332,jump
10/07/2020, 20:29:48,-3.8069808,-0.47138608,-1.9094725,1.4323634,-2.790239,-4.724479,4.285019615789442,5.670785024262676,jump
10/07/2020, 20:29:48,-3.1393833,0.27517462,-2.115255,1.4323634,-2.790239,-4.724479,3.7954911259348427,5.670785024262676,jump
10/07/2020, 20:29:48,-3.1393833,0.27517462,-2.115255,1.3676445,-2.6070724,-4.5816092,3.7954911259348427,5.445954569959089,jump
10/07/2020, 20:29:48,-2.416751,0.7728817,-2.2229323,1.3676445,-2.6070724,-4.5816092,3.3733454070026077,5.445954569959089,jump
10/07/2020, 20:29:48,-2.416751,0.7728817,-2.2229323,1.185699,-2.4080312,-4.303196,3.3733454070026077,5.071685309656002,jump
10/07/2020, 20:29:48,-1.7826529,1.0408778,-2.2995026,1.185699,-2.4080312,-4.303196,3.090144024814881,5.071685309656002,jump
10/07/2020, 20:29:48,-1.7826529,1.0408778,-2.2995026,0.9170545,-2.2785935,-3.9502945,3.090144024814881,4.651645302968711,jump
10/07/2020, 20:29:48,-1.2370893,1.2849457,-2.28036,0.9170545,-2.2785935,-3.9502945,2.8950849817309567,4.651645302968711,jump
10/07/2020, 20:29:48,-1.2370893,1.2849457,-2.28036,0.5836911,-2.1259546,-3.6059413,2.8950849817309567,4.226486842698005,jump
10/07/2020, 20:29:48,-0.60059845,1.605584,-2.1487548,0.5836911,-2.1259546,-3.6059413,2.748775346872246,4.226486842698005,jump
10/07/2020, 20:29:48,-0.60059845,1.605584,-2.1487548,0.2613178,-1.922029,-3.3226435,2.748775346872246,3.8473942461620854,jump
10/07/2020, 20:29:48,-0.0023928226,2.012364,-1.9405792,0.2613178,-1.922029,-3.3226435,2.795614739679782,3.8473942461620854,jump
10/07/2020, 20:29:48,-0.0023928226,2.012364,-1.9405792,0.017095556,-1.7327567,-3.0808635,2.795614739679782,3.5347500496390705,jump
10/07/2020, 20:29:48,0.5599205,2.1702902,-1.6223338,0.017095556,-1.7327567,-3.0808635,2.766882268885596,3.5347500496390705,jump
10/07/2020, 20:29:48,0.5599205,2.1702902,-1.6223338,-0.20148334,-1.5569167,-2.84641,2.766882268885596,3.2506361351132766,jump
10/07/2020, 20:29:49,-8.831908,-0.3804588,3.1393833,-2.404368,-0.4798967,-1.74741,9.380995651728956,3.0107686500656334,jump
10/07/2020, 20:29:49,-8.99462,-0.6556334,3.278167,-2.404368,-0.4798967,-1.74741,9.595802667907206,3.0107686500656334,jump
10/07/2020, 20:29:49,-8.99462,-0.6556334,3.278167,-2.2676034,-0.27841336,-2.0343711,9.595802667907206,3.0591183517111586,jump
10/07/2020, 20:29:49,-9.382257,-0.83988076,3.1082766,-2.2676034,-0.27841336,-2.0343711,9.91935170413265,3.0591183517111586,jump
10/07/2020, 20:29:49,-9.382257,-0.83988076,3.1082766,-2.184568,-0.17217667,-2.2822568,9.91935170413265,3.1639655705764915,jump
10/07/2020, 20:29:49,-9.927821,-1.0049855,2.7445676,-2.184568,-0.17217667,-2.2822568,10.34911977999796,3.1639655705764915,jump
10/07/2020, 20:29:49,-9.927821,-1.0049855,2.7445676,-2.1503768,-0.17706113,-2.4800768,10.34911977999796,3.2872864027455675,jump
10/07/2020, 20:29:49,-10.394422,-1.2131611,2.400001,-2.1503768,-0.17706113,-2.4800768,10.736655198253386,3.2872864027455675,jump
10/07/2020, 20:29:49,-10.394422,-1.2131611,2.400001,-2.1381657,-0.24666445,-2.6156201,10.736655198253386,3.387338876078705,jump
10/07/2020, 20:29:49,-10.688739,-1.4931214,2.1631117,-2.1381657,-0.24666445,-2.6156201,11.007161362775907,3.387338876078705,jump
10/07/2020, 20:29:49,-10.688739,-1.4931214,2.1631117,-2.0917635,-0.3162678,-2.6827812,11.007161362775907,3.4165501475114515,jump
10/07/2020, 20:29:49,-10.750952,-1.8999012,2.0578275,-2.0917635,-0.3162678,-2.6827812,11.109781374495174,3.4165501475114515,jump
10/07/2020, 20:29:49,-10.750952,-1.8999012,2.0578275,-1.9867479,-0.32970002,-2.7084246,11.109781374495174,3.375119673352229,jump
10/07/2020, 20:29:49,-10.703095,-2.3832514,2.1367905,-1.9867479,-0.32970002,-2.7084246,11.171482130264286,3.375119673352229,jump
10/07/2020, 20:29:49,-10.703095,-2.3832514,2.1367905,-1.8170134,-0.32115224,-2.713309,11.171482130264286,3.2812684123120888,jump
10/07/2020, 20:29:49,-10.607383,-2.8761728,2.3521447,-1.8170134,-0.32115224,-2.713309,11.239284851046722,3.2812684123120888,jump
10/07/2020, 20:29:49,-10.607383,-2.8761728,2.3521447,-1.5874445,-0.2942878,-2.6925502,11.239284851046722,3.1394923114874116,jump
10/07/2020, 20:29:49,-10.636097,-3.330809,2.605784,-1.5874445,-0.2942878,-2.6925502,11.446001822930443,3.1394923114874116,jump
10/07/2020, 20:29:49,-10.636097,-3.330809,2.605784,-1.2882723,-0.25521225,-2.6412635,11.446001822930443,2.949754482702357,jump
10/07/2020, 20:29:49,-10.782059,-3.76391,2.7972097,-1.2882723,-0.25521225,-2.6412635,11.757729006169695,2.949754482702357,jump
10/07/2020, 20:29:50,-4.6564326,-2.5866413,1.5864414,-1.8426567,2.4129157,7.336436,5.557865994095891,7.939825955870971,jump
10/07/2020, 20:29:50,-5.3407803,-2.605784,1.9573289,-1.8426567,2.4129157,7.336436,6.256610918749416,7.939825955870971,jump
10/07/2020, 20:29:50,-5.3407803,-2.605784,1.9573289,-1.5337156,2.5106046,7.446336,6.256610918749416,8.006455885872748,jump
10/07/2020, 20:29:50,-6.070591,-3.1513474,2.2827528,-1.5337156,2.5106046,7.446336,7.210688269234079,8.006455885872748,jump
10/07/2020, 20:29:50,-6.070591,-3.1513474,2.2827528,-1.1576134,2.6571379,7.644156,7.210688269234079,8.17518018603528,jump
10/07/2020, 20:29:50,-6.9152575,-3.8237305,2.457429,-1.1576134,2.6571379,7.644156,8.275304061385665,8.17518018603528,jump
10/07/2020, 20:29:50,-6.9152575,-3.8237305,2.457429,-0.6935911,2.8195457,7.943328,8.275304061385665,8.457385236476222,jump
10/07/2020, 20:29:50,-7.920243,-4.409972,2.589034,-0.6935911,2.8195457,7.943328,9.427682535479722,8.457385236476222,jump
10/07/2020, 20:29:50,-7.920243,-4.409972,2.589034,-0.13676445,3.0137024,8.291345,9.427682535479722,8.8231231777271,jump
10/07/2020, 20:29:50,-9.142975,-4.6779685,2.7469604,-0.13676445,3.0137024,8.291345,10.631235578508393,8.8231231777271,jump
10/07/2020, 20:29:50,-9.142975,-4.6779685,2.7469604,0.4151778,3.2896736,8.630814,10.631235578508393,9.245824362910843,jump
10/07/2020, 20:29:50,-10.671989,-4.706682,2.8570302,0.4151778,3.2896736,8.630814,12.008615128503898,9.245824362910843,jump
10/07/2020, 20:29:50,-10.671989,-4.706682,2.8570302,0.8437878,3.6462379,8.920217,12.008615128503898,9.673535639950257,jump
10/07/2020, 20:29:50,-12.653246,-4.421936,2.9216363,0.8437878,3.6462379,8.920217,13.718385826370183,9.673535639950257,jump
10/07/2020, 20:29:50,-12.653246,-4.421936,2.9216363,1.130749,3.9954758,9.129027,13.718385826370183,10.029035873596595,jump
10/07/2020, 20:29:50,-15.495919,-4.0677986,3.0460632,1.130749,3.9954758,9.129027,16.3079428255641,10.029035873596595,jump
10/07/2020, 20:29:50,-15.495919,-4.0677986,3.0460632,1.3664234,4.14323,9.224274,16.3079428255641,10.203954737682269,jump
10/07/2020, 20:29:50,-19.398613,-4.213761,3.591627,1.3664234,4.14323,9.224274,20.173292978185255,10.203954737682269,jump
10/07/2020, 20:29:50,-19.398613,-4.213761,3.591627,1.7156612,3.9698324,9.119258,20.173292978185255,10.092766113779248,jump
10/07/2020, 20:29:50,-23.93062,-5.2737813,4.369294,1.7156612,3.9698324,9.119258,24.891325468013083,10.092766113779248,jump
10/07/2020, 20:29:51,-7.152147,-1.3040884,1.4476577,0.25399113,0.31993112,1.2369856,7.412797268612447,1.3026897942564548,jump
10/07/2020, 20:29:51,-7.152147,-1.3040884,1.4476577,0.3284789,0.35778558,1.6106457,7.412797268612447,1.6822866367632905,jump
10/07/2020, 20:29:51,-6.795616,-0.10289137,0.94277215,0.3284789,0.35778558,1.6106457,6.861472496327524,1.6822866367632905,jump
10/07/2020, 20:29:51,-6.795616,-0.10289137,0.94277215,0.4371578,0.39197668,2.0661201,6.861472496327524,2.1479304310019933,jump
10/07/2020, 20:29:51,-6.0921264,1.5529419,0.55513483,0.4371578,0.39197668,2.0661201,6.311402933275809,2.1479304310019933,jump
10/07/2020, 20:29:51,-6.0921264,1.5529419,0.55513483,0.54461557,0.41151446,2.5313635,6.311402933275809,2.621784005542977,jump
10/07/2020, 20:29:51,-5.127819,3.2303107,0.7106683,0.54461557,0.41151446,2.5313635,6.1020066267987385,2.621784005542977,jump
10/07/2020, 20:29:51,-5.127819,3.2303107,0.7106683,0.6007867,0.5262989,2.955089,6.1020066267987385,3.061125070438341,jump
10/07/2020, 20:29:51,-4.2592244,3.7854455,1.9094725,0.6007867,0.5262989,2.955089,6.009715049857001,3.061125070438341,jump
10/07/2020, 20:29:51,-4.2592244,3.7854455,1.9094725,0.45059,0.8083756,3.3214223,6.009715049857001,3.4479484940390615,jump
10/07/2020, 20:29:51,-4.3740797,2.2875385,3.8691943,0.45059,0.8083756,3.3214223,6.271847420912043,3.4479484940390615,jump
10/07/2020, 20:29:51,-4.3740797,2.2875385,3.8691943,0.13676445,1.1905833,3.5326746,6.271847420912043,3.7304132087257384,jump
10/07/2020, 20:29:51,-5.6997037,-0.6125626,5.639883,0.13676445,1.1905833,3.5326746,8.041774421600287,3.7304132087257384,jump
10/07/2020, 20:29:51,-5.6997037,-0.6125626,5.639883,-0.05372889,1.4543434,3.3482869,8.041774421600287,3.6508939418099957,jump
10/07/2020, 20:29:51,-8.161918,-4.642076,6.855437,-0.05372889,1.4543434,3.3482869,11.625953027558623,3.6508939418099957,jump
10/07/2020, 20:29:51,-8.161918,-4.642076,6.855437,0.5788067,1.3627601,2.8647268,11.625953027558623,3.2247157593833315,jump
10/07/2020, 20:29:51,-11.157732,-8.891729,7.1808605,0.5788067,1.3627601,2.8647268,15.972557475987761,3.2247157593833315,jump
10/07/2020, 20:29:51,-11.157732,-8.891729,7.1808605,2.1931157,1.01108,2.6327157,15.972557475987761,3.572566487955921,jump
10/07/2020, 20:29:51,-13.5074835,-11.894721,6.1495543,2.1931157,1.01108,2.6327157,19.019819030212464,3.572566487955921,jump
10/07/2020, 20:29:51,-13.5074835,-11.894721,6.1495543,4.0174556,0.6838223,2.9184556,19.019819030212464,5.012478959176386,jump
10/07/2020, 20:29:52,-18.003597,6.903293,-4.3788652,-2.8415256,1.0159645,1.0489345,19.772694079659416,3.1947949637053066,jump
10/07/2020, 20:29:52,-17.058434,5.6327047,0.23449662,-2.8415256,1.0159645,1.0489345,17.965870585246975,3.1947949637053066,jump
10/07/2020, 20:29:52,-17.058434,5.6327047,0.23449662,-3.624258,0.89385337,0.5262989,17.965870585246975,3.769775948620483,jump
10/07/2020, 20:29:52,-15.818951,4.0941195,4.907679,-3.624258,0.89385337,0.5262989,17.06125225785109,3.769775948620483,jump
10/07/2020, 20:29:52,-15.818951,4.0941195,4.907679,-3.723168,0.95735115,0.31871,17.06125225785109,3.857470216127734,jump
10/07/2020, 20:29:52,-13.883157,3.5820556,8.489735,-3.723168,0.95735115,0.31871,16.662795641719647,3.857470216127734,jump
10/07/2020, 20:29:52,-13.883157,3.5820556,8.489735,-3.8477213,1.130749,-0.2613178,16.662795641719647,4.018935152024865,jump
10/07/2020, 20:29:52,-11.739188,3.5294135,9.578469,-3.8477213,1.130749,-0.2613178,15.556746848991509,4.018935152024865,jump
10/07/2020, 20:29:52,-11.739188,3.5294135,9.578469,-4.3776836,1.1783723,-1.229659,15.556746848991509,4.697311614234375,jump
10/07/2020, 20:29:52,-10.076176,2.8833513,9.145369,-4.3776836,1.1783723,-1.229659,13.909737516952884,4.697311614234375,jump
10/07/2020, 20:29:52,-10.076176,2.8833513,9.145369,-5.140878,1.1258645,-2.15404,13.909737516952884,5.686482946659951,jump
10/07/2020, 20:29:52,-9.059227,1.4404793,8.441878,-5.140878,1.1258645,-2.15404,12.466350057371134,5.686482946659951,jump
10/07/2020, 20:29:52,-9.059227,1.4404793,8.441878,-5.799057,1.1686034,-2.7108667,12.466350057371134,6.507187897363818,jump
10/07/2020, 20:29:52,-8.616554,-0.52163535,7.690532,-5.799057,1.1686034,-2.7108667,11.5612022037682,6.507187897363818,jump
10/07/2020, 20:29:52,-8.616554,-0.52163535,7.690532,-6.13242,1.28583,-2.9379935,11.5612022037682,6.920385873164034,jump
10/07/2020, 20:29:52,-8.774481,-2.7230322,7.1162543,-6.13242,1.28583,-2.9379935,11.620993670890014,6.920385873164034,jump
10/07/2020, 20:29:52,-8.774481,-2.7230322,7.1162543,-6.029847,1.4250367,-2.8842645,11.620993670890014,6.834381290825007,jump
10/07/2020, 20:29:52,-9.272188,-5.2929235,6.8410797,-6.029847,1.4250367,-2.8842645,12.6802556774643,6.834381290825007,jump
10/07/2020, 20:29:52,-9.272188,-5.2929235,6.8410797,-5.5096536,1.5923289,-2.5557857,12.6802556774643,6.278840188019404,jump
10/07/2020, 20:29:52,-9.970892,-7.5110703,6.5108705,-5.5096536,1.5923289,-2.5557857,14.079286088258614,6.278840188019404,jump
10/07/2020, 20:29:53,-11.830115,-10.1599245,10.657632,6.8150215,0.5104245,0.4798967,18.88811297082228,6.850938056251835,jump
10/07/2020, 20:29:53,-12.725031,-9.226724,9.815358,6.8150215,0.5104245,0.4798967,18.531057631146126,6.850938056251835,jump
10/07/2020, 20:29:53,-12.725031,-9.226724,9.815358,6.35222,0.26864445,0.5788067,18.531057631146126,6.384190372046125,jump
10/07/2020, 20:29:53,-13.454842,-7.24786,8.240881,6.35222,0.26864445,0.5788067,17.363074493745792,6.384190372046125,jump
10/07/2020, 20:29:53,-13.454842,-7.24786,8.240881,5.1653004,-0.2942878,0.68504333,17.363074493745792,5.218832971572562,jump
10/07/2020, 20:29:53,-14.024334,-4.1754756,6.4677997,5.1653004,-0.2942878,0.68504333,15.998405289321287,5.218832971572562,jump
10/07/2020, 20:29:53,-14.024334,-4.1754756,6.4677997,3.4862723,-1.2089001,0.52752,15.998405289321287,3.727440352693743,jump
10/07/2020, 20:29:53,-14.531611,-1.2131611,5.9294147,3.4862723,-1.2089001,0.52752,15.74158347390896,3.727440352693743,jump
10/07/2020, 20:29:53,-14.531611,-1.2131611,5.9294147,1.6301835,-2.0307078,-0.017095556,15.74158347390896,2.6041437521120203,jump
10/07/2020, 20:29:53,-14.574683,0.7920243,6.606583,1.6301835,-2.0307078,-0.017095556,16.021723786365634,2.6041437521120203,jump
10/07/2020, 20:29:53,-14.574683,0.7920243,6.606583,0.04029667,-2.449549,-0.7998278,16.021723786365634,2.5771376486235518,jump
10/07/2020, 20:29:53,-14.35215,1.4644074,7.9106717,0.04029667,-2.449549,-0.7998278,16.453188890062318,2.5771376486235518,jump
10/07/2020, 20:29:53,-14.35215,1.4644074,7.9106717,-0.8230289,-2.6632435,-1.6570479,16.453188890062318,3.2428460269309958,jump
10/07/2020, 20:29:53,-14.277973,0.53359944,9.030513,-0.8230289,-2.6632435,-1.6570479,16.902526673634807,3.2428460269309958,jump
10/07/2020, 20:29:53,-14.277973,0.53359944,9.030513,-1.0416079,-2.933109,-2.5435746,16.902526673634807,4.01968247484946,jump
10/07/2020, 20:29:53,-14.596218,-1.4261223,9.930214,-1.0416079,-2.933109,-2.5435746,17.71136800437299,4.01968247484946,jump
10/07/2020, 20:29:53,-14.596218,-1.4261223,9.930214,-0.9842156,-3.1712258,-3.3189802,17.71136800437299,4.694782534785056,jump
10/07/2020, 20:29:53,-15.292529,-3.562913,10.978271,-0.9842156,-3.1712258,-3.3189802,19.159285449420864,4.694782534785056,jump
10/07/2020, 20:29:53,-15.292529,-3.562913,10.978271,-1.064809,-3.3556135,-3.9502945,19.159285449420864,5.291387954613516,jump
10/07/2020, 20:29:53,-16.347765,-5.556134,11.765509,-1.064809,-3.3556135,-3.9502945,20.893712949734645,5.291387954613516,jump
10/07/2020, 20:29:54,-7.594819,-7.7096744,3.414558,1.1844778,-0.31504667,-0.07693,11.348108268996281,1.2280717818132616,jump
10/07/2020, 20:29:54,-7.190432,-6.9583282,3.505485,1.1844778,-0.31504667,-0.07693,10.602314410645409,1.2280717818132616,jump
10/07/2020, 20:29:54,-7.190432,-6.9583282,3.505485,1.7290934,-0.36999667,0.012211111,10.602314410645409,1.7682790342093948,jump
10/07/2020, 20:29:54,-6.936793,-6.161518,3.5844483,1.7290934,-0.36999667,0.012211111,9.94644007642886,1.7682790342093948,jump
10/07/2020, 20:29:54,-6.936793,-6.161518,3.5844483,2.1149645,-0.40052447,0.06716111,9.94644007642886,2.153602850452287,jump
10/07/2020, 20:29:54,-6.7501526,-5.453243,3.5892339,2.1149645,-0.40052447,0.06716111,9.390687758387076,2.153602850452287,jump
10/07/2020, 20:29:54,-6.7501526,-5.453243,3.5892339,2.3872724,-0.4151778,0.085477784,9.390687758387076,2.4246130334179843,jump
10/07/2020, 20:29:54,-6.690332,-4.8454657,3.5174494,2.3872724,-0.4151778,0.085477784,8.978392339893011,2.4246130334179843,jump
10/07/2020, 20:29:54,-6.690332,-4.8454657,3.5174494,2.6021879,-0.4383789,0.07937223,8.978392339893011,2.6400488123335104,jump
10/07/2020, 20:29:54,-6.6711893,-4.3525443,3.4217365,2.6021879,-0.4383789,0.07937223,8.669353451460575,2.6400488123335104,jump
10/07/2020, 20:29:54,-6.6711893,-4.3525443,3.4217365,2.7694802,-0.45791668,0.06594,8.669353451460575,2.80785621111913,jump
10/07/2020, 20:29:54,-6.721439,-3.9720855,3.2853456,2.7694802,-0.45791668,0.06594,8.470460384226815,2.80785621111913,jump
10/07/2020, 20:29:54,-6.721439,-3.9720855,3.2853456,2.8744957,-0.4591378,0.070824444,8.470460384226815,2.911794876909851,jump
10/07/2020, 20:29:54,-6.8171515,-3.615555,3.249453,2.8744957,-0.4591378,0.070824444,8.372857263347496,2.911794876909851,jump
10/07/2020, 20:29:54,-6.8171515,-3.615555,3.249453,2.9025812,-0.45547447,0.09280445,8.372857263347496,2.939565846128107,jump
10/07/2020, 20:29:54,-7.025327,-3.2327034,3.3260236,2.9025812,-0.45547447,0.09280445,8.418314960293936,2.939565846128107,jump
10/07/2020, 20:29:54,-7.025327,-3.2327034,3.3260236,2.8500733,-0.4249467,0.11478445,8.418314960293936,2.88386428136349,jump
10/07/2020, 20:29:54,-7.4105716,-2.7708886,3.4289148,2.8500733,-0.4249467,0.11478445,8.62275194625491,2.88386428136349,jump
10/07/2020, 20:29:54,-7.4105716,-2.7708886,3.4289148,2.6962135,-0.38220778,0.1306589,8.62275194625491,2.7263018330663504,jump
10/07/2020, 20:29:54,-7.9130645,-2.2995026,3.4911282,2.6962135,-0.38220778,0.1306589,8.949428913240347,2.7263018330663504,jump
10/07/2020, 20:29:55,-12.878172,-7.771888,5.020142,2.0502455,1.1783723,3.1028435,15.857218487535167,3.9012441383702234,jump
10/07/2020, 20:29:55,-12.878172,-7.771888,5.020142,3.2774622,0.8364611,3.1675622,15.857218487535167,4.634099325872336,jump
10/07/2020, 20:29:55,-13.426127,-9.080762,5.2307105,3.2774622,0.8364611,3.1675622,17.031778155170418,4.634099325872336,jump
10/07/2020, 20:29:55,-13.426127,-9.080762,5.2307105,4.558408,0.58247,3.1468034,17.031778155170418,5.569625151467625,jump
10/07/2020, 20:29:55,-13.074383,-9.317652,5.300102,4.558408,0.58247,3.1468034,16.907075528568047,5.569625151467625,jump
10/07/2020, 20:29:55,-13.074383,-9.317652,5.300102,5.6854935,0.55438447,2.9673002,16.907075528568047,6.437161522556718,jump
10/07/2020, 20:29:55,-12.279965,-8.807981,5.367101,5.6854935,0.55438447,2.9673002,16.036952534693718,6.437161522556718,jump
10/07/2020, 20:29:55,-12.279965,-8.807981,5.367101,6.524397,0.69114894,2.6131778,16.036952534693718,7.062162544488092,jump
10/07/2020, 20:29:55,-11.511869,-8.154739,5.4317074,6.524397,0.69114894,2.6131778,15.117088252223972,7.062162544488092,jump
10/07/2020, 20:29:55,-11.511869,-8.154739,5.4317074,7.131289,0.8315767,2.1601458,15.117088252223972,7.49753508799571,jump
10/07/2020, 20:29:55,-10.975878,-7.3986077,5.5633125,7.131289,0.8315767,2.1601458,14.358263659311602,7.49753508799571,jump
10/07/2020, 20:29:55,-10.975878,-7.3986077,5.5633125,7.6307235,0.90240115,1.7840434,14.358263659311602,7.888287493007786,jump
10/07/2020, 20:29:55,-10.724631,-6.4965134,5.905486,7.6307235,0.90240115,1.7840434,13.859912294349957,7.888287493007786,jump
10/07/2020, 20:29:55,-10.724631,-6.4965134,5.905486,7.9799614,0.95735115,1.559359,13.859912294349957,8.187057190436706,jump
10/07/2020, 20:29:55,-10.849058,-5.17089,6.250053,7.9799614,0.95735115,1.559359,13.54633995845799,8.187057190436706,jump
10/07/2020, 20:29:55,-10.849058,-5.17089,6.250053,7.9128003,0.9842156,1.4702178,13.54633995845799,8.108182879616834,jump
10/07/2020, 20:29:55,-11.251052,-2.8833513,6.3338017,7.9128003,0.9842156,1.4702178,13.229396371347695,8.108182879616834,jump
10/07/2020, 20:29:55,-11.251052,-2.8833513,6.3338017,7.126405,0.7656367,1.3224634,13.229396371347695,7.288398575247281,jump
10/07/2020, 20:29:55,-11.9019,0.7298109,6.0729837,7.126405,0.7656367,1.3224634,13.381666040349966,7.288398575247281,jump
10/07/2020, 20:29:55,-11.9019,0.7298109,6.0729837,5.5047693,0.17095557,0.9683412,13.381666040349966,5.591904483768642,jump
10/07/2020, 20:29:56,-14.005191,1.9573289,3.9338005,1.0819045,0.9866578,1.449459,14.678259203998536,2.06032577310222,jump
10/07/2020, 20:29:56,-13.201202,3.2207394,5.1661043,1.0819045,0.9866578,1.449459,14.537315449414779,2.06032577310222,jump
10/07/2020, 20:29:56,-13.201202,3.2207394,5.1661043,0.61788225,0.9512456,0.9976478,14.537315449414779,1.5106117490585464,jump
10/07/2020, 20:29:56,-12.346965,4.6755753,6.1974106,0.61788225,0.9512456,0.9976478,14.584801766996991,1.5106117490585464,jump
10/07/2020, 20:29:56,-12.346965,4.6755753,6.1974106,0.09524667,0.95613,0.44326335,14.584801766996991,1.05817718639434,jump
10/07/2020, 20:29:56,-11.3371935,6.2380886,6.876972,0.09524667,0.95613,0.44326335,14.653956882224245,1.05817718639434,jump
10/07/2020, 20:29:56,-11.3371935,6.2380886,6.876972,-0.62154555,0.9866578,-0.16729222,14.653956882224245,1.178048884090941,jump
10/07/2020, 20:29:56,-10.380065,7.3292155,6.987042,-0.62154555,0.9866578,-0.16729222,14.501100100070394,1.178048884090941,jump
10/07/2020, 20:29:56,-10.380065,7.3292155,6.987042,-1.4946401,1.0159645,-0.6325356,14.501100100070394,1.914741288462779,jump
10/07/2020, 20:29:56,-9.635897,7.501499,6.5515485,-1.4946401,1.0159645,-0.6325356,13.85805838734508,1.914741288462779,jump
10/07/2020, 20:29:56,-9.635897,7.501499,6.5515485,-2.4483278,1.0342811,-0.8535567,13.85805838734508,2.791523850887956,jump
10/07/2020, 20:29:56,-9.18126,6.884151,5.7690954,-2.4483278,1.0342811,-0.8535567,12.844046632760234,2.791523850887956,jump
10/07/2020, 20:29:56,-9.035298,5.948557,4.981857,-2.4483278,1.0342811,-0.8535567,11.90969532881623,2.791523850887956,jump
10/07/2020, 20:29:56,-9.02812,4.9028935,4.2592244,-2.4483278,1.0342811,-0.8535567,11.121434672964044,2.791523850887956,jump
10/07/2020, 20:29:56,-9.02812,4.9028935,4.2592244,-4.9931235,0.95613,-1.0257334,11.121434672964044,5.186289245505607,jump
10/07/2020, 20:29:56,-9.322437,2.2827528,3.562913,-4.9931235,0.95613,-1.0257334,10.237829150341335,5.186289245505607,jump
10/07/2020, 20:29:56,-9.322437,2.2827528,3.562913,-5.999319,0.60811335,-1.1539501,10.237829150341335,6.139481415305088,jump
10/07/2020, 20:29:56,-9.509077,0.57188463,3.546163,-5.999319,0.60811335,-1.1539501,10.164884229612317,6.139481415305088,jump
10/07/2020, 20:29:56,-9.509077,0.57188463,3.546163,-6.2008023,0.37732336,-1.1490656,10.164884229612317,6.317647836874768,jump
10/07/2020, 20:29:56,-9.595219,-1.3686945,3.7734814,-6.2008023,0.37732336,-1.1490656,10.400995505242658,6.317647836874768,jump
10/07/2020, 20:29:57,-4.165904,-0.2105684,-0.8542377,-0.11600556,-3.438649,-4.3227334,4.257794918721058,5.524833742658435,jump
10/07/2020, 20:29:57,-4.165904,-0.2105684,-0.8542377,-0.2503278,-3.2872312,-4.211612,4.257794918721058,5.348479273879759,jump
10/07/2020, 20:29:57,-2.9359934,0.8853444,-0.9403793,-0.2503278,-3.2872312,-4.211612,3.207523248404843,5.348479273879759,jump
10/07/2020, 20:29:57,-2.9359934,0.8853444,-0.9403793,-0.56293225,-3.0442302,-4.1676526,3.207523248404843,5.1916816757659685,jump
10/07/2020, 20:29:57,-1.727618,1.5553347,-0.8542377,-0.56293225,-3.0442302,-4.1676526,2.4765806825892884,5.1916816757659685,jump
10/07/2020, 20:29:57,-1.727618,1.5553347,-0.8542377,-1.0013112,-2.7621534,-4.0895014,2.4765806825892884,5.035487758241787,jump
10/07/2020, 20:29:57,-0.72023964,1.5122639,-0.5599205,-1.0013112,-2.7621534,-4.0895014,1.7661251875841837,5.035487758241787,jump
10/07/2020, 20:29:57,-0.72023964,1.5122639,-0.5599205,-1.4751023,-2.460539,-3.8806913,1.7661251875841837,4.825965641625587,jump
10/07/2020, 20:29:57,-0.10767702,0.8327023,-0.28235307,-1.4751023,-2.460539,-3.8806913,0.8858389719936589,4.825965641625587,jump
10/07/2020, 20:29:57,-0.10767702,0.8327023,-0.28235307,-1.8658578,-2.1381657,-3.5558758,0.8858389719936589,4.5494428934774644,jump
10/07/2020, 20:29:57,0.21774685,0.09571291,-0.1794617,-1.8658578,-2.1381657,-3.5558758,0.2979616682953666,4.5494428934774644,jump
10/07/2020, 20:29:57,0.21774685,0.09571291,-0.1794617,-2.0246024,-1.8292245,-3.1944268,0.2979616682953666,4.2011236001611865,jump
10/07/2020, 20:29:57,0.44506502,-0.22492532,-0.033499517,-2.0246024,-1.8292245,-3.1944268,0.4997964510735647,4.2011236001611865,jump
10/07/2020, 20:29:57,0.44506502,-0.22492532,-0.033499517,-1.8902801,-1.5898868,-2.887928,0.4997964510735647,3.80013514675118,jump
10/07/2020, 20:29:57,0.7920243,-0.02632105,0.22971097,-1.8902801,-1.5898868,-2.887928,0.8250832929642441,3.80013514675118,jump
10/07/2020, 20:29:57,0.7920243,-0.02632105,0.22971097,-1.5691278,-1.3798556,-2.64859,0.8250832929642441,3.3736023873155854,jump
10/07/2020, 20:29:57,1.3375878,0.4139583,0.57188463,-1.5691278,-1.3798556,-2.64859,1.5124664385794164,3.3736023873155854,jump
10/07/2020, 20:29:57,1.3375878,0.4139583,0.57188463,-1.2675134,-1.1356333,-2.4458857,1.5124664385794164,2.9796996429985017,jump
10/07/2020, 20:29:57,1.9812572,0.87338024,0.7465607,-1.2675134,-1.1356333,-2.4458857,2.2903113351123547,2.9796996429985017,jump
10/07/2020, 20:29:57,1.9812572,0.87338024,0.7465607,-1.1038845,-0.89385337,-2.1906734,2.2903113351123547,2.610858952611735,jump
10/07/2020, 20:29:58,-8.070991,-2.1655045,4.4243293,0.17339778,-0.8218078,-1.3432223,9.455421079543333,1.5841972395926178,jump
10/07/2020, 20:29:58,-8.070991,-2.1655045,4.4243293,0.15141778,-0.79128003,-1.2711767,9.455421079543333,1.5049722997324146,jump
10/07/2020, 20:29:58,-7.8604226,-2.2755744,4.429115,0.15141778,-0.79128003,-1.2711767,9.304920244761714,1.5049722997324146,jump
10/07/2020, 20:29:58,-7.8604226,-2.2755744,4.429115,0.13920668,-0.7338878,-1.1954678,9.304920244761714,1.4096499997077656,jump
10/07/2020, 20:29:58,-7.6737823,-2.3282163,4.436293,0.13920668,-0.7338878,-1.1954678,9.164508902975154,1.4096499997077656,jump
10/07/2020, 20:29:58,-7.6737823,-2.3282163,4.436293,0.11966889,-0.67039,-1.1124322,9.164508902975154,1.3043193248653393,jump
10/07/2020, 20:29:58,-7.501499,-2.3138595,4.3334017,0.11966889,-0.67039,-1.1124322,8.966872677883595,1.3043193248653393,jump
10/07/2020, 20:29:58,-7.501499,-2.3138595,4.3334017,0.09768889,-0.60933447,-1.0355023,8.966872677883595,1.2054445892768202,jump
10/07/2020, 20:29:58,-7.3770723,-2.306681,4.240082,0.09768889,-0.60933447,-1.0355023,8.815909859054944,1.2054445892768202,jump
10/07/2020, 20:29:58,-7.3770723,-2.306681,4.240082,0.07204556,-0.5702589,-0.96223557,8.815909859054944,1.1208403476935884,jump
10/07/2020, 20:29:58,-7.281359,-2.2779672,4.180261,0.07204556,-0.5702589,-0.96223557,8.699535017763829,1.1208403476935884,jump
10/07/2020, 20:29:58,-7.281359,-2.2779672,4.180261,0.045181114,-0.5360678,-0.8914111,8.699535017763829,1.0411646348662746,jump
10/07/2020, 20:29:58,-7.2287173,-2.2827528,4.1443686,0.045181114,-0.5360678,-0.8914111,8.639508424582802,1.0411646348662746,jump
10/07/2020, 20:29:58,-7.2287173,-2.2827528,4.1443686,0.02198,-0.49455002,-0.8218078,8.639508424582802,0.9593909032259198,jump
10/07/2020, 20:29:58,-7.176075,-2.333002,4.1204405,0.02198,-0.49455002,-0.8218078,8.597498512451534,0.9593909032259198,jump
10/07/2020, 20:29:58,-7.176075,-2.333002,4.1204405,0.0036633336,-0.44082114,-0.75098336,8.597498512451534,0.8708115189326041,jump
10/07/2020, 20:29:58,-7.149754,-2.3569303,4.0965123,0.0036633336,-0.44082114,-0.75098336,8.570619367237853,0.8708115189326041,jump
10/07/2020, 20:29:58,-7.149754,-2.3569303,4.0965123,-0.018316668,-0.38831335,-0.6740534,8.570619367237853,0.7781199826298427,jump
10/07/2020, 20:29:58,-7.1282187,-2.376073,4.0127635,-0.018316668,-0.38831335,-0.6740534,8.51818609744598,0.7781199826298427,jump
10/07/2020, 20:29:58,-7.1282187,-2.376073,4.0127635,-0.04396,-0.34313223,-0.59346,8.51818609744598,0.6869257650955409,jump
10/07/2020, 20:29:59,-17.39582,-7.015756,10.052248,-1.5276101,-4.034551,-3.1174967,21.281050230584107,5.322591595421279,jump
10/07/2020, 20:29:59,-17.39582,-7.015756,10.052248,-0.94880337,-4.217718,-3.1040645,21.281050230584107,5.322085136755929,jump
10/07/2020, 20:29:59,-17.950956,-7.479964,9.360723,-0.94880337,-4.217718,-3.1040645,21.582627697583646,5.322085136755929,jump
10/07/2020, 20:29:59,-17.950956,-7.479964,9.360723,-0.6752745,-4.360588,-3.1455824,21.582627697583646,5.418986331278109,jump
10/07/2020, 20:29:59,-18.087347,-6.8889365,8.571091,-0.6752745,-4.360588,-3.1455824,21.167738772378957,5.418986331278109,jump
10/07/2020, 20:29:59,-18.087347,-6.8889365,8.571091,-0.7485411,-4.5315437,-3.3324122,21.167738772378957,5.674519693523437,jump
10/07/2020, 20:29:59,-18.357735,-6.06102,8.248059,-0.7485411,-4.5315437,-3.3324122,21.0183935292926,5.674519693523437,jump
10/07/2020, 20:29:59,-18.357735,-6.06102,8.248059,-1.1454023,-4.7171526,-3.7182834,21.0183935292926,6.114663246612536,jump
10/07/2020, 20:29:59,-18.850657,-5.7547383,8.006385,-1.1454023,-4.7171526,-3.7182834,21.273609530375683,6.114663246612536,jump
10/07/2020, 20:29:59,-18.850657,-5.7547383,8.006385,-1.7620634,-4.8490324,-4.1908536,21.273609530375683,6.646896754600961,jump
10/07/2020, 20:29:59,-19.55654,-5.986842,7.7551384,-1.7620634,-4.8490324,-4.1908536,21.873332831527776,6.646896754600961,jump
10/07/2020, 20:29:59,-19.55654,-5.986842,7.7551384,-2.3274379,-4.9479423,-4.5486393,21.873332831527776,7.112609866347238,jump
10/07/2020, 20:29:59,-20.267208,-6.4008007,7.21436,-2.3274379,-4.9479423,-4.5486393,22.44497644103247,7.112609866347238,jump
10/07/2020, 20:29:59,-20.267208,-6.4008007,7.21436,-2.6095145,-5.0590634,-4.8026304,22.44497644103247,7.4477478222744065,jump
10/07/2020, 20:29:59,-20.669203,-6.8051877,6.2979093,-2.6095145,-5.0590634,-4.8026304,22.653701359441666,7.4477478222744065,jump
10/07/2020, 20:29:59,-20.669203,-6.8051877,6.2979093,-2.5655546,-5.217808,-5.048074,22.653701359441666,7.700041376378603,jump
10/07/2020, 20:29:59,-20.563917,-7.257431,5.3647084,-2.5655546,-5.217808,-5.048074,22.45718349647445,7.700041376378603,jump
10/07/2020, 20:29:59,-20.563917,-7.257431,5.3647084,-2.2651613,-5.3802156,-5.3216023,22.45718349647445,7.8991852430323775,jump
10/07/2020, 20:29:59,-19.81257,-7.7001033,4.749753,-2.2651613,-5.3802156,-5.3216023,21.780488901299133,7.8991852430323775,jump
10/07/2020, 20:29:59,-19.81257,-7.7001033,4.749753,-1.845099,-5.4534826,-5.5633826,21.780488901299133,8.006003324301528,jump
10/07/2020, 20:30:00,-11.660225,0.16510476,2.428715,-0.06594,-0.6972545,-0.5458367,11.911622943406805,0.8879468345439155,jump
10/07/2020, 20:30:00,-11.921042,0.41635114,2.1822543,-0.06594,-0.6972545,-0.5458367,12.126286945139226,0.8879468345439155,jump
10/07/2020, 20:30:00,-11.921042,0.41635114,2.1822543,-0.7106867,-0.8218078,-0.7106867,12.126286945139226,1.2982754667719991,jump
10/07/2020, 20:30:00,-11.959328,0.3900301,2.1008983,-0.7106867,-0.8218078,-0.7106867,12.148720754617921,1.2982754667719991,jump
10/07/2020, 20:30:00,-11.959328,0.3900301,2.1008983,-1.18692,-0.8999589,-0.8987378,12.148720754617921,1.7396651535691499,jump
10/07/2020, 20:30:00,-11.9019,0.22013968,2.132005,-1.18692,-0.8999589,-0.8987378,12.093350951908201,1.7396651535691499,jump
10/07/2020, 20:30:00,-11.9019,0.22013968,2.132005,-1.471439,-0.92193896,-1.1270856,12.093350951908201,2.0701270624722414,jump
10/07/2020, 20:30:00,-11.779866,-0.0071784677,2.2588246,-1.471439,-0.92193896,-1.1270856,11.994481571621705,2.0701270624722414,jump
10/07/2020, 20:30:00,-11.779866,-0.0071784677,2.2588246,-1.5740123,-0.92071784,-1.3603178,11.994481571621705,2.2750166102674494,jump
10/07/2020, 20:30:00,-11.650654,-0.27756742,2.3042881,-1.5740123,-0.92071784,-1.3603178,11.879584269768523,2.2750166102674494,jump
10/07/2020, 20:30:00,-11.650654,-0.27756742,2.3042881,-1.5764545,-0.9268234,-1.5972134,11.879584269768523,2.428024100538876,jump
10/07/2020, 20:30:00,-11.533405,-0.42831525,2.2707887,-1.5764545,-0.9268234,-1.5972134,11.762626111645824,2.428024100538876,jump
10/07/2020, 20:30:00,-11.533405,-0.42831525,2.2707887,-1.5569167,-0.94514006,-1.8365512,11.762626111645824,2.586542028450873,jump
10/07/2020, 20:30:00,-11.3778715,-0.48095736,2.1822543,-1.5569167,-0.94514006,-1.8365512,11.595236696538214,2.586542028450873,jump
10/07/2020, 20:30:00,-11.3778715,-0.48095736,2.1822543,-1.5508112,-0.9720045,-2.07711,11.595236696538214,2.768428101695577,jump
10/07/2020, 20:30:00,-11.160125,-0.51445687,2.1296122,-1.5508112,-0.9720045,-2.07711,11.373139368722496,2.768428101695577,jump
10/07/2020, 20:30:00,-11.160125,-0.51445687,2.1296122,-1.5691278,-0.9744467,-2.3079002,11.373139368722496,2.9560297247524576,jump
10/07/2020, 20:30:00,-10.916057,-0.5599205,2.0961127,-1.5691278,-0.9744467,-2.3079002,11.129577347708846,2.9560297247524576,jump
10/07/2020, 20:30:00,-10.916057,-0.5599205,2.0961127,-1.5911078,-0.9426978,-2.5106046,11.129577347708846,3.1182429217170573,jump
10/07/2020, 20:30:00,-10.683953,-0.72263247,2.0865414,-1.5911078,-0.9426978,-2.5106046,10.909753001675734,3.1182429217170573,jump
10/07/2020, 20:30:01,-4.2592244,-1.1174482,2.2612174,-0.5690378,2.878159,6.8150215,4.950028994796319,7.419711703006477,jump
10/07/2020, 20:30:01,-4.2592244,-1.1174482,2.2612174,-0.34069002,3.010039,7.060465,4.950028994796319,7.682875050579727,jump
10/07/2020, 20:30:01,-5.24746,-1.4596218,2.457429,-0.34069002,3.010039,7.060465,5.9753901963834535,7.682875050579727,jump
10/07/2020, 20:30:01,-5.24746,-1.4596218,2.457429,-0.08303556,3.2151856,7.3022447,5.9753901963834535,7.979166042879827,jump
10/07/2020, 20:30:01,-6.285945,-1.847259,2.7876384,-0.08303556,3.2151856,7.3022447,7.120140289561676,7.979166042879827,jump
10/07/2020, 20:30:01,-6.285945,-1.847259,2.7876384,0.19782001,3.5326746,7.5183816,7.120140289561676,8.309331143724616,jump
10/07/2020, 20:30:01,-7.5637126,-2.2660031,3.0675986,0.19782001,3.5326746,7.5183816,8.470813390584834,8.309331143724616,jump
10/07/2020, 20:30:01,-7.5637126,-2.2660031,3.0675986,0.4921078,3.8965657,7.733297,8.470813390584834,8.673481115358436,jump
10/07/2020, 20:30:01,-9.128618,-2.766103,2.8474588,0.4921078,3.8965657,7.733297,9.954447186497685,8.673481115358436,jump
10/07/2020, 20:30:01,-9.128618,-2.766103,2.8474588,0.80227005,4.183527,7.9909515,9.954447186497685,9.055431619992646,jump
10/07/2020, 20:30:01,-11.08834,-3.1728828,2.3377876,0.80227005,4.183527,7.9909515,11.7679104292941,9.055431619992646,jump
10/07/2020, 20:30:01,-11.08834,-3.1728828,2.3377876,1.0794623,4.2897635,8.309662,11.7679104292941,9.413702226645468,jump
10/07/2020, 20:30:01,-13.272987,-3.3379877,1.8879371,1.0794623,4.2897635,8.309662,13.81588439493871,9.413702226645468,jump
10/07/2020, 20:30:01,-13.272987,-3.3379877,1.8879371,1.3212423,4.2885423,8.685763,13.81588439493871,9.776490231063567,jump
10/07/2020, 20:30:01,-15.550955,-3.3260236,1.6486548,1.3212423,4.2885423,8.685763,15.987892022728238,9.776490231063567,jump
10/07/2020, 20:30:01,-15.550955,-3.3260236,1.6486548,1.5080723,4.29709,9.024012,15.987892022728238,10.108019115200076,jump
10/07/2020, 20:30:01,-17.864815,-3.3643086,1.7395821,1.5080723,4.29709,9.024012,18.261881732856526,10.108019115200076,jump
10/07/2020, 20:30:01,-17.864815,-3.3643086,1.7395821,1.7669479,4.3325024,9.262128,18.261881732856526,10.376882686994444,jump
10/07/2020, 20:30:01,-20.551954,-3.9026937,2.3545375,1.7669479,4.3325024,9.262128,21.0513108751948,10.376882686994444,jump
10/07/2020, 20:30:01,-20.551954,-3.9026937,2.3545375,2.3481967,4.301975,9.409883,21.0513108751948,10.609755153793174,jump
10/07/2020, 20:30:02,-7.24786,-1.7874385,1.268196,-0.6874856,0.07570889,0.5519422,7.5719701147936505,0.8848776621706613,jump
10/07/2020, 20:30:02,-7.0803623,-1.8400806,1.0767702,-0.6874856,0.07570889,0.5519422,7.39438038648171,0.8848776621706613,jump
10/07/2020, 20:30:02,-7.0803623,-1.8400806,1.0767702,-0.72411895,0.14653334,0.65451556,7.39438038648171,0.9870212230336676,jump
10/07/2020, 20:30:02,-6.8721867,-1.8831514,0.83988076,-0.72411895,0.14653334,0.65451556,7.174859471761471,0.9870212230336676,jump
10/07/2020, 20:30:02,-6.8721867,-1.8831514,0.83988076,-0.7851745,0.22102112,0.7717422,7.174859471761471,1.1229137870758399,jump
10/07/2020, 20:30:02,-6.582655,-1.820938,0.50488555,-0.7851745,0.22102112,0.7717422,6.848508656695548,1.1229137870758399,jump
10/07/2020, 20:30:02,-6.582655,-1.820938,0.50488555,-0.89019006,0.3162678,0.92071784,6.848508656695548,1.3191607173188864,jump
10/07/2020, 20:30:02,-6.1399827,-1.5146568,-0.08853444,-0.89019006,0.3162678,0.92071784,6.324666874614144,1.3191607173188864,jump
10/07/2020, 20:30:02,-6.1399827,-1.5146568,-0.08853444,-0.9976478,0.40785113,1.1563922,6.324666874614144,1.5807867279955456,jump
10/07/2020, 20:30:02,-5.5944195,-0.8662018,-0.60777694,-0.9976478,0.40785113,1.1563922,5.693612887199155,1.5807867279955456,jump
10/07/2020, 20:30:02,-5.5944195,-0.8662018,-0.60777694,-1.0977789,0.5189722,1.4812078,5.693612887199155,1.9153139168485558,jump
10/07/2020, 20:30:02,-4.847859,0.3900301,-1.1772687,-1.0977789,0.5189722,1.4812078,5.003980528833348,1.9153139168485558,jump
10/07/2020, 20:30:02,-4.847859,0.3900301,-1.1772687,-1.185699,0.65329444,1.8609734,5.003980528833348,2.301281720250596,jump
10/07/2020, 20:30:02,-3.9290147,1.8017955,-1.4476577,-1.185699,0.65329444,1.8609734,4.558435714983784,2.301281720250596,jump
10/07/2020, 20:30:02,-3.9290147,1.8017955,-1.4476577,-1.3017045,0.8450089,2.2480657,4.558435714983784,2.731716340898351,jump
10/07/2020, 20:30:02,-3.062813,2.5124638,-1.1270195,-1.3017045,0.8450089,2.2480657,4.118673467949747,2.731716340898351,jump
10/07/2020, 20:30:02,-3.062813,2.5124638,-1.1270195,-1.5276101,1.1075479,2.6192834,4.118673467949747,3.228141963760488,jump
10/07/2020, 20:30:02,-2.7110682,1.8496519,-0.3278167,-1.5276101,1.1075479,2.6192834,3.2982672102157244,3.228141963760488,jump
10/07/2020, 20:30:02,-2.7110682,1.8496519,-0.3278167,-1.7425256,1.4006145,2.975848,3.2982672102157244,3.722067630270521,jump
10/07/2020, 20:30:02,-3.1202407,0.22492532,0.6963114,-1.7425256,1.4006145,2.975848,3.2048935926480753,3.722067630270521,jump
10/07/2020, 20:30:03,-21.707687,1.7180467,-1.7156538,2.7072034,1.9232501,4.9784703,21.8430502339911,5.984397031757889,jump
10/07/2020, 20:30:03,-21.707687,1.7180467,-1.7156538,1.4445745,0.96956223,3.7878869,21.8430502339911,4.1683249856795745,jump
10/07/2020, 20:30:03,-20.434706,2.7684958,-1.1796615,1.4445745,0.96956223,3.7878869,20.65510514893222,4.1683249856795745,jump
10/07/2020, 20:30:03,-20.434706,2.7684958,-1.1796615,0.6459678,0.21369445,2.647369,20.65510514893222,2.733404805147638,jump
10/07/2020, 20:30:03,-18.11606,3.034099,-0.51445687,0.6459678,0.21369445,2.647369,18.37558332308998,2.733404805147638,jump
10/07/2020, 20:30:03,-18.11606,3.034099,-0.51445687,0.08059334,-0.1526389,1.7058923,18.37558332308998,1.7146027359264662,jump
10/07/2020, 20:30:03,-15.117853,3.4313076,0.51445687,0.08059334,-0.1526389,1.7058923,15.510900093470937,1.7146027359264662,jump
10/07/2020, 20:30:03,-15.117853,3.4313076,0.51445687,-0.32115224,-0.2503278,0.87920004,15.510900093470937,0.9689145881938908,jump
10/07/2020, 20:30:03,-12.000006,4.125226,1.6438692,-0.32115224,-0.2503278,0.87920004,12.795309018245927,0.9689145881938908,jump
10/07/2020, 20:30:03,-12.000006,4.125226,1.6438692,-0.65085226,-0.123332225,0.11356334,12.795309018245927,0.6720983092304239,jump
10/07/2020, 20:30:03,-9.001799,4.965107,2.6656044,-0.65085226,-0.123332225,0.11356334,10.620268937381049,0.6720983092304239,jump
10/07/2020, 20:30:03,-9.001799,4.965107,2.6656044,-1.0257334,0.29184556,-0.5568267,10.620268937381049,1.2030622284362185,jump
10/07/2020, 20:30:03,-6.6161547,5.7403817,3.4073794,-1.0257334,0.29184556,-0.5568267,9.398708378857519,1.2030622284362185,jump
10/07/2020, 20:30:03,-6.6161547,5.7403817,3.4073794,-1.4641123,0.7998278,-1.0953367,9.398708378857519,1.995773468843029,jump
10/07/2020, 20:30:03,-5.4412785,6.1447687,3.778267,-1.4641123,0.7998278,-1.0953367,9.03554063860159,1.995773468843029,jump
10/07/2020, 20:30:03,-5.4412785,6.1447687,3.778267,-1.9635468,1.2137845,-1.5398211,9.03554063860159,2.7748581449796497,jump
10/07/2020, 20:30:03,-5.623133,6.178268,3.5724843,-1.9635468,1.2137845,-1.5398211,9.085882756942098,2.7748581449796497,jump
10/07/2020, 20:30:03,-5.623133,6.178268,3.5724843,-2.6082935,1.4677756,-1.95622,9.085882756942098,3.5755219377965455,jump
10/07/2020, 20:30:03,-6.7836523,5.9437714,3.101098,-2.6082935,1.4677756,-1.95622,9.537461181686284,3.5755219377965455,jump
10/07/2020, 20:30:03,-6.7836523,5.9437714,3.101098,-3.3910258,1.5911078,-2.4226844,9.537461181686284,4.460950557859072,jump
10/07/2020, 20:30:04,-9.710074,-1.2011969,0.32063824,0.07937223,0.026864445,0.064718895,9.789342584090559,0.10587815719910683,jump
10/07/2020, 20:30:04,-9.683753,-1.1940185,0.33738798,0.07937223,0.026864445,0.064718895,9.762918785647235,0.10587815719910683,jump
10/07/2020, 20:30:04,-9.683753,-1.1940185,0.33738798,0.06716111,0.026864445,0.064718895,9.762918785647235,0.0970610572014451,jump
10/07/2020, 20:30:04,-9.676575,-1.2155539,0.36610186,0.06716111,0.026864445,0.064718895,9.759492807924516,0.0970610572014451,jump
10/07/2020, 20:30:04,-9.676575,-1.2155539,0.36610186,0.06227667,0.03174889,0.064718895,9.759492807924516,0.09526232665964238,jump
10/07/2020, 20:30:04,-9.702896,-1.1916257,0.36370903,0.06227667,0.03174889,0.064718895,9.78255841706131,0.09526232665964238,jump
10/07/2020, 20:30:04,-9.702896,-1.1916257,0.36370903,0.06349778,0.03174889,0.068382226,9.78255841706131,0.0985702246257017,jump
10/07/2020, 20:30:04,-9.722038,-1.1581261,0.35653058,0.06349778,0.03174889,0.068382226,9.79726483551036,0.0985702246257017,jump
10/07/2020, 20:30:04,-9.722038,-1.1581261,0.35653058,0.06349778,0.017095556,0.064718895,9.79726483551036,0.09226462846153903,jump
10/07/2020, 20:30:04,-9.743574,-1.1246266,0.33020952,0.06349778,0.017095556,0.064718895,9.81381987151003,0.09226462846153903,jump
10/07/2020, 20:30:04,-9.743574,-1.1246266,0.33020952,0.05006556,0.0036633336,0.059834447,9.81381987151003,0.07810340050325058,jump
10/07/2020, 20:30:04,-9.762716,-1.105484,0.29910284,0.05006556,0.0036633336,0.059834447,9.829658530610915,0.07810340050325058,jump
10/07/2020, 20:30:04,-9.762716,-1.105484,0.29910284,0.04396,-0.01099,0.05372889,9.829658530610915,0.07028552773416528,jump
10/07/2020, 20:30:04,-9.7196455,-1.1078769,0.27038896,0.04396,-0.01099,0.05372889,9.78631749219108,0.07028552773416528,jump
10/07/2020, 20:30:04,-9.7196455,-1.1078769,0.27038896,0.042738892,-0.023201112,0.048844445,9.78631749219108,0.06892520831582763,jump
10/07/2020, 20:30:04,-9.647861,-1.119841,0.30149564,0.042738892,-0.023201112,0.048844445,9.71731218962077,0.06892520831582763,jump
10/07/2020, 20:30:04,-9.647861,-1.119841,0.30149564,0.037854444,-0.03297,0.05006556,9.71731218962077,0.07089809581725331,jump
10/07/2020, 20:30:04,-9.549755,-1.1174482,0.35174492,0.037854444,-0.03297,0.05006556,9.621342806193232,0.07089809581725331,jump
10/07/2020, 20:30:04,-9.549755,-1.1174482,0.35174492,0.04151778,-0.018316668,0.045181114,9.621342806193232,0.0640356102830951,jump
10/07/2020, 20:30:04,-9.473185,-1.1006985,0.4019942,0.04151778,-0.018316668,0.045181114,9.545384363774794,0.0640356102830951,jump
10/07/2020, 20:30:05,-8.4012,-1.9238294,1.1006985,0.37488112,-0.16362889,-0.6801589,8.688660610958044,0.7936790372427184,jump
10/07/2020, 20:30:05,-8.4012,-1.9238294,1.1006985,0.28940335,-0.047623336,-0.7668578,8.688660610958044,0.8210317719107114,jump
10/07/2020, 20:30:05,-7.8604226,-1.6917256,1.1892328,0.28940335,-0.047623336,-0.7668578,8.127881266816454,0.8210317719107114,jump
10/07/2020, 20:30:05,-7.8604226,-1.6917256,1.1892328,0.1965989,0.051286668,-0.81448114,8.127881266816454,0.8394408715091639,jump
10/07/2020, 20:30:05,-7.611569,-1.5601203,1.0648061,0.1965989,0.051286668,-0.81448114,7.842433874051756,0.8394408715091639,jump
10/07/2020, 20:30:05,-7.611569,-1.5601203,1.0648061,0.09524667,0.057392225,-0.81936556,7.842433874051756,0.8268770880042283,jump
10/07/2020, 20:30:05,-7.479964,-1.4907285,0.74416786,0.09524667,0.057392225,-0.81936556,7.663283591610095,0.8268770880042283,jump
10/07/2020, 20:30:05,-7.479964,-1.4907285,0.74416786,-0.026864445,-0.048844445,-0.77418447,7.663283591610095,0.7761888073992452,jump
10/07/2020, 20:30:05,-7.288538,-1.375873,0.38763726,-0.026864445,-0.048844445,-0.77418447,7.427386818065562,0.7761888073992452,jump
10/07/2020, 20:30:05,-7.288538,-1.375873,0.38763726,-0.17950334,-0.20270446,-0.6874856,7.427386818065562,0.7388822385651063,jump
10/07/2020, 20:30:05,-6.8650084,-1.2514462,0.18664017,-0.17950334,-0.20270446,-0.6874856,6.980636931304416,0.7388822385651063,jump
10/07/2020, 20:30:05,-6.8650084,-1.2514462,0.18664017,-0.35900667,-0.31504667,-0.56049,6.980636931304416,0.7364029115374151,jump
10/07/2020, 20:30:05,-6.2117677,-1.0360922,0.047856454,-0.35900667,-0.31504667,-0.56049,6.297764272981991,0.7364029115374151,jump
10/07/2020, 20:30:05,-6.2117677,-1.0360922,0.047856454,-0.5556056,-0.36877558,-0.39930335,6.297764272981991,0.7772619639213713,jump
10/07/2020, 20:30:05,-5.4221363,-0.65324056,-0.0047856453,-0.5556056,-0.36877558,-0.39930335,5.461346744410634,0.7772619639213713,jump
10/07/2020, 20:30:05,-5.4221363,-0.65324056,-0.0047856453,-0.77052116,-0.37854445,-0.20636779,5.461346744410634,0.8829419174539126,jump
10/07/2020, 20:30:05,-4.601398,-0.22253251,-0.019142581,-0.77052116,-0.37854445,-0.20636779,4.606815671371745,0.8829419174539126,jump
10/07/2020, 20:30:05,-4.601398,-0.22253251,-0.019142581,-1.020849,-0.3492378,-0.008547778,4.606815671371745,1.078968379772725,jump
10/07/2020, 20:30:05,-3.818945,0.021535404,-0.0526421,-1.020849,-0.3492378,-0.008547778,3.819368449169891,1.078968379772725,jump
10/07/2020, 20:30:05,-3.818945,0.021535404,-0.0526421,-1.3212423,-0.2820767,0.18927222,3.819368449169891,1.3642113228290764,jump
10/07/2020, 20:30:06,-16.998611,-3.2063823,1.5768701,2.2224224,4.4424024,8.003162,17.370094927402363,9.419379387770643,jump
10/07/2020, 20:30:06,-16.998611,-3.2063823,1.5768701,2.427569,4.4656034,8.006825,17.370094927402363,9.48387884036764,jump
10/07/2020, 20:30:06,-20.721844,-4.2927237,1.308874,2.427569,4.4656034,8.006825,21.202250698820645,9.48387884036764,jump
10/07/2020, 20:30:06,-20.721844,-4.2927237,1.308874,2.7841334,4.1468935,8.342631,21.202250698820645,9.723560169327586,jump
10/07/2020, 20:30:06,-24.129223,-5.8073807,1.5840486,2.7841334,4.1468935,8.342631,24.868740954892324,9.723560169327586,jump
10/07/2020, 20:30:06,-24.129223,-5.8073807,1.5840486,3.34096,3.6205945,8.568537,24.868740954892324,9.883852519064167,jump
10/07/2020, 20:30:06,-26.440691,-7.530213,2.5028925,3.34096,3.6205945,8.568537,27.60577325664683,9.883852519064167,jump
10/07/2020, 20:30:06,-26.440691,-7.530213,2.5028925,4.211612,3.0613258,8.413456,27.60577325664683,9.89422227146492,jump
10/07/2020, 20:30:06,-27.565317,-9.554541,4.505685,4.211612,3.0613258,8.413456,29.52011437168661,9.89422227146492,jump
10/07/2020, 20:30:06,-27.565317,-9.554541,4.505685,5.621996,2.6082935,7.9482126,29.52011437168661,10.078894644590418,jump
10/07/2020, 20:30:06,-27.85724,-12.212967,6.8099732,5.621996,2.6082935,7.9482126,31.169827632199056,10.078894644590418,jump
10/07/2020, 20:30:06,-27.85724,-12.212967,6.8099732,7.41825,2.3140056,7.3217826,31.169827632199056,10.676776506329848,jump
10/07/2020, 20:30:06,-27.105894,-14.378471,7.8963146,7.41825,2.3140056,7.3217826,31.683145645773426,10.676776506329848,jump
10/07/2020, 20:30:06,-27.105894,-14.378471,7.8963146,8.958072,2.262719,6.602548,31.683145645773426,11.35608151340397,jump
10/07/2020, 20:30:06,-25.01696,-14.22533,7.001399,8.958072,2.262719,6.602548,29.618033476496603,11.35608151340397,jump
10/07/2020, 20:30:06,-25.01696,-14.22533,7.001399,9.597934,2.5509012,5.976118,29.618033476496603,11.590574482729545,jump
10/07/2020, 20:30:06,-22.31307,-11.629118,5.2953167,9.597934,2.5509012,5.976118,25.712834726308543,11.590574482729545,jump
10/07/2020, 20:30:06,-22.31307,-11.629118,5.2953167,9.076519,2.953868,5.5108747,25.712834726308543,11.021718265195204,jump
10/07/2020, 20:30:06,-20.097317,-7.881958,3.4025939,9.076519,2.953868,5.5108747,21.854176881740212,11.021718265195204,jump
10/07/2020, 20:30:06,-20.097317,-7.881958,3.4025939,7.6087437,3.108949,5.106687,21.854176881740212,9.676610799664408,jump
10/07/2020, 20:30:07,-9.162118,-10.305887,7.6139617,7.0433693,0.5836911,2.8085556,15.752083342650193,7.605112155623336,jump
10/07/2020, 20:30:07,-9.676575,-12.658031,10.920842,7.0433693,0.5836911,2.8085556,19.316486541617817,7.605112155623336,jump
10/07/2020, 20:30:07,-9.676575,-12.658031,10.920842,8.744377,0.63619894,2.1247334,19.316486541617817,9.02127334772523,jump
10/07/2020, 20:30:07,-9.958928,-14.723038,13.213166,8.744377,0.63619894,2.1247334,22.148043948946157,9.02127334772523,jump
10/07/2020, 20:30:07,-9.958928,-14.723038,13.213166,9.748131,1.1930256,1.5141778,22.148043948946157,9.936905882878754,jump
10/07/2020, 20:30:07,-10.049855,-15.342779,14.194224,9.748131,1.1930256,1.5141778,23.192163927533358,9.936905882878754,jump
10/07/2020, 20:30:07,-10.049855,-15.342779,14.194224,10.046082,1.9623257,1.1661612,23.192163927533358,10.302155521386126,jump
10/07/2020, 20:30:07,-10.786844,-14.273187,13.272987,10.046082,1.9623257,1.1661612,22.276715661587623,10.302155521386126,jump
10/07/2020, 20:30:07,-10.786844,-14.273187,13.272987,9.77011,2.3652923,1.1942468,22.276715661587623,10.12303734156228,jump
10/07/2020, 20:30:07,-13.222738,-12.177074,11.440085,9.77011,2.3652923,1.1942468,21.307217162151396,10.12303734156228,jump
10/07/2020, 20:30:07,-13.222738,-12.177074,11.440085,8.905563,1.9183656,1.6973445,21.307217162151396,9.266615548307652,jump
10/07/2020, 20:30:07,-17.096718,-9.394221,9.3104725,8.905563,1.9183656,1.6973445,21.615597438241753,9.266615548307652,jump
10/07/2020, 20:30:07,-17.096718,-9.394221,9.3104725,6.907826,0.5580478,2.3311012,21.615597438241753,7.3118745430925465,jump
10/07/2020, 20:30:07,-19.685751,-5.1326046,6.5611196,6.907826,0.5580478,2.3311012,21.3757037478036,7.3118745430925465,jump
10/07/2020, 20:30:07,-19.685751,-5.1326046,6.5611196,4.0369935,-1.2089001,2.570439,21.3757037478036,4.936184068022168,jump
10/07/2020, 20:30:07,-19.984856,-0.0071784677,4.9435716,4.0369935,-1.2089001,2.570439,20.587214644027064,4.936184068022168,jump
10/07/2020, 20:30:07,-19.984856,-0.0071784677,4.9435716,1.185699,-2.832978,1.8988279,20.587214644027064,3.610705460859492,jump
10/07/2020, 20:30:07,-17.857635,3.7471602,5.343173,1.185699,-2.832978,1.8988279,19.012781309286233,3.610705460859492,jump
10/07/2020, 20:30:07,-17.857635,3.7471602,5.343173,-1.3737501,-3.7268312,0.59956557,19.012781309286233,4.01695642934991,jump
10/07/2020, 20:30:07,-14.012369,5.5920267,8.389236,-1.3737501,-3.7268312,0.59956557,17.262576294085108,4.01695642934991,jump
10/07/2020, 20:30:08,-21.09991,-13.806586,9.016156,9.271897,2.5020568,5.650081,26.779080080177444,11.142342004375312,jump
10/07/2020, 20:30:08,-21.09991,-13.806586,9.016156,8.61616,3.2774622,5.416849,26.779080080177444,10.692157557801782,jump
10/07/2020, 20:30:08,-18.525232,-9.645468,4.802395,8.61616,3.2774622,5.416849,21.430872055499307,10.692157557801782,jump
10/07/2020, 20:30:08,-18.525232,-9.645468,4.802395,7.3217826,3.425217,5.267874,21.430872055499307,9.648373188079473,jump
10/07/2020, 20:30:08,-17.78585,-5.797809,0.4139583,7.3217826,3.425217,5.267874,18.711558754303113,9.648373188079473,jump
10/07/2020, 20:30:08,-17.78585,-5.797809,0.4139583,5.4998846,2.7304046,4.9125304,18.711558754303113,7.863637528889293,jump
10/07/2020, 20:30:08,-17.800207,-2.251646,-2.603391,5.4998846,2.7304046,4.9125304,18.12994562598075,7.863637528889293,jump
10/07/2020, 20:30:08,-17.800207,-2.251646,-2.603391,3.5314534,1.6961234,4.316628,18.12994562598075,5.829345973700618,jump
10/07/2020, 20:30:08,-17.383856,0.5240282,-3.414558,3.5314534,1.6961234,4.316628,17.723776532643388,5.829345973700618,jump
10/07/2020, 20:30:08,-17.383856,0.5240282,-3.414558,1.8377723,0.86821,3.5522125,17.723776532643388,4.0926041780455185,jump
10/07/2020, 20:30:08,-16.311872,2.201397,-2.1367905,1.8377723,0.86821,3.5522125,16.597867515929707,4.0926041780455185,jump
10/07/2020, 20:30:08,-16.311872,2.201397,-2.1367905,0.6874856,0.4249467,2.7719223,16.597867515929707,2.8873464677581597,jump
10/07/2020, 20:30:08,-14.687145,3.1154552,0.021535404,0.6874856,0.4249467,2.7719223,15.013952166862,2.8873464677581597,jump
10/07/2020, 20:30:08,-14.687145,3.1154552,0.021535404,0.039075557,0.31993112,2.0465822,15.013952166862,2.071806364468083,jump
10/07/2020, 20:30:08,-12.686746,4.017549,2.792424,0.039075557,0.31993112,2.0465822,13.597494140105075,2.071806364468083,jump
10/07/2020, 20:30:08,-12.686746,4.017549,2.792424,-0.3712178,0.5568267,1.2565234,13.597494140105075,1.4236255169655485,jump
10/07/2020, 20:30:08,-10.470992,5.1661043,5.407779,-0.3712178,0.5568267,1.2565234,12.867571067689894,1.4236255169655485,jump
10/07/2020, 20:30:08,-10.470992,5.1661043,5.407779,-0.8498934,1.02207,0.39808223,12.867571067689894,1.3875933925160318,jump
10/07/2020, 20:30:08,-8.618947,6.309873,6.652047,-0.8498934,1.02207,0.39808223,12.58373862821516,1.3875933925160318,jump
10/07/2020, 20:30:08,-8.618947,6.309873,6.652047,-1.4775445,1.3737501,-0.32359445,12.58373862821516,2.043291600799442,jump
10/07/2020, 20:30:09,-12.227324,5.8839507,11.332408,-0.7656367,-2.680339,0.46768558,17.679134217938675,2.8265079182137645,jump
10/07/2020, 20:30:09,-11.052447,5.3336015,12.926028,-0.7656367,-2.680339,0.46768558,17.8237510865119,2.8265079182137645,jump
10/07/2020, 20:30:09,-11.052447,5.3336015,12.926028,-0.96223557,-2.7829123,0.06227667,17.8237510865119,2.9452294122676954,jump
10/07/2020, 20:30:09,-11.263016,5.9988065,13.459627,-0.96223557,-2.7829123,0.06227667,18.54731155503339,2.9452294122676954,jump
10/07/2020, 20:30:09,-11.263016,5.9988065,13.459627,-1.4995245,-3.2701356,-0.28818223,18.54731155503339,3.6090732545536657,jump
10/07/2020, 20:30:09,-12.815958,6.0825553,13.196417,-1.4995245,-3.2701356,-0.28818223,19.375027142208914,3.6090732545536657,jump
10/07/2020, 20:30:09,-12.815958,6.0825553,13.196417,-2.07711,-4.0516467,-0.45059,19.375027142208914,4.575287814753688,jump
10/07/2020, 20:30:09,-14.842679,4.7808595,12.832707,-2.07711,-4.0516467,-0.45059,20.195051800426583,4.575287814753688,jump
10/07/2020, 20:30:09,-14.842679,4.7808595,12.832707,-2.251729,-4.8294945,-0.52996224,20.195051800426583,5.354919272571262,jump
10/07/2020, 20:30:09,-16.47937,2.4239295,12.660424,-2.251729,-4.8294945,-0.52996224,20.922031813337586,5.354919272571262,jump
10/07/2020, 20:30:09,-16.47937,2.4239295,12.660424,-1.8976067,-5.3093915,-0.7070234,20.922031813337586,5.682467021592979,jump
10/07/2020, 20:30:09,-17.417356,0.14356937,12.669996,-1.8976067,-5.3093915,-0.7070234,21.5386565172751,5.682467021592979,jump
10/07/2020, 20:30:09,-17.417356,0.14356937,12.669996,-1.2675134,-5.4656935,-0.9952056,21.5386565172751,5.698318129361799,jump
10/07/2020, 20:30:09,-17.757137,-1.1365907,12.655639,-1.2675134,-5.4656935,-0.9952056,21.83513119438886,5.698318129361799,jump
10/07/2020, 20:30:09,-17.757137,-1.1365907,12.655639,-0.74609894,-5.5291915,-1.1478444,21.83513119438886,5.696153881617775,jump
10/07/2020, 20:30:09,-17.781065,-1.0815558,12.294323,-0.74609894,-5.5291915,-1.1478444,21.644546942604773,5.696153881617775,jump
10/07/2020, 20:30:09,-17.781065,-1.0815558,12.294323,-0.5910178,-5.713579,-1.1454023,21.644546942604773,5.857152507666318,jump
10/07/2020, 20:30:09,-17.788244,-0.29192436,11.660225,-0.5910178,-5.713579,-1.1454023,21.27128812025311,5.857152507666318,jump
10/07/2020, 20:30:09,-17.788244,-0.29192436,11.660225,-0.86088336,-6.029847,-1.1551712,21.27128812025311,6.199564270469836,jump
10/07/2020, 20:30:09,-17.886349,0.47377887,11.102697,-0.86088336,-6.029847,-1.1551712,21.05744110889683,6.199564270469836,jump
10/07/2020, 20:30:10,-27.967312,-5.221139,6.5443697,0.90362227,5.946811,7.6636934,29.193485563444437,9.742345385169797,jump
10/07/2020, 20:30:10,-29.69493,-6.326623,8.252846,0.90362227,5.946811,7.6636934,31.463064646310144,9.742345385169797,jump
10/07/2020, 20:30:10,-29.69493,-6.326623,8.252846,2.1479344,5.2654314,7.5061703,31.463064646310144,9.417058053388258,jump
10/07/2020, 20:30:10,-29.864819,-6.680761,9.209974,2.1479344,5.2654314,7.5061703,31.958779395894666,9.417058053388258,jump
10/07/2020, 20:30:10,-29.864819,-6.680761,9.209974,3.1883214,4.755007,6.889509,31.958779395894666,8.95772402173004,jump
10/07/2020, 20:30:10,-28.610981,-6.257231,8.889337,3.1883214,4.755007,6.889509,30.606559439826317,8.95772402173004,jump
10/07/2020, 20:30:10,-28.610981,-6.257231,8.889337,3.7866657,4.4533925,6.1641693,30.606559439826317,8.495206005012253,jump
10/07/2020, 20:30:10,-26.495726,-5.2307105,7.288538,3.7866657,4.4533925,6.1641693,27.973319342301775,8.495206005012253,jump
10/07/2020, 20:30:10,-26.495726,-5.2307105,7.288538,3.9234302,4.205507,5.579257,27.973319342301775,8.012970786573897,jump
10/07/2020, 20:30:10,-24.555145,-3.9050865,5.410172,3.9234302,4.205507,5.579257,25.445526533006657,8.012970786573897,jump
10/07/2020, 20:30:10,-24.555145,-3.9050865,5.410172,3.7939923,3.8208568,5.0175457,25.445526533006657,7.3599652879546795,jump
10/07/2020, 20:30:10,-22.92324,-2.7349963,3.792624,3.7939923,3.8208568,5.0175457,23.39528080778577,7.3599652879546795,jump
10/07/2020, 20:30:10,-22.92324,-2.7349963,3.792624,3.470398,3.3446236,4.306859,23.39528080778577,6.463683416544113,jump
10/07/2020, 20:30:10,-21.341585,-1.7060826,2.629712,3.470398,3.3446236,4.306859,21.570566998668976,6.463683416544113,jump
10/07/2020, 20:30:10,-21.341585,-1.7060826,2.629712,3.010039,2.9245613,3.4520812,21.570566998668976,5.434175056184154,jump
10/07/2020, 20:30:10,-19.738394,-0.6867401,2.132005,3.010039,2.9245613,3.4520812,19.865076046659745,5.434175056184154,jump
10/07/2020, 20:30:10,-19.738394,-0.6867401,2.132005,2.5655546,2.5081623,2.6021879,19.865076046659745,4.432192476171352,jump
10/07/2020, 20:30:10,-18.333807,0.2321038,2.5698915,2.5655546,2.5081623,2.6021879,18.51449953563664,4.432192476171352,jump
10/07/2020, 20:30:10,-18.333807,0.2321038,2.5698915,2.2541711,2.18701,1.8182346,18.51449953563664,3.6290876788360373,jump
10/07/2020, 20:30:10,-16.902899,1.0097711,3.3906298,2.2541711,2.18701,1.8182346,17.26916313463519,3.6290876788360373,jump
10/07/2020, 20:30:11,-9.571291,-1.5984055,7.4584284,3.657228,-0.9524667,0.59468114,12.238981364953693,3.8257228232486726,jump
10/07/2020, 20:30:11,-9.571291,-1.5984055,7.4584284,2.6388211,-1.174709,0.1856089,12.238981364953693,2.8944375511903804,jump
10/07/2020, 20:30:11,-9.564112,0.078963146,8.874979,2.6388211,-1.174709,0.1856089,13.047747719916714,2.8944375511903804,jump
10/07/2020, 20:30:11,-9.564112,0.078963146,8.874979,1.3981723,-1.39573,-0.34313223,13.047747719916714,2.0051652493711036,jump
10/07/2020, 20:30:11,-9.777073,1.0839486,10.028319,1.3981723,-1.39573,-0.34313223,14.047536736930732,2.0051652493711036,jump
10/07/2020, 20:30:11,-9.777073,1.0839486,10.028319,0.07937223,-1.7119979,-0.9280445,14.047536736930732,1.9489749192853567,jump
10/07/2020, 20:30:11,-10.298709,0.90448695,10.918449,0.07937223,-1.7119979,-0.9280445,15.03642375439559,1.9489749192853567,jump
10/07/2020, 20:30:11,-10.298709,0.90448695,10.918449,-1.1295278,-2.0954268,-1.4836501,15.03642375439559,2.8049713219710672,jump
10/07/2020, 20:30:11,-10.942378,-0.526421,11.52862,-1.1295278,-2.0954268,-1.4836501,15.903516279595085,2.8049713219710672,jump
10/07/2020, 20:30:11,-10.942378,-0.526421,11.52862,-1.9928534,-2.4727502,-1.9623257,15.903516279595085,3.7331863461799015,jump
10/07/2020, 20:30:11,-11.62194,-2.7876384,11.844472,-1.9928534,-2.4727502,-1.9623257,16.826524441144326,3.7331863461799015,jump
10/07/2020, 20:30:11,-11.62194,-2.7876384,11.844472,-2.3909357,-2.8427467,-2.4031467,16.826524441144326,4.424126647908358,jump
10/07/2020, 20:30:11,-12.251252,-5.326423,11.806187,-2.3909357,-2.8427467,-2.4031467,17.82834842142977,4.424126647908358,jump
10/07/2020, 20:30:11,-12.251252,-5.326423,11.806187,-2.383609,-3.107728,-2.6705701,17.82834842142977,4.7404124641588945,jump
10/07/2020, 20:30:11,-12.7082815,-7.463214,11.801401,-2.383609,-3.107728,-2.6705701,18.880493901585183,4.7404124641588945,jump
10/07/2020, 20:30:11,-12.7082815,-7.463214,11.801401,-2.0954268,-3.1834369,-2.7157512,18.880493901585183,4.679785058905052,jump
10/07/2020, 20:30:11,-13.129417,-8.659625,11.686545,-2.0954268,-3.1834369,-2.7157512,19.594541346286483,4.679785058905052,jump
10/07/2020, 20:30:11,-13.129417,-8.659625,11.686545,-1.7681689,-3.1993113,-2.768259,19.594541346286483,4.5853322700205545,jump
10/07/2020, 20:30:11,-13.617554,-8.724232,11.641082,-1.7681689,-3.1993113,-2.768259,19.926484232826088,4.5853322700205545,jump
10/07/2020, 20:30:11,-13.617554,-8.724232,11.641082,-1.6106457,-3.1883214,-3.0356824,19.926484232826088,4.68774362937052,jump
10/07/2020, 20:30:12,-10.581061,-0.78723866,2.3808584,-4.590157,1.1576134,-1.559359,10.874147833207498,4.984095775904464,jump
10/07/2020, 20:30:12,-10.581061,-0.78723866,2.3808584,-4.951606,0.98055226,-1.669259,10.874147833207498,5.316606826096986,jump
10/07/2020, 20:30:12,-11.112268,-3.0795627,2.7349963,-4.951606,0.98055226,-1.669259,11.851009287115719,5.316606826096986,jump
10/07/2020, 20:30:12,-11.112268,-3.0795627,2.7349963,-5.251999,0.6423045,-1.67048,11.851009287115719,5.548562965179803,jump
10/07/2020, 20:30:12,-11.712867,-6.06102,3.1393833,-5.251999,0.6423045,-1.67048,13.556656596745427,5.548562965179803,jump
10/07/2020, 20:30:12,-11.712867,-6.06102,3.1393833,-5.259326,0.22590557,-1.3822979,13.556656596745427,5.442636356799503,jump
10/07/2020, 20:30:12,-12.086147,-8.997013,3.4121652,-5.259326,0.22590557,-1.3822979,15.448756339924751,5.442636356799503,jump
10/07/2020, 20:30:12,-12.086147,-8.997013,3.4121652,-4.82461,-0.117226675,-0.8437878,15.448756339924751,4.899243189528792,jump
10/07/2020, 20:30:12,-11.8588295,-11.073983,3.737589,-4.82461,-0.117226675,-0.8437878,16.650360700905313,4.899243189528792,jump
10/07/2020, 20:30:12,-11.8588295,-11.073983,3.737589,-4.001581,-0.32115224,-0.30405667,16.650360700905313,4.025946007925776,jump
10/07/2020, 20:30:12,-11.042876,-12.026326,4.139583,-4.001581,-0.32115224,-0.30405667,16.843805550955636,4.025946007925776,jump
10/07/2020, 20:30:12,-11.042876,-12.026326,4.139583,-2.9624157,-0.38220778,0.047623336,16.843805550955636,2.9873495813492856,jump
10/07/2020, 20:30:12,-9.829716,-11.949757,4.45065,-2.9624157,-0.38220778,0.047623336,16.100567753293063,2.9873495813492856,jump
10/07/2020, 20:30:12,-9.829716,-11.949757,4.45065,-1.867079,-0.35412225,0.20148334,16.100567753293063,1.911016004642597,jump
10/07/2020, 20:30:12,-8.52802,-11.100305,4.6468616,-1.867079,-0.35412225,0.20148334,14.749142622143749,1.911016004642597,jump
10/07/2020, 20:30:12,-8.52802,-11.100305,4.6468616,-0.83768225,-0.29306668,0.25521225,14.749142622143749,0.9234353889675839,jump
10/07/2020, 20:30:12,-7.381858,-9.930214,4.615755,-0.83768225,-0.29306668,0.25521225,13.206292790644225,0.9234353889675839,jump
10/07/2020, 20:30:12,-7.381858,-9.930214,4.615755,0.06105556,-0.23933779,0.28329778,13.206292790644225,0.3758563398696978,jump
10/07/2020, 20:30:12,-6.4845495,-8.60459,4.4243293,0.06105556,-0.23933779,0.28329778,11.647448146276934,0.3758563398696978,jump
10/07/2020, 20:30:12,-6.4845495,-8.60459,4.4243293,0.7949434,-0.2295689,0.30894113,11.647448146276934,0.8832222231229852,jump
10/07/2020, 20:30:13,-8.3174515,-3.101098,10.382458,1.4519012,0.41884112,0.5739222,13.659876896785557,1.6164255890556154,jump
10/07/2020, 20:30:13,-8.3174515,-3.101098,10.382458,1.1783723,0.3162678,0.46768558,13.659876896785557,1.3066431449755491,jump
10/07/2020, 20:30:13,-8.2145605,-2.8761728,11.263016,1.1783723,0.3162678,0.46768558,14.234004985822477,1.3066431449755491,jump
10/07/2020, 20:30:13,-8.2145605,-2.8761728,11.263016,0.88896894,0.1526389,0.36755446,14.234004985822477,0.9739921434306542,jump
10/07/2020, 20:30:13,-8.360522,-2.684747,11.696117,0.88896894,0.1526389,0.36755446,14.625503794454698,0.9739921434306542,jump
10/07/2020, 20:30:13,-8.360522,-2.684747,11.696117,0.59834445,-0.09036223,0.26498112,14.625503794454698,0.660603059227316,jump
10/07/2020, 20:30:13,-8.707481,-2.6775684,11.897114,0.59834445,-0.09036223,0.26498112,14.984355893949509,0.660603059227316,jump
10/07/2020, 20:30:13,-8.707481,-2.6775684,11.897114,0.23323223,-0.37366003,0.15019667,14.984355893949509,0.4653795544741909,jump
10/07/2020, 20:30:13,-9.142975,-2.8259234,11.863615,0.23323223,-0.37366003,0.15019667,15.242217496134714,0.4653795544741909,jump
10/07/2020, 20:30:13,-9.142975,-2.8259234,11.863615,-0.19049335,-0.70946556,-0.014653334,15.242217496134714,0.7347406483257627,jump
10/07/2020, 20:30:13,-9.619147,-3.2087753,11.779866,-0.19049335,-0.70946556,-0.014653334,15.543149028754058,0.7347406483257627,jump
10/07/2020, 20:30:13,-9.619147,-3.2087753,11.779866,-0.6105556,-1.1234223,-0.26986557,15.543149028754058,1.3067835093517641,jump
10/07/2020, 20:30:13,-10.150353,-3.8691943,11.748759,-0.6105556,-1.1234223,-0.26986557,16.00105257346573,1.3067835093517641,jump
10/07/2020, 20:30:13,-10.150353,-3.8691943,11.748759,-0.94758224,-1.5532534,-0.59590226,16.00105257346573,1.9145777032640547,jump
10/07/2020, 20:30:13,-10.628919,-4.706682,11.801401,-0.94758224,-1.5532534,-0.59590226,16.565018497689056,1.9145777032640547,jump
10/07/2020, 20:30:13,-10.628919,-4.706682,11.801401,-1.1283067,-1.9464512,-0.9072856,16.565018497689056,2.4258844666588035,jump
10/07/2020, 20:30:13,-11.01177,-5.4460645,11.849257,-1.1283067,-1.9464512,-0.9072856,17.068204498717225,2.4258844666588035,jump
10/07/2020, 20:30:13,-11.01177,-5.4460645,11.849257,-1.1527289,-2.2822568,-1.1392968,17.068204498717225,2.7991922716427093,jump
10/07/2020, 20:30:13,-11.334801,-5.864808,11.940185,-1.1527289,-2.2822568,-1.1392968,17.47689015048708,2.7991922716427093,jump
10/07/2020, 20:30:13,-11.334801,-5.864808,11.940185,-1.1270856,-2.5533435,-1.3542123,17.47689015048708,3.1022211380964126,jump
10/07/2020, 20:30:14,-10.475778,1.7754744,1.2131611,-2.9086869,1.4763234,-1.9745368,10.694203392475435,3.8129759385219186,jump
10/07/2020, 20:30:14,-10.475778,1.7754744,1.2131611,-3.5338957,1.3212423,-2.1039746,10.694203392475435,4.319815895957701,jump
10/07/2020, 20:30:14,-11.207981,0.31106696,1.1150553,-3.5338957,1.3212423,-2.1039746,11.26760629312367,4.319815895957701,jump
10/07/2020, 20:30:14,-11.207981,0.31106696,1.1150553,-3.9759378,1.1173167,-2.1894524,11.26760629312367,4.674417637279068,jump
10/07/2020, 20:30:14,-11.669796,-1.5026926,1.6271194,-3.9759378,1.1173167,-2.1894524,11.878120265932887,4.674417637279068,jump
10/07/2020, 20:30:14,-11.669796,-1.5026926,1.6271194,-4.260457,0.9085067,-2.1857889,11.878120265932887,4.873864131482453,jump
10/07/2020, 20:30:14,-11.911471,-3.9026937,2.053042,-4.260457,0.9085067,-2.1857889,12.701541237392007,4.873864131482453,jump
10/07/2020, 20:30:14,-11.911471,-3.9026937,2.053042,-4.34105,0.6984756,-2.0160546,12.701541237392007,4.8370508393662215,jump
10/07/2020, 20:30:14,-12.124433,-6.4534426,2.7062824,-4.34105,0.6984756,-2.0160546,13.999026764355474,4.8370508393662215,jump
10/07/2020, 20:30:14,-12.124433,-6.4534426,2.7062824,-4.0699635,0.52996224,-1.61553,13.999026764355474,4.410827556195924,jump
10/07/2020, 20:30:14,-12.201003,-8.745767,3.2422748,-4.0699635,0.52996224,-1.61553,15.35790531846353,4.410827556195924,jump
10/07/2020, 20:30:14,-12.201003,-8.745767,3.2422748,-3.4239957,0.40296668,-1.0794623,15.35790531846353,3.6126676791819303,jump
10/07/2020, 20:30:14,-11.937792,-10.399207,3.7830527,-3.4239957,0.40296668,-1.0794623,16.277772263641918,3.6126676791819303,jump
10/07/2020, 20:30:14,-11.937792,-10.399207,3.7830527,-2.5447958,0.28940335,-0.5470578,16.277772263641918,2.6189715463154504,jump
10/07/2020, 20:30:14,-11.260623,-11.16491,4.1347976,-2.5447958,0.28940335,-0.5470578,16.387599067666574,2.6189715463154504,jump
10/07/2020, 20:30:14,-11.260623,-11.16491,4.1347976,-1.5850023,0.17950334,-0.14531223,16.387599067666574,1.6017394901511361,jump
10/07/2020, 20:30:14,-10.253245,-10.944771,4.2999024,-1.5850023,0.17950334,-0.14531223,15.601481000786842,1.6017394901511361,jump
10/07/2020, 20:30:14,-10.253245,-10.944771,4.2999024,-0.65940005,0.05250778,0.09402556,15.601481000786842,0.6681364332149298,jump
10/07/2020, 20:30:14,-9.114262,-10.126426,4.4339004,-0.65940005,0.05250778,0.09402556,14.327377139906417,0.6681364332149298,jump
10/07/2020, 20:30:14,-9.114262,-10.126426,4.4339004,0.16607112,-0.05006556,0.22224224,14.327377139906417,0.28191805110369333,jump
10/07/2020, 20:30:15,-12.29193,-15.907485,4.421936,5.1799536,-0.21003112,5.6146693,20.583807849747995,7.64202484417675,jump
10/07/2020, 20:30:15,-10.147961,-13.2610235,4.8502517,5.1799536,-0.21003112,5.6146693,17.388524714816754,7.64202484417675,jump
10/07/2020, 20:30:15,-10.147961,-13.2610235,4.8502517,6.0591536,0.35778558,5.73678,17.388524714816754,8.351766222089676,jump
10/07/2020, 20:30:15,-8.602198,-9.908679,5.35753,6.0591536,0.35778558,5.73678,14.173314820739268,8.351766222089676,jump
10/07/2020, 20:30:15,-8.602198,-9.908679,5.35753,6.239878,0.8865267,5.182396,14.173314820739268,8.159610094615225,jump
10/07/2020, 20:30:15,-8.092526,-7.3627152,5.721239,6.239878,0.8865267,5.182396,12.346300523155302,8.159610094615225,jump
10/07/2020, 20:30:15,-8.092526,-7.3627152,5.721239,6.333904,1.2675134,4.3434925,12.346300523155302,7.784012756043903,jump
10/07/2020, 20:30:15,-8.707481,-6.7405815,6.216553,6.333904,1.2675134,4.3434925,12.645204822831744,7.784012756043903,jump
10/07/2020, 20:30:15,-8.707481,-6.7405815,6.216553,6.686805,1.4348056,3.537559,12.645204822831744,7.699762928799041,jump
10/07/2020, 20:30:15,-10.0163555,-7.82453,6.8506513,6.686805,1.4348056,3.537559,14.438908276207009,7.699762928799041,jump
10/07/2020, 20:30:15,-10.0163555,-7.82453,6.8506513,7.3633003,1.4006145,2.9636369,14.438908276207009,8.05996626291677,jump
10/07/2020, 20:30:15,-11.196017,-9.724431,7.446464,7.3633003,1.4006145,2.9636369,16.59413115047031,8.05996626291677,jump
10/07/2020, 20:30:15,-11.196017,-9.724431,7.446464,8.06666,1.3200212,2.6510324,16.59413115047031,8.59310370391355,jump
10/07/2020, 20:30:15,-11.420942,-11.212767,7.9154572,8.06666,1.3200212,2.6510324,17.855489982420075,8.59310370391355,jump
10/07/2020, 20:30:15,-11.420942,-11.212767,7.9154572,8.520914,1.4189311,2.53869,17.855489982420075,9.003570938052418,jump
10/07/2020, 20:30:15,-10.662417,-11.222338,8.003992,8.520914,1.4189311,2.53869,17.426758110886905,9.003570938052418,jump
10/07/2020, 20:30:15,-10.662417,-11.222338,8.003992,8.562431,1.7046711,2.339649,17.426758110886905,9.038533694721144,jump
10/07/2020, 20:30:15,-9.631111,-10.305887,7.173682,8.562431,1.7046711,2.339649,15.82502226908222,9.038533694721144,jump
10/07/2020, 20:30:15,-9.631111,-10.305887,7.173682,7.949434,1.8414357,2.0172756,15.82502226908222,8.405580518900468,jump
10/07/2020, 20:30:15,-8.877372,-8.537591,6.1710896,7.949434,1.8414357,2.0172756,13.776085694859509,8.405580518900468,jump
10/07/2020, 20:30:16,-36.437904,-8.13799,9.60479,1.7608423,2.8574002,7.0592437,38.551261211972225,7.816535216457904,jump
10/07/2020, 20:30:16,-33.616764,-9.62154,9.564112,1.7608423,2.8574002,7.0592437,36.25097367724479,7.816535216457904,jump
10/07/2020, 20:30:16,-33.616764,-9.62154,9.564112,1.6521634,2.4324534,6.960334,36.25097367724479,7.555972492840625,jump
10/07/2020, 20:30:16,-29.57768,-9.006584,8.480164,1.6521634,2.4324534,6.960334,32.06042609765936,7.555972492840625,jump
10/07/2020, 20:30:16,-29.57768,-9.006584,8.480164,1.3346745,2.16503,6.492648,32.06042609765936,6.97303309502625,jump
10/07/2020, 20:30:16,-25.505096,-7.8029947,6.2691956,1.3346745,2.16503,6.492648,27.398895668265965,6.97303309502625,jump
10/07/2020, 20:30:16,-25.505096,-7.8029947,6.2691956,1.1392968,1.6118667,5.6757245,27.398895668265965,6.009156355241922,jump
10/07/2020, 20:30:16,-22.136002,-7.094719,5.0416775,1.1392968,1.6118667,5.6757245,23.785628323786263,6.009156355241922,jump
10/07/2020, 20:30:16,-22.136002,-7.094719,5.0416775,1.2125634,0.9329289,4.6194634,23.785628323786263,4.8662212101065165,jump
10/07/2020, 20:30:16,-18.805193,-6.800402,4.113262,1.2125634,0.9329289,4.6194634,20.415672340621057,4.8662212101065165,jump
10/07/2020, 20:30:16,-18.805193,-6.800402,4.113262,1.4433534,0.5226356,3.54977,20.415672340621057,3.8674649203284637,jump
10/07/2020, 20:30:16,-15.438492,-6.1567326,4.26401,1.4433534,0.5226356,3.54977,17.159084078032176,3.8674649203284637,jump
10/07/2020, 20:30:16,-15.438492,-6.1567326,4.26401,1.7522945,0.5678167,2.5973034,17.159084078032176,3.184169724548315,jump
10/07/2020, 20:30:16,-12.239287,-5.046463,5.285745,1.7522945,0.5678167,2.5973034,14.255035817101977,3.184169724548315,jump
10/07/2020, 20:30:16,-12.239287,-5.046463,5.285745,2.074668,1.0061955,1.8683001,14.255035817101977,2.967696360393471,jump
10/07/2020, 20:30:16,-9.523434,-3.0819557,6.2883377,2.074668,1.0061955,1.8683001,11.821058795306506,2.967696360393471,jump
10/07/2020, 20:30:16,-9.523434,-3.0819557,6.2883377,2.1955578,1.5215045,1.3065889,11.821058795306506,2.9736551124908583,jump
10/07/2020, 20:30:16,-7.685746,-0.18424734,6.4869423,2.1955578,1.5215045,1.3065889,10.059078581875484,2.9736551124908583,jump
10/07/2020, 20:30:16,-7.685746,-0.18424734,6.4869423,2.0209389,1.8658578,0.71557117,10.059078581875484,2.8421227101267132,jump
10/07/2020, 20:30:16,-6.977471,3.0460632,5.692525,2.0209389,1.8658578,0.71557117,9.50623167109734,2.8421227101267132,jump
10/07/2020, 20:30:17,-6.8745794,1.875973,1.5122639,0.06716111,1.2797245,3.1687834,7.284645431633363,3.418097973908747,jump
10/07/2020, 20:30:17,-6.8745794,1.875973,1.5122639,-0.026864445,1.4677756,3.5729713,7.284645431633363,3.8627983491550655,jump
10/07/2020, 20:30:17,-7.1784678,2.333002,1.9238294,-0.026864445,1.4677756,3.5729713,7.789378518195309,3.8627983491550655,jump
10/07/2020, 20:30:17,-7.1784678,2.333002,1.9238294,-0.22712667,1.636289,3.8843546,7.789378518195309,4.2210471224821,jump
10/07/2020, 20:30:17,-8.202596,1.6366907,2.7349963,-0.22712667,1.636289,3.8843546,8.800087375858194,4.2210471224821,jump
10/07/2020, 20:30:17,-8.202596,1.6366907,2.7349963,-0.4163989,1.7657267,4.072406,8.800087375858194,4.458213532963932,jump
10/07/2020, 20:30:17,-9.887143,-0.05742774,3.9361932,-0.4163989,1.7657267,4.072406,10.642016465182136,4.458213532963932,jump
10/07/2020, 20:30:17,-9.887143,-0.05742774,3.9361932,-0.4481478,1.8499835,4.11026,10.642016465182136,4.52962609724597,jump
10/07/2020, 20:30:17,-11.940185,-2.6536403,4.9292145,-0.4481478,1.8499835,4.11026,13.187379200170547,4.52962609724597,jump
10/07/2020, 20:30:17,-11.940185,-2.6536403,4.9292145,-0.035412222,1.7864857,4.0614157,13.187379200170547,4.43710292251042,jump
10/07/2020, 20:30:17,-14.0602255,-5.3718867,5.426922,-0.035412222,1.7864857,4.0614157,15.999955890144234,4.43710292251042,jump
10/07/2020, 20:30:17,-14.0602255,-5.3718867,5.426922,0.8547778,1.3590968,4.073627,15.999955890144234,4.378610056018429,jump
10/07/2020, 20:30:17,-15.498312,-7.578069,5.2666025,0.8547778,1.3590968,4.073627,18.03779115510915,4.378610056018429,jump
10/07/2020, 20:30:17,-15.498312,-7.578069,5.2666025,1.9476722,0.85599893,4.22016,18.03779115510915,4.726088429952554,jump
10/07/2020, 20:30:17,-15.584454,-8.329415,4.7042894,1.9476722,0.85599893,4.22016,18.286188563222257,4.726088429952554,jump
10/07/2020, 20:30:17,-15.584454,-8.329415,4.7042894,2.8427467,0.5470578,4.33006,18.286188563222257,5.208637143284555,jump
10/07/2020, 20:30:17,-14.431113,-7.4392858,4.1898327,2.8427467,0.5470578,4.33006,16.767668291398568,5.208637143284555,jump
10/07/2020, 20:30:17,-14.431113,-7.4392858,4.1898327,3.3299701,0.55316335,4.226266,16.767668291398568,5.408882899433263,jump
10/07/2020, 20:30:17,-12.873385,-6.058627,3.737589,3.3299701,0.55316335,4.226266,14.71056034796228,5.408882899433263,jump
10/07/2020, 20:30:17,-12.873385,-6.058627,3.737589,3.3714879,0.7424356,3.9026713,14.71056034796228,5.21046874191997,jump
10/07/2020, 20:30:18,-5.8911295,-2.5914268,2.5746772,1.3420012,3.262809,7.754056,6.931800823773649,8.51893620893868,jump
10/07/2020, 20:30:18,-6.9822564,-2.8953154,2.6656044,1.3420012,3.262809,7.754056,8.014998595904332,8.51893620893868,jump
10/07/2020, 20:30:18,-6.9822564,-2.8953154,2.6656044,1.4812078,3.6120467,8.025143,8.014998595904332,8.924336000722422,jump
10/07/2020, 20:30:18,-8.183454,-3.0173492,2.725425,1.4812078,3.6120467,8.025143,9.137901842300446,8.924336000722422,jump
10/07/2020, 20:30:18,-8.183454,-3.0173492,2.725425,1.6094245,3.9405258,8.36339,9.137901842300446,9.384257149478964,jump
10/07/2020, 20:30:18,-9.745967,-3.0532417,2.617748,1.6094245,3.9405258,8.36339,10.543185515002996,9.384257149478964,jump
10/07/2020, 20:30:18,-9.745967,-3.0532417,2.617748,1.7413045,4.2226024,8.741935,10.543185515002996,9.863261925274708,jump
10/07/2020, 20:30:18,-11.669796,-2.9958138,2.6751757,1.7413045,4.2226024,8.741935,12.341620797111243,9.863261925274708,jump
10/07/2020, 20:30:18,-11.669796,-2.9958138,2.6751757,1.8951645,4.5010157,9.111932,12.341620797111243,10.338186087814917,jump
10/07/2020, 20:30:18,-14.170296,-2.902494,3.0029924,1.8951645,4.5010157,9.111932,14.772938607981002,10.338186087814917,jump
10/07/2020, 20:30:18,-14.170296,-2.902494,3.0029924,2.1113012,4.8380423,9.397672,14.772938607981002,10.778704883347125,jump
10/07/2020, 20:30:18,-17.443678,-3.103491,3.5318062,2.1113012,4.8380423,9.397672,18.06618971490735,10.778704883347125,jump
10/07/2020, 20:30:18,-17.443678,-3.103491,3.5318062,2.536248,5.065169,9.512456,18.06618971490735,11.071373326262473,jump
10/07/2020, 20:30:18,-21.78665,-4.0007997,4.5272202,2.536248,5.065169,9.512456,22.608852832358018,11.071373326262473,jump
10/07/2020, 20:30:18,-21.78665,-4.0007997,4.5272202,3.4520812,4.9833546,9.469717,22.608852832358018,11.243941832756002,jump
10/07/2020, 20:30:18,-27.038897,-6.056234,5.8839507,3.4520812,4.9833546,9.469717,28.32667950932813,11.243941832756002,jump
10/07/2020, 20:30:18,-27.038897,-6.056234,5.8839507,4.952827,4.459498,9.267013,28.32667950932813,11.41468962758431,jump
10/07/2020, 20:30:18,-31.508688,-9.013762,7.393822,4.952827,4.459498,9.267013,33.59633816867425,11.41468962758431,jump
10/07/2020, 20:30:18,-31.508688,-9.013762,7.393822,6.620865,3.5644236,8.812759,33.59633816867425,11.584718173410508,jump
10/07/2020, 20:30:18,-32.92763,-11.176874,8.786445,6.620865,3.5644236,8.812759,35.86576409357634,11.584718173410508,jump
10/07/2020, 20:30:19,-10.392029,-0.8925229,0.1794617,-0.49821335,-0.21980001,0.71557117,10.431829481808089,0.8992055825713126,jump
10/07/2020, 20:30:19,-10.392029,-0.8925229,0.1794617,-0.74121445,-0.24910668,0.7949434,10.431829481808089,1.115073091650539,jump
10/07/2020, 20:30:19,-9.769895,-0.72741807,0.37328035,-0.74121445,-0.24910668,0.7949434,9.804045886869105,1.115073091650539,jump
10/07/2020, 20:30:19,-9.769895,-0.72741807,0.37328035,-0.96712005,-0.123332225,0.8669889,9.804045886869105,1.304684551737345,jump
10/07/2020, 20:30:19,-9.18126,-0.6125626,0.66759753,-0.96712005,-0.123332225,0.8669889,9.22585804075953,1.304684551737345,jump
10/07/2020, 20:30:19,-9.18126,-0.6125626,0.66759753,-1.130749,0.09646778,0.95735115,9.22585804075953,1.4847291083160508,jump
10/07/2020, 20:30:19,-8.855837,-0.39960137,0.7896315,-1.130749,0.09646778,0.95735115,8.899946391763548,1.4847291083160508,jump
10/07/2020, 20:30:19,-8.855837,-0.39960137,0.7896315,-1.2455333,0.29795113,1.0562612,8.899946391763548,1.6600650228685307,jump
10/07/2020, 20:30:19,-8.82473,-0.15553348,0.6723832,-1.2455333,0.29795113,1.0562612,8.85167486788468,1.6600650228685307,jump
10/07/2020, 20:30:19,-8.82473,-0.15553348,0.6723832,-1.3871822,0.40296668,1.1527289,8.85167486788468,1.8480910829166095,jump
10/07/2020, 20:30:19,-8.985049,0.0023928226,0.4354937,-1.3871822,0.40296668,1.1527289,8.995597283079796,1.8480910829166095,jump
10/07/2020, 20:30:19,-8.985049,0.0023928226,0.4354937,-1.6008767,0.43960002,1.2760612,8.995597283079796,2.093892661884476,jump
10/07/2020, 20:30:19,-9.119047,0.0526421,0.19621146,-1.6008767,0.43960002,1.2760612,9.121309737235316,2.093892661884476,jump
10/07/2020, 20:30:19,-9.119047,0.0526421,0.19621146,-1.8719634,0.46402225,1.4653333,9.121309737235316,2.4221406554996596,jump
10/07/2020, 20:30:19,-9.21476,0.0023928226,0.086141616,-1.8719634,0.46402225,1.4653333,9.215162763980649,2.4221406554996596,jump
10/07/2020, 20:30:19,-9.21476,0.0023928226,0.086141616,-2.1430502,0.48356003,1.7181034,9.215162763980649,2.788973602405121,jump
10/07/2020, 20:30:19,-9.2075815,-0.2321038,0.0741775,-2.1430502,0.48356003,1.7181034,9.210805172325275,2.788973602405121,jump
10/07/2020, 20:30:19,-9.2075815,-0.2321038,0.0741775,-2.3811667,0.53851,2.0160546,9.210805172325275,3.1661371030897136,jump
10/07/2020, 20:30:19,-9.066405,-0.5479564,0.12203395,-2.3811667,0.53851,2.0160546,9.083768684149721,3.1661371030897136,jump
10/07/2020, 20:30:19,-9.066405,-0.5479564,0.12203395,-2.5472379,0.60811335,2.328659,9.083768684149721,3.5044080289353974,jump
10/07/2020, 20:30:20,2.5698915,0.36370903,0.89491564,-0.45547447,0.8853056,3.437428,2.7454508450922903,3.578705660431001,jump
10/07/2020, 20:30:20,2.481357,0.24646074,1.0504491,-0.45547447,0.8853056,3.437428,2.705793658259729,3.578705660431001,jump
10/07/2020, 20:30:20,2.481357,0.24646074,1.0504491,-0.40052447,1.0379444,3.867259,2.705793658259729,4.024107462793054,jump
10/07/2020, 20:30:20,2.333002,0.1794617,1.1700903,-0.40052447,1.0379444,3.867259,2.616145372191161,4.024107462793054,jump
10/07/2020, 20:30:20,2.333002,0.1794617,1.1700903,-0.3309211,1.2027946,4.287321,2.616145372191161,4.465125491188197,jump
10/07/2020, 20:30:20,2.1272194,0.0023928226,1.2323036,-0.3309211,1.2027946,4.287321,2.458381678199325,4.465125491188197,jump
10/07/2020, 20:30:20,2.1272194,0.0023928226,1.2323036,-0.2759711,1.3786345,4.6963935,2.458381678199325,4.902336669589757,jump
10/07/2020, 20:30:20,1.7922242,-0.15074782,1.2753744,-0.2759711,1.3786345,4.6963935,2.2048519834128446,4.902336669589757,jump
10/07/2020, 20:30:20,1.7922242,-0.15074782,1.2753744,-0.23567446,1.5495901,5.096918,2.2048519834128446,5.3324802991290206,jump
10/07/2020, 20:30:20,1.3328022,-0.37088752,1.2586247,-0.23567446,1.5495901,5.096918,1.8703088674815762,5.3324802991290206,jump
10/07/2020, 20:30:20,1.3328022,-0.37088752,1.2586247,-0.20270446,1.7010078,5.491337,1.8703088674815762,5.75232969136256,jump
10/07/2020, 20:30:20,0.8350951,-0.6556334,1.3591232,-0.20270446,1.7010078,5.491337,1.724660817364549,5.75232969136256,jump
10/07/2020, 20:30:20,0.8350951,-0.6556334,1.3591232,-0.16485001,1.8426567,5.869881,1.724660817364549,6.154515749302236,jump
10/07/2020, 20:30:20,0.28235307,-0.92602235,1.430908,-0.16485001,1.8426567,5.869881,1.7276395039632637,6.154515749302236,jump
10/07/2020, 20:30:20,0.28235307,-0.92602235,1.430908,-0.13188,1.9733156,6.228888,1.7276395039632637,6.535320415136522,jump
10/07/2020, 20:30:20,-0.24885355,-1.1557333,1.5409778,-0.13188,1.9733156,6.228888,1.9422307659589084,6.535320415136522,jump
10/07/2020, 20:30:20,-0.24885355,-1.1557333,1.5409778,-0.14042778,2.1357234,6.5622516,1.9422307659589084,6.9024763556296085,jump
10/07/2020, 20:30:20,-0.7800602,-1.227518,1.6031911,-0.14042778,2.1357234,6.5622516,2.164605285723057,6.9024763556296085,jump
10/07/2020, 20:30:20,-0.7800602,-1.227518,1.6031911,-0.22590557,2.3152268,6.865087,2.164605285723057,7.2484983542146315,jump
10/07/2020, 20:30:20,-1.3686945,-1.2753744,1.6366907,-0.22590557,2.3152268,6.865087,2.4856912944280634,7.2484983542146315,jump
10/07/2020, 20:30:21,-5.424529,-1.9549361,4.0965123,0.6203245,0.90240115,0.61666113,7.073097214008124,1.2567423208857762,jump
10/07/2020, 20:30:21,-5.424529,-1.9549361,4.0965123,0.7351089,0.9976478,0.81570226,7.073097214008124,1.4835957890397895,jump
10/07/2020, 20:30:21,-5.761917,-2.1080768,4.1108694,0.7351089,0.9976478,0.81570226,7.385318135242982,1.4835957890397895,jump
10/07/2020, 20:30:21,-5.761917,-2.1080768,4.1108694,0.8669889,1.0843467,1.0123012,7.385318135242982,1.7182057917240747,jump
10/07/2020, 20:30:21,-6.178268,-2.2325034,4.156333,0.8669889,1.0843467,1.0123012,7.773684466349049,1.7182057917240747,jump
10/07/2020, 20:30:21,-6.178268,-2.2325034,4.156333,0.9976478,1.1600556,1.1991311,7.773684466349049,1.9439510611289474,jump
10/07/2020, 20:30:21,-6.6305118,-2.3377876,4.1922255,0.9976478,1.1600556,1.1991311,8.185578261754422,1.9439510611289474,jump
10/07/2020, 20:30:21,-6.6305118,-2.3377876,4.1922255,1.1148745,1.2150056,1.3737501,8.185578261754422,2.1462462855915883,jump
10/07/2020, 20:30:21,-7.176075,-2.3784657,4.2329035,1.1148745,1.2150056,1.3737501,8.66433049221174,2.1462462855915883,jump
10/07/2020, 20:30:21,-7.176075,-2.3784657,4.2329035,1.2125634,1.2516389,1.5337156,8.66433049221174,2.321463645337665,jump
10/07/2020, 20:30:21,-7.7407813,-2.361716,4.261617,1.2125634,1.2516389,1.5337156,9.146517308923356,2.321463645337665,jump
10/07/2020, 20:30:21,-7.7407813,-2.361716,4.261617,1.2797245,1.2565234,1.6717012,9.146517308923356,2.4517607144372353,jump
10/07/2020, 20:30:21,-8.276773,-2.333002,4.3094735,1.2797245,1.2565234,1.6717012,9.61870259000782,2.4517607144372353,jump
10/07/2020, 20:30:21,-8.276773,-2.333002,4.3094735,1.3188001,1.240649,1.7877067,9.61870259000782,2.5444722336975736,jump
10/07/2020, 20:30:21,-8.819944,-2.2492533,4.371687,1.3188001,1.240649,1.7877067,10.097633675472549,2.5444722336975736,jump
10/07/2020, 20:30:21,-8.819944,-2.2492533,4.371687,1.3188001,1.2162267,1.8768479,10.097633675472549,2.596343382911597,jump
10/07/2020, 20:30:21,-9.343972,-2.1296122,4.3405805,1.3188001,1.2162267,1.8768479,10.520727327611716,2.596343382911597,jump
10/07/2020, 20:30:21,-9.343972,-2.1296122,4.3405805,1.2577446,1.1966889,1.9537779,10.520727327611716,2.6136629036962082,jump
10/07/2020, 20:30:21,-9.805787,-1.98365,4.213761,1.2577446,1.1966889,1.9537779,10.855602613864015,2.6136629036962082,jump
10/07/2020, 20:30:21,-9.805787,-1.98365,4.213761,1.1429601,1.1600556,2.009949,10.855602613864015,2.5868864807892162,jump
10/07/2020, 20:30:22,1.8424734,-0.12921242,0.22013968,-0.045181114,0.61544,1.9403456,1.8600713735571752,2.036111235206062,jump
10/07/2020, 20:30:22,1.8424734,-0.12921242,0.22013968,-0.07693,0.7387723,2.35186,1.8600713735571752,2.4663633905711895,jump
10/07/2020, 20:30:22,1.7467605,-0.16749759,0.22731815,-0.07693,0.7387723,2.35186,1.7694352732416387,2.4663633905711895,jump
10/07/2020, 20:30:22,1.7467605,-0.16749759,0.22731815,-0.081814446,0.8535567,2.756048,1.7694352732416387,2.8863563555774387,jump
10/07/2020, 20:30:22,1.605584,-0.32303107,0.30149564,-0.081814446,0.8535567,2.756048,1.6652773808544916,2.8863563555774387,jump
10/07/2020, 20:30:22,1.605584,-0.32303107,0.30149564,-0.054950003,0.9634567,3.1541302,1.6652773808544916,3.298455054144799,jump
10/07/2020, 20:30:22,1.4045869,-0.5024927,0.47377887,-0.054950003,0.9634567,3.1541302,1.5651931995115562,3.298455054144799,jump
10/07/2020, 20:30:22,1.4045869,-0.5024927,0.47377887,0.0,1.0928944,3.5387802,1.5651931995115562,3.703698642922899,jump
10/07/2020, 20:30:22,1.1413764,-0.7369894,0.6628119,0.0,1.0928944,3.5387802,1.5116920846483417,3.703698642922899,jump
10/07/2020, 20:30:22,1.1413764,-0.7369894,0.6628119,0.085477784,1.240649,3.9161036,1.5116920846483417,4.108817807191604,jump
10/07/2020, 20:30:22,0.81834537,-0.9810573,0.81834537,0.085477784,1.240649,3.9161036,1.5171854472289432,4.108817807191604,jump
10/07/2020, 20:30:22,0.81834537,-0.9810573,0.81834537,0.1746189,1.3835189,4.2714467,1.5171854472289432,4.49331429505002,jump
10/07/2020, 20:30:22,0.39960137,-1.1988041,0.9810573,0.1746189,1.3835189,4.2714467,1.5997768657568199,4.49331429505002,jump
10/07/2020, 20:30:22,0.39960137,-1.1988041,0.9810573,0.23933779,1.5215045,4.623127,1.5997768657568199,4.872941790308469,jump
10/07/2020, 20:30:22,-0.1052842,-1.3782659,1.1078769,0.23933779,1.5215045,4.623127,1.771466272800077,4.872941790308469,jump
10/07/2020, 20:30:22,-0.1052842,-1.3782659,1.1078769,0.24178001,1.6582689,4.951606,1.771466272800077,5.227495899661167,jump
10/07/2020, 20:30:22,-0.62931234,-1.5361922,1.2011969,0.24178001,1.6582689,4.951606,2.049096005767956,5.227495899661167,jump
10/07/2020, 20:30:22,-0.62931234,-1.5361922,1.2011969,0.17706113,1.8170134,5.273979,2.049096005767956,5.581016461266215,jump
10/07/2020, 20:30:22,-1.1557333,-1.5409778,1.2346965,0.17706113,1.8170134,5.273979,2.287970219370556,5.581016461266215,jump
10/07/2020, 20:30:22,-1.1557333,-1.5409778,1.2346965,0.102573335,1.9684312,5.5987945,2.287970219370556,5.935633262099277,jump
10/07/2020, 20:30:23,-9.549755,-2.132005,2.6201408,0.6447467,-0.68138003,-3.173668,10.129580711218601,3.3094025249994394,jump
10/07/2020, 20:30:23,-9.549755,-2.132005,2.6201408,0.62154555,-0.59590226,-3.0075967,10.129580711218601,3.128427157619827,jump
10/07/2020, 20:30:23,-8.946764,-1.8711873,2.5172493,0.62154555,-0.59590226,-3.0075967,9.480636699305487,3.128427157619827,jump
10/07/2020, 20:30:23,-8.946764,-1.8711873,2.5172493,0.6020078,-0.47501224,-2.8403046,9.480636699305487,2.94200277445909,jump
10/07/2020, 20:30:23,-8.456235,-1.7515461,2.4382863,0.6020078,-0.47501224,-2.8403046,8.973352953222513,2.94200277445909,jump
10/07/2020, 20:30:23,-8.456235,-1.7515461,2.4382863,0.5836911,-0.35656446,-2.6644645,8.973352953222513,2.750855225411136,jump
10/07/2020, 20:30:23,-8.190632,-1.7515461,2.2899313,0.5836911,-0.35656446,-2.6644645,8.683210789472732,2.750855225411136,jump
10/07/2020, 20:30:23,-8.190632,-1.7515461,2.2899313,0.58491224,-0.27108666,-2.4739711,8.683210789472732,2.5565882445997596,jump
10/07/2020, 20:30:23,-8.01117,-1.7778672,2.1128623,0.58491224,-0.27108666,-2.4739711,8.473715244889862,2.5565882445997596,jump
10/07/2020, 20:30:23,-8.01117,-1.7778672,2.1128623,0.58979666,-0.23567446,-2.26394,8.473715244889862,2.3513458507470704,jump
10/07/2020, 20:30:23,-7.8699937,-1.7922242,1.9190438,0.58979666,-0.23567446,-2.26394,8.296481008633807,2.3513458507470704,jump
10/07/2020, 20:30:23,-7.8699937,-1.7922242,1.9190438,0.5788067,-0.21613668,-2.0502455,8.296481008633807,2.1413171097464816,jump
10/07/2020, 20:30:23,-7.6737823,-1.7419748,1.7108682,0.5788067,-0.21613668,-2.0502455,8.052855516978134,2.1413171097464816,jump
10/07/2020, 20:30:23,-7.6737823,-1.7419748,1.7108682,0.5421733,-0.19782001,-1.8414357,8.052855516978134,1.9297590525290145,jump
10/07/2020, 20:30:23,-7.4105716,-1.6462619,1.6295122,0.5421733,-0.19782001,-1.8414357,7.764152200618437,1.9297590525290145,jump
10/07/2020, 20:30:23,-7.4105716,-1.6462619,1.6295122,0.49455002,-0.17217667,-1.636289,7.764152200618437,1.7180413912524015,jump
10/07/2020, 20:30:23,-7.0875406,-1.5864414,1.6749759,0.49455002,-0.17217667,-1.636289,7.45356106923407,1.7180413912524015,jump
10/07/2020, 20:30:23,-7.0875406,-1.5864414,1.6749759,0.43471557,-0.11600556,-1.4372479,7.45356106923407,1.5060266807071645,jump
10/07/2020, 20:30:23,-6.769295,-1.5672989,1.7826529,0.43471557,-0.11600556,-1.4372479,7.173397711346464,1.5060266807071645,jump
10/07/2020, 20:30:23,-6.769295,-1.5672989,1.7826529,0.38831335,-0.015874445,-1.23088,7.173397711346464,1.290776854015907,jump
10/07/2020, 20:30:24,0.79441714,0.8542377,0.66759753,-1.4250367,-0.7534256,-1.5471479,1.3440636400510848,2.234288739429781,jump
10/07/2020, 20:30:24,1.308874,0.7178468,0.68195444,-1.4250367,-0.7534256,-1.5471479,1.6411937982834564,2.234288739429781,jump
10/07/2020, 20:30:24,1.308874,0.7178468,0.68195444,-1.3603178,-0.5507211,-1.1124322,1.6411937982834564,1.8415384383901585,jump
10/07/2020, 20:30:24,1.6677973,0.552742,0.66999036,-1.3603178,-0.5507211,-1.1124322,1.880414510417734,1.8415384383901585,jump
10/07/2020, 20:30:24,1.6677973,0.552742,0.66999036,-1.2577446,-0.3602278,-0.6752745,1.880414510417734,1.472304675201332,jump
10/07/2020, 20:30:24,1.8664017,0.37088752,0.6963114,-1.2577446,-0.3602278,-0.6752745,2.026292757515421,1.472304675201332,jump
10/07/2020, 20:30:24,1.8664017,0.37088752,0.6963114,-1.1112112,-0.19537778,-0.24055889,2.026292757515421,1.1536166375937913,jump
10/07/2020, 20:30:24,1.9525433,0.21296121,0.7680961,-1.1112112,-0.19537778,-0.24055889,2.108968766291329,1.1536166375937913,jump
10/07/2020, 20:30:24,1.9525433,0.21296121,0.7680961,-0.92193896,-0.045181114,0.18927222,2.108968766291329,0.9422508935492352,jump
10/07/2020, 20:30:24,1.9597218,0.040677983,0.8757731,-0.92193896,-0.045181114,0.18927222,2.1468914085608968,0.9422508935492352,jump
10/07/2020, 20:30:24,1.9597218,0.040677983,0.8757731,-0.7228978,0.08792,0.6227667,2.1468914085608968,0.9582011927317451,jump
10/07/2020, 20:30:24,1.9094725,-0.12203395,1.0049855,-0.7228978,0.08792,0.6227667,2.1612434246362024,0.9582011927317451,jump
10/07/2020, 20:30:24,1.9094725,-0.12203395,1.0049855,-0.5238567,0.20392556,1.0562612,2.1612434246362024,1.1965363186437987,jump
10/07/2020, 20:30:24,1.8257236,-0.29192436,1.0983056,-0.5238567,0.20392556,1.0562612,2.1505259410729805,1.1965363186437987,jump
10/07/2020, 20:30:24,1.8257236,-0.29192436,1.0983056,-0.34313223,0.30772,1.4934189,2.1505259410729805,1.5629240012843062,jump
10/07/2020, 20:30:24,1.7419748,-0.44985065,1.2466606,-0.34313223,0.30772,1.4934189,2.188836344661312,1.5629240012843062,jump
10/07/2020, 20:30:24,1.7419748,-0.44985065,1.2466606,-0.17584,0.40174556,1.9317979,2.188836344661312,1.9809498177613194,jump
10/07/2020, 20:30:24,1.6941184,-0.57188463,1.3399807,-0.17584,0.40174556,1.9317979,2.234421055591619,1.9809498177613194,jump
10/07/2020, 20:30:24,1.6941184,-0.57188463,1.3399807,-0.015874445,0.49699223,2.3628502,2.234421055591619,2.4146043758255984,jump
10/07/2020, 20:30:24,1.6319051,-0.65324056,1.4811572,-0.015874445,0.49699223,2.3628502,2.29862220043648,2.4146043758255984,jump
10/07/2020, 20:30:25,-10.253245,-2.333002,1.7443677,1.9342401,0.10501556,-2.7609324,10.659022364890626,3.372693435811135,jump
10/07/2020, 20:30:25,-9.200403,-1.8281165,1.4141582,1.9342401,0.10501556,-2.7609324,9.486267593011105,3.372693435811135,jump
10/07/2020, 20:30:25,-9.200403,-1.8281165,1.4141582,1.9940746,0.25277,-2.5435746,9.486267593011105,3.24191266390444,jump
10/07/2020, 20:30:25,-8.080562,-1.5672989,1.2227324,1.9940746,0.25277,-2.5435746,8.32147683851946,3.24191266390444,jump
10/07/2020, 20:30:25,-8.080562,-1.5672989,1.2227324,1.9952956,0.4261678,-2.306679,8.32147683851946,3.079544080720408,jump
10/07/2020, 20:30:25,-6.991828,-1.4524434,1.282553,1.9952956,0.4261678,-2.306679,7.255356097100404,3.079544080720408,jump
10/07/2020, 20:30:25,-6.991828,-1.4524434,1.282553,1.9757578,0.59590226,-2.0563512,7.255356097100404,2.9132968841896676,jump
10/07/2020, 20:30:25,-5.986842,-1.550549,1.6103697,1.9757578,0.59590226,-2.0563512,6.390600269414272,2.9132968841896676,jump
10/07/2020, 20:30:25,-5.986842,-1.550549,1.6103697,1.9843056,0.7815111,-1.8060234,6.390600269414272,2.794628564187335,jump
10/07/2020, 20:30:25,-5.24746,-1.7754744,2.0291135,1.9843056,0.7815111,-1.8060234,5.899614093448765,2.794628564187335,jump
10/07/2020, 20:30:25,-5.24746,-1.7754744,2.0291135,2.0685623,0.97566783,-1.5740123,5.899614093448765,2.7763991500691696,jump
10/07/2020, 20:30:25,-4.855037,-2.0745773,2.4215364,2.0685623,0.97566783,-1.5740123,5.808536493431183,2.7763991500691696,jump
10/07/2020, 20:30:25,-4.855037,-2.0745773,2.4215364,2.2407389,1.13197,-1.3810767,5.808536493431183,2.8652468830182296,jump
10/07/2020, 20:30:25,-4.833502,-2.3521447,2.7182465,2.2407389,1.13197,-1.3810767,6.023635811999944,2.8652468830182296,jump
10/07/2020, 20:30:25,-4.833502,-2.3521447,2.7182465,2.449549,1.2125634,-1.2259957,6.023635811999944,2.995607693298453,jump
10/07/2020, 20:30:25,-5.206782,-2.5914268,2.9623144,2.449549,1.2125634,-1.2259957,6.52697302792803,2.995607693298453,jump
10/07/2020, 20:30:25,-5.206782,-2.5914268,2.9623144,2.6644645,1.2113422,-1.0819045,6.52697302792803,3.1204548239086556,jump
10/07/2020, 20:30:25,-5.7810597,-2.7158537,3.1609187,2.6644645,1.2113422,-1.0819045,7.126564398046521,3.1204548239086556,jump
10/07/2020, 20:30:25,-5.7810597,-2.7158537,3.1609187,2.8415256,1.1771512,-0.9194967,7.126564398046521,3.2102066353868093,jump
10/07/2020, 20:30:25,-6.3864436,-2.7038896,3.1202407,2.8415256,1.1771512,-0.9194967,7.604839446987342,3.2102066353868093,jump
10/07/2020, 20:30:26,-19.365114,-5.9964137,1.5720844,-1.51662,-2.966079,-7.027495,20.333127532298914,7.77711036524523,jump
10/07/2020, 20:30:26,-17.58964,-6.558727,1.7659031,-1.51662,-2.966079,-7.027495,18.85552264948277,7.77711036524523,jump
10/07/2020, 20:30:26,-17.58964,-6.558727,1.7659031,-0.92316,-2.84641,-7.083666,18.85552264948277,7.689772191206318,jump
10/07/2020, 20:30:26,-15.950556,-6.9990063,1.9094725,-0.92316,-2.84641,-7.083666,17.522910838568933,7.689772191206318,jump
10/07/2020, 20:30:26,-15.950556,-6.9990063,1.9094725,-0.3834289,-2.6974347,-6.954228,17.522910838568933,7.468899350743942,jump
10/07/2020, 20:30:26,-14.553147,-7.0348988,1.8233309,-0.3834289,-2.6974347,-6.954228,16.26678926002492,7.468899350743942,jump
10/07/2020, 20:30:26,-14.553147,-7.0348988,1.8233309,0.05006556,-2.6021879,-6.6623826,16.26678926002492,7.152707894610387,jump
10/07/2020, 20:30:26,-13.373486,-6.5850477,1.7659031,0.05006556,-2.6021879,-6.6623826,15.011042051568763,7.152707894610387,jump
10/07/2020, 20:30:26,-13.373486,-6.5850477,1.7659031,0.24666445,-2.6070724,-6.391296,15.011042051568763,6.9069771256333246,jump
10/07/2020, 20:30:26,-12.222538,-5.979664,1.753939,0.24666445,-2.6070724,-6.391296,13.719443024396572,6.9069771256333246,jump
10/07/2020, 20:30:26,-12.222538,-5.979664,1.753939,0.21247335,-2.5973034,-6.285059,13.719443024396572,6.803903008408204,jump
10/07/2020, 20:30:26,-11.107483,-5.6470613,1.7635103,0.21247335,-2.5973034,-6.285059,12.584730716584982,6.803903008408204,jump
10/07/2020, 20:30:26,-11.107483,-5.6470613,1.7635103,0.089141116,-2.5130467,-6.237436,12.584730716584982,6.725247626930173,jump
10/07/2020, 20:30:26,-10.114461,-5.35753,1.7635103,0.089141116,-2.5130467,-6.237436,11.58082112405629,6.725247626930173,jump
10/07/2020, 20:30:26,-10.114461,-5.35753,1.7635103,0.10379445,-2.361629,-6.028626,11.58082112405629,6.4755228277003045,jump
10/07/2020, 20:30:26,-9.171689,-4.7018967,1.5050855,0.10379445,-2.361629,-6.028626,10.415997036573351,6.4755228277003045,jump
10/07/2020, 20:30:26,-9.171689,-4.7018967,1.5050855,0.29306668,-2.2382967,-5.658629,10.415997036573351,6.092285441025777,jump
10/07/2020, 20:30:26,-8.209774,-3.6514473,1.105484,0.29306668,-2.2382967,-5.658629,9.052930556780355,6.092285441025777,jump
10/07/2020, 20:30:26,-8.209774,-3.6514473,1.105484,0.52019334,-2.1699145,-5.292296,9.052930556780355,5.74347684049466,jump
10/07/2020, 20:30:26,-7.068398,-2.2899313,0.6987042,0.52019334,-2.1699145,-5.292296,7.462856232798987,5.74347684049466,jump
10/07/2020, 20:30:27,-12.610175,-1.253839,2.833102,-2.5399113,-1.5288311,-3.9026713,12.985187562376778,4.900950666194899,jump
10/07/2020, 20:30:27,-12.717853,-1.8065811,2.7062824,-2.5399113,-1.5288311,-3.9026713,13.127508304433029,4.900950666194899,jump
10/07/2020, 20:30:27,-12.717853,-1.8065811,2.7062824,-2.3897145,-1.5117356,-3.877028,13.127508304433029,4.798689999910203,jump
10/07/2020, 20:30:27,-12.653246,-2.2947168,2.751746,-2.3897145,-1.5117356,-3.877028,13.150759047618784,4.798689999910203,jump
10/07/2020, 20:30:27,-12.653246,-2.2947168,2.751746,-2.1577034,-1.4860923,-3.7768967,13.150759047618784,4.596640421906234,jump
10/07/2020, 20:30:27,-12.425928,-2.6081767,2.8642087,-2.1577034,-1.4860923,-3.7768967,13.01575840082745,4.596640421906234,jump
10/07/2020, 20:30:27,-12.425928,-2.6081767,2.8642087,-1.8597523,-1.3993934,-3.6193736,13.01575840082745,4.3031204459210715,jump
10/07/2020, 20:30:27,-12.007184,-2.617748,2.9192436,-1.8597523,-1.3993934,-3.6193736,12.63119376977299,4.3031204459210715,jump
10/07/2020, 20:30:27,-12.007184,-2.617748,2.9192436,-1.5117356,-1.2882723,-3.438649,12.63119376977299,3.971057333446571,jump
10/07/2020, 20:30:27,-11.507084,-2.3306093,2.900101,-1.5117356,-1.2882723,-3.438649,12.093605956281808,3.971057333446571,jump
10/07/2020, 20:30:27,-11.507084,-2.3306093,2.900101,-1.1539501,-1.2101212,-3.2799046,12.093605956281808,3.681544274144018,jump
10/07/2020, 20:30:27,-11.076376,-1.861616,2.8402805,-1.1539501,-1.2101212,-3.2799046,11.58528860798385,3.681544274144018,jump
10/07/2020, 20:30:27,-11.076376,-1.861616,2.8402805,-0.8621045,-1.1478444,-3.1553512,11.58528860798385,3.4665562055310883,jump
10/07/2020, 20:30:27,-10.593026,-1.4141582,2.6703901,-0.8621045,-1.1478444,-3.1553512,11.015581245616529,3.4665562055310883,jump
10/07/2020, 20:30:27,-10.593026,-1.4141582,2.6703901,-0.7204556,-1.05504,-3.064989,11.015581245616529,3.3205908781215223,jump
10/07/2020, 20:30:27,-10.092926,-1.0695918,2.6368906,-0.7204556,-1.05504,-3.064989,10.486389969260422,3.3205908781215223,jump
10/07/2020, 20:30:27,-10.092926,-1.0695918,2.6368906,-0.6752745,-0.9365923,-2.9575312,10.486389969260422,3.1749317503777044,jump
10/07/2020, 20:30:27,-9.722038,-0.8853444,2.5148566,-0.6752745,-0.9365923,-2.9575312,10.080990347640043,3.1749317503777044,jump
10/07/2020, 20:30:27,-9.722038,-0.8853444,2.5148566,-0.65940005,-0.81081784,-2.8195457,10.080990347640043,3.0070038575617666,jump
10/07/2020, 20:30:27,-9.439685,-0.8709874,2.3521447,-0.65940005,-0.81081784,-2.8195457,9.767233705473354,3.0070038575617666,jump
10/07/2020, 20:30:28,-7.877172,-1.0552348,2.2588246,-0.5128667,0.35290113,-0.30405667,8.262302801718027,0.692836125323469,jump
10/07/2020, 20:30:28,-7.865208,-1.3280165,2.2277179,-0.5128667,0.35290113,-0.30405667,8.281778434586503,0.692836125323469,jump
10/07/2020, 20:30:28,-7.865208,-1.3280165,2.2277179,-0.46035892,0.38831335,-0.23811668,8.281778434586503,0.64762423312342,jump
10/07/2020, 20:30:28,-7.8699937,-1.538585,2.2492533,-0.46035892,0.38831335,-0.23811668,8.328456312871326,0.64762423312342,jump
10/07/2020, 20:30:28,-7.8699937,-1.538585,2.2492533,-0.40663,0.4371578,-0.18805112,8.328456312871326,0.6259537831916447,jump
10/07/2020, 20:30:28,-7.893922,-1.7515461,2.3377876,-0.40663,0.4371578,-0.18805112,8.417075923261772,0.6259537831916447,jump
10/07/2020, 20:30:28,-7.893922,-1.7515461,2.3377876,-0.33336335,0.48844448,-0.16240779,8.417075923261772,0.6132580388325305,jump
10/07/2020, 20:30:28,-7.920243,-1.9310079,2.4502504,-0.33336335,0.48844448,-0.16240779,8.512506335917202,0.6132580388325305,jump
10/07/2020, 20:30:28,-7.920243,-1.9310079,2.4502504,-0.21980001,0.53118336,-0.15019667,8.512506335917202,0.5941606253673114,jump
10/07/2020, 20:30:28,-7.9800634,-2.1774685,2.6201408,-0.21980001,0.53118336,-0.15019667,8.676861153706357,0.5941606253673114,jump
10/07/2020, 20:30:28,-7.9800634,-2.1774685,2.6201408,-0.059834447,0.5690378,-0.13798556,8.676861153706357,0.5885781063390388,jump
10/07/2020, 20:30:28,-8.075776,-2.457429,2.8522446,-0.059834447,0.5690378,-0.13798556,8.91024219219769,0.5885781063390388,jump
10/07/2020, 20:30:28,-8.075776,-2.457429,2.8522446,0.13676445,0.6056711,-0.12821667,8.91024219219769,0.6340201260836797,jump
10/07/2020, 20:30:28,-8.12124,-2.7110682,3.07717,0.13676445,0.6056711,-0.12821667,9.097988719845826,0.6340201260836797,jump
10/07/2020, 20:30:28,-8.12124,-2.7110682,3.07717,0.37854445,0.63986224,-0.11600556,9.097988719845826,0.7524472581589312,jump
10/07/2020, 20:30:28,-8.200203,-2.9240294,3.3092737,0.37854445,0.63986224,-0.11600556,9.313676421372813,0.7524472581589312,jump
10/07/2020, 20:30:28,-8.200203,-2.9240294,3.3092737,0.64108336,0.6691689,-0.10745778,9.313676421372813,0.9329105268754124,jump
10/07/2020, 20:30:28,-8.315059,-3.0723844,3.5198421,0.64108336,0.6691689,-0.10745778,9.53776890610169,0.9329105268754124,jump
10/07/2020, 20:30:28,-8.315059,-3.0723844,3.5198421,0.9097278,0.69603336,-0.10867889,9.53776890610169,1.1505990741592542,jump
10/07/2020, 20:30:28,-8.432307,-3.1561332,3.5964124,0.9097278,0.69603336,-0.10867889,9.6953166199242,1.1505990741592542,jump
10/07/2020, 20:30:29,-20.2696,-9.915857,2.9671001,-1.889059,-2.90136,-6.826011,22.75927481818814,7.653813585474755,jump
10/07/2020, 20:30:29,-20.2696,-9.915857,2.9671001,-0.95857227,-3.1993113,-6.5036383,22.75927481818814,7.311071332165109,jump
10/07/2020, 20:30:29,-18.659231,-9.3200445,2.9479575,-0.95857227,-3.1993113,-6.5036383,21.064676398471484,7.311071332165109,jump
10/07/2020, 20:30:29,-18.659231,-9.3200445,2.9479575,-0.21247335,-3.4740613,-6.1226516,21.064676398471484,7.042805465887183,jump
10/07/2020, 20:30:29,-16.421942,-7.769495,2.8474588,-0.21247335,-3.4740613,-6.1226516,18.38894357040034,7.042805465887183,jump
10/07/2020, 20:30:29,-16.421942,-7.769495,2.8474588,0.1965989,-3.65967,-5.7770767,18.38894357040034,6.841524093213823,jump
10/07/2020, 20:30:29,-13.978869,-5.8360944,2.8426733,0.1965989,-3.65967,-5.7770767,15.412643507042468,6.841524093213823,jump
10/07/2020, 20:30:29,-13.978869,-5.8360944,2.8426733,0.28940335,-3.734158,-5.4571457,15.412643507042468,6.6187710076216755,jump
10/07/2020, 20:30:29,-11.454442,-3.739982,2.4311078,0.28940335,-3.734158,-5.4571457,12.2923550046409,6.6187710076216755,jump
10/07/2020, 20:30:29,-11.454442,-3.739982,2.4311078,0.15508112,-3.645017,-5.2129235,12.2923550046409,6.362764345388525,jump
10/07/2020, 20:30:29,-8.85823,-1.7754744,1.8065811,0.15508112,-3.645017,-5.2129235,9.213266367946732,6.362764345388525,jump
10/07/2020, 20:30:29,-8.85823,-1.7754744,1.8065811,-0.19537778,-3.4765034,-5.052958,9.213266367946732,6.136500048221846,jump
10/07/2020, 20:30:29,-6.4343,-0.35413775,1.253839,-0.19537778,-3.4765034,-5.052958,6.56488702231564,6.136500048221846,jump
