DATE,TIME,ax,ay,az,gx,gy,gz,ma,mg,label
10/07/2020, 20:43:17,4.048656,-3.0699914,8.573483,-0.12821667,0.05250778,-0.035412222,9.965996234704903,0.14300561768578943,jump
10/07/2020, 20:43:17,3.900301,-3.4839497,8.611769,-0.12821667,0.05250778,-0.035412222,10.075356743269984,0.14300561768578943,jump
10/07/2020, 20:43:17,3.900301,-3.4839497,8.611769,0.0036633336,-0.03297,-0.014653334,10.075356743269984,0.036265150292960825,jump
10/07/2020, 20:43:17,3.8644085,-3.5270207,8.645268,0.0036633336,-0.03297,-0.014653334,10.105156820783963,0.036265150292960825,jump
10/07/2020, 20:43:17,3.8644085,-3.5270207,8.645268,0.081814446,-0.09646778,-0.008547778,10.105156820783963,0.1267781535728732,jump
10/07/2020, 20:43:17,3.9050865,-3.414558,8.681161,0.081814446,-0.09646778,-0.008547778,10.11293536163051,0.1267781535728732,jump
10/07/2020, 20:43:17,3.9050865,-3.414558,8.681161,0.098910004,-0.1306589,-0.02198,10.11293536163051,0.16534223926460329,jump
10/07/2020, 20:43:17,3.926622,-3.2135608,8.721839,0.098910004,-0.1306589,-0.02198,10.09038192960733,0.16534223926460329,jump
10/07/2020, 20:43:17,3.926622,-3.2135608,8.721839,0.08303556,-0.11112112,-0.03052778,10.09038192960733,0.14203785478335465,jump
10/07/2020, 20:43:17,4.0845485,-3.0915267,8.6548395,0.08303556,-0.11112112,-0.03052778,10.057202439016667,0.14203785478335465,jump
10/07/2020, 20:43:17,4.0845485,-3.0915267,8.6548395,0.1526389,-0.023201112,-0.017095556,10.057202439016667,0.155335709367317,jump
10/07/2020, 20:43:17,4.3525443,-3.4193435,8.4682,0.1526389,-0.023201112,-0.017095556,10.116667356034315,0.155335709367317,jump
10/07/2020, 20:43:17,4.3525443,-3.4193435,8.4682,0.21491556,-0.07204556,0.0036633336,10.116667356034315,0.22669953615957927,jump
10/07/2020, 20:43:17,3.9673,-2.9479575,8.3581295,0.21491556,-0.07204556,0.0036633336,9.710213750239639,0.22669953615957927,jump
10/07/2020, 20:43:17,3.9673,-2.9479575,8.3581295,0.16118668,-0.08425667,-0.0036633336,9.710213750239639,0.18191688364858058,jump
10/07/2020, 20:43:17,3.790231,-2.5962126,8.343773,0.16118668,-0.08425667,-0.0036633336,9.524952333730889,0.18191688364858058,jump
10/07/2020, 20:43:17,3.790231,-2.5962126,8.343773,0.04029667,-0.045181114,-0.01099,9.524952333730889,0.06152995048819105,jump
10/07/2020, 20:43:17,3.9625144,-2.6392834,8.379665,0.04029667,-0.045181114,-0.01099,9.637745023131718,0.06152995048819105,jump
10/07/2020, 20:43:17,3.9625144,-2.6392834,8.379665,-0.01099,-0.025643334,-0.008547778,9.637745023131718,0.02917919101204929,jump
10/07/2020, 20:43:17,4.249653,-2.9216363,8.484949,-0.01099,-0.025643334,-0.008547778,9.929243163761624,0.02917919101204929,jump
10/07/2020, 20:43:18,1.6247265,-5.1732826,8.860622,-0.06105556,-0.12699556,0.20270446,10.388128745456676,0.24686990984889132,jump
10/07/2020, 20:43:18,1.672583,-5.460421,9.078369,-0.06105556,-0.12699556,0.20270446,10.725228133757296,0.24686990984889132,jump
10/07/2020, 20:43:18,1.672583,-5.460421,9.078369,-0.015874445,-0.13310112,0.1965989,10.725228133757296,0.2379475461603714,jump
10/07/2020, 20:43:18,1.7252251,-5.584848,9.102298,-0.015874445,-0.13310112,0.1965989,10.817520645316945,0.2379475461603714,jump
10/07/2020, 20:43:18,1.7252251,-5.584848,9.102298,-0.0012211112,-0.13188,0.20026223,10.817520645316945,0.23978904851250357,jump
10/07/2020, 20:43:18,1.7371893,-5.666204,9.020942,-0.0012211112,-0.13188,0.20026223,10.793566783379072,0.23978904851250357,jump
10/07/2020, 20:43:18,1.7371893,-5.666204,9.020942,-0.042738892,-0.11356334,0.21247335,10.793566783379072,0.2446797249485548,jump
10/07/2020, 20:43:18,1.6677973,-5.716453,8.7984085,-0.042738892,-0.11356334,0.21247335,10.62409412450676,0.2446797249485548,jump
10/07/2020, 20:43:18,1.6677973,-5.716453,8.7984085,-0.09524667,-0.08425667,0.21491556,10.62409412450676,0.24971946797730207,jump
10/07/2020, 20:43:18,1.5361922,-5.6446686,8.628518,-0.09524667,-0.08425667,0.21491556,10.42465800199118,0.24971946797730207,jump
10/07/2020, 20:43:18,1.5361922,-5.6446686,8.628518,-0.11478445,-0.064718895,0.20270446,10.42465800199118,0.24177076541308237,jump
10/07/2020, 20:43:18,1.3663018,-5.5226345,8.549556,-0.11478445,-0.064718895,0.20270446,10.269429216826245,0.24177076541308237,jump
10/07/2020, 20:43:18,1.3663018,-5.5226345,8.549556,-0.11112112,-0.07448778,0.19049335,10.269429216826245,0.23277467063208315,jump
10/07/2020, 20:43:18,1.2370893,-5.419743,8.5016985,-0.11112112,-0.07448778,0.19049335,10.157897519058736,0.23277467063208315,jump
10/07/2020, 20:43:18,1.2370893,-5.419743,8.5016985,-0.106236674,-0.089141116,0.18072446,10.157897519058736,0.22780188472540755,jump
10/07/2020, 20:43:18,1.1653047,-5.3503513,8.575876,-0.106236674,-0.089141116,0.18072446,10.17496179649641,0.22780188472540755,jump
10/07/2020, 20:43:18,1.1653047,-5.3503513,8.575876,-0.102573335,-0.09036223,0.18194556,10.17496179649641,0.22757594135263878,jump
10/07/2020, 20:43:18,1.1389836,-5.3479586,8.616554,-0.102573335,-0.09036223,0.18194556,10.20504540842184,0.22757594135263878,jump
10/07/2020, 20:43:18,1.1389836,-5.3479586,8.616554,-0.08669889,-0.09524667,0.18072446,10.20504540842184,0.2219233098438588,jump
10/07/2020, 20:43:18,1.1078769,-5.343173,8.595019,-0.08669889,-0.09524667,0.18072446,10.180925629788973,0.2219233098438588,jump
10/07/2020, 20:43:19,-1.2418749,-4.331009,7.8077803,0.31260446,-0.38953447,0.19537778,9.01450632132848,0.5363125304334907,jump
10/07/2020, 20:43:19,-1.1940185,-4.3764725,7.8963146,0.31260446,-0.38953447,0.19537778,9.106644609278174,0.5363125304334907,jump
10/07/2020, 20:43:19,-1.1940185,-4.3764725,7.8963146,0.2942878,-0.41151446,0.23445335,9.106644609278174,0.5576000670804354,jump
10/07/2020, 20:43:19,-1.2299109,-4.546363,7.972885,0.2942878,-0.41151446,0.23445335,9.260075239115066,0.5576000670804354,jump
10/07/2020, 20:43:19,-1.2299109,-4.546363,7.972885,0.27108666,-0.43471557,0.28574002,9.260075239115066,0.5866114238853247,jump
10/07/2020, 20:43:19,-1.2969099,-4.685147,8.04467,0.27108666,-0.43471557,0.28574002,9.399430465645692,0.5866114238853247,jump
10/07/2020, 20:43:19,-1.2969099,-4.685147,8.04467,0.2625389,-0.45059,0.34435335,9.399430465645692,0.6249298109685348,jump
10/07/2020, 20:43:19,-1.4141582,-4.816752,8.1738825,0.2625389,-0.45059,0.34435335,9.592356215735322,0.6249298109685348,jump
10/07/2020, 20:43:19,-1.4141582,-4.816752,8.1738825,0.26986557,-0.46280113,0.40663,9.592356215735322,0.6725773386069029,jump
10/07/2020, 20:43:19,-1.5337993,-4.8263235,8.372486,0.26986557,-0.46280113,0.40663,9.784909944254064,0.6725773386069029,jump
10/07/2020, 20:43:19,-1.5337993,-4.8263235,8.372486,0.27963445,-0.47379112,0.46646446,9.784909944254064,0.7212922732033036,jump
10/07/2020, 20:43:19,-1.6414764,-4.699504,8.60459,0.27963445,-0.47379112,0.46646446,9.940762438939489,0.7212922732033036,jump
10/07/2020, 20:43:19,-1.6414764,-4.699504,8.60459,0.28940335,-0.47745445,0.5006556,9.940762438939489,0.7499153786649368,jump
10/07/2020, 20:43:19,-1.7084754,-4.4578285,8.776874,0.28940335,-0.47745445,0.5006556,9.991227809676255,0.7499153786649368,jump
10/07/2020, 20:43:19,-1.7084754,-4.4578285,8.776874,0.28574002,-0.45791668,0.5324045,9.991227809676255,0.7581487807411565,jump
10/07/2020, 20:43:19,-1.7898313,-4.2257247,8.882157,0.28574002,-0.45791668,0.5324045,9.997647922810245,0.7581487807411565,jump
10/07/2020, 20:43:19,-1.7898313,-4.2257247,8.882157,0.24910668,-0.43349445,0.5690378,9.997647922810245,0.7574797587772262,jump
10/07/2020, 20:43:19,-1.8640088,-4.0701914,8.913264,0.24910668,-0.43349445,0.5690378,9.974330387245484,0.7574797587772262,jump
10/07/2020, 20:43:19,-1.8640088,-4.0701914,8.913264,0.19293556,-0.40296668,0.60933447,9.974330387245484,0.7555757853766668,jump
10/07/2020, 20:43:19,-1.9860427,-3.9696927,8.91805,0.19293556,-0.40296668,0.60933447,9.961648377676843,0.7555757853766668,jump
10/07/2020, 20:43:20,11.923435,-1.8927227,4.6325045,0.14042778,-0.4383789,-0.36267,12.93100166861768,0.5860252166609204,jump
10/07/2020, 20:43:20,11.68176,-0.7704889,4.7449675,0.14042778,-0.4383789,-0.36267,12.632176463340565,0.5860252166609204,jump
10/07/2020, 20:43:20,11.68176,-0.7704889,4.7449675,-0.023201112,-0.32237336,-0.30772,12.632176463340565,0.4462672706679271,jump
10/07/2020, 20:43:20,11.60519,0.41156548,4.462614,-0.023201112,-0.32237336,-0.30772,12.440448213700089,0.4462672706679271,jump
10/07/2020, 20:43:20,11.60519,0.41156548,4.462614,-0.19171445,-0.18194556,-0.26009667,12.440448213700089,0.3708219189915768,jump
10/07/2020, 20:43:20,11.124232,0.95473623,4.7306104,-0.19171445,-0.18194556,-0.26009667,12.125953151945806,0.3708219189915768,jump
10/07/2020, 20:43:20,11.124232,0.95473623,4.7306104,-0.29184556,-0.06716111,-0.17584,12.125953151945806,0.34728108715244527,jump
10/07/2020, 20:43:20,10.169497,0.3589234,5.070391,-0.29184556,-0.06716111,-0.17584,11.36909638058892,0.34728108715244527,jump
10/07/2020, 20:43:20,10.169497,0.3589234,5.070391,-0.24055889,-0.09402556,-0.1306589,11.36909638058892,0.2894497079304163,jump
10/07/2020, 20:43:20,9.221938,-0.58624154,4.682754,-0.24055889,-0.09402556,-0.1306589,10.3593439694468,0.2894497079304163,jump
10/07/2020, 20:43:20,9.221938,-0.58624154,4.682754,-0.0048844446,-0.22102112,-0.07693,10.3593439694468,0.23407780016925692,jump
10/07/2020, 20:43:20,8.659625,-1.0289137,4.436293,-0.0048844446,-0.22102112,-0.07693,9.784092509511803,0.23407780016925692,jump
10/07/2020, 20:43:20,8.659625,-1.0289137,4.436293,0.21003112,-0.31871,-0.034191113,9.784092509511803,0.38322078240859664,jump
10/07/2020, 20:43:20,8.683554,-1.0719845,4.302295,0.21003112,-0.31871,-0.034191113,9.750025624263607,0.38322078240859664,jump
10/07/2020, 20:43:20,8.683554,-1.0719845,4.302295,0.23811668,-0.31871,-0.05006556,9.750025624263607,0.40097653029988395,jump
10/07/2020, 20:43:20,8.836694,-0.8470592,4.3070807,0.23811668,-0.31871,-0.05006556,9.866894673390233,0.40097653029988395,jump
10/07/2020, 20:43:20,8.836694,-0.8470592,4.3070807,0.19782001,-0.2625389,-0.06105556,9.866894673390233,0.3343459526751454,jump
10/07/2020, 20:43:20,8.76491,-0.88295156,4.354937,0.19782001,-0.2625389,-0.06105556,9.826938649400196,0.3343459526751454,jump
10/07/2020, 20:43:20,8.76491,-0.88295156,4.354937,0.14531223,-0.2185789,-0.106236674,9.826938649400196,0.28315828453926883,jump
10/07/2020, 20:43:20,8.944371,-1.079163,4.098905,0.14531223,-0.2185789,-0.106236674,9.89784785573159,0.28315828453926883,jump
10/07/2020, 20:43:21,20.410778,-4.6707897,2.4263222,-0.59834445,-1.2089001,4.1896324,21.07850033917002,4.401417418488091,jump
10/07/2020, 20:43:21,19.783857,-4.9938207,2.6105695,-0.59834445,-1.2089001,4.1896324,20.57071533325449,4.401417418488091,jump
10/07/2020, 20:43:21,19.783857,-4.9938207,2.6105695,-0.34435335,-1.1075479,4.0455413,20.57071533325449,4.208520622923715,jump
10/07/2020, 20:43:21,18.922441,-4.9770713,2.536392,-0.34435335,-1.1075479,4.0455413,19.729757081169307,4.208520622923715,jump
10/07/2020, 20:43:21,18.922441,-4.9770713,2.536392,-0.09646778,-0.9744467,3.867259,19.729757081169307,3.9893037990818065,jump
10/07/2020, 20:43:21,17.42932,-4.469793,2.268396,-0.09646778,-0.9744467,3.867259,18.135761415786924,3.9893037990818065,jump
10/07/2020, 20:43:21,17.42932,-4.469793,2.268396,0.03174889,-0.77052116,3.7414846,18.135761415786924,3.8201332676608892,jump
10/07/2020, 20:43:21,15.426528,-3.739982,2.0937197,0.03174889,-0.77052116,3.7414846,16.010899169932728,3.8201332676608892,jump
10/07/2020, 20:43:21,15.426528,-3.739982,2.0937197,0.0012211112,-0.52141446,3.645017,16.010899169932728,3.682122050288436,jump
10/07/2020, 20:43:21,13.086347,-2.952743,2.050649,0.0012211112,-0.52141446,3.645017,13.571157673074248,3.682122050288436,jump
10/07/2020, 20:43:21,13.086347,-2.952743,2.050649,-0.09768889,-0.31993112,3.5558758,13.571157673074248,3.571575505395409,jump
10/07/2020, 20:43:21,10.425529,-2.2229323,2.0147567,-0.09768889,-0.31993112,3.5558758,10.848609022038588,3.571575505395409,jump
10/07/2020, 20:43:21,10.425529,-2.2229323,2.0147567,-0.21735778,-0.2759711,3.4997046,10.848609022038588,3.5172911090106074,jump
10/07/2020, 20:43:21,7.647461,-1.7682959,1.8687944,-0.21735778,-0.2759711,3.4997046,8.068638161918926,3.5172911090106074,jump
10/07/2020, 20:43:21,7.647461,-1.7682959,1.8687944,-0.26742333,-0.32725778,3.5241268,8.068638161918926,3.5493777443527357,jump
10/07/2020, 20:43:21,5.0775695,-1.3854443,1.7659031,-0.26742333,-0.32725778,3.5241268,5.551538664842101,3.5493777443527357,jump
10/07/2020, 20:43:21,5.0775695,-1.3854443,1.7659031,-0.22346334,-0.36633334,3.5717502,5.551538664842101,3.597434532010059,jump
10/07/2020, 20:43:21,2.9886355,-1.0839486,1.8161523,-0.22346334,-0.36633334,3.5717502,3.6613243896149394,3.597434532010059,jump
10/07/2020, 20:43:21,2.9886355,-1.0839486,1.8161523,-0.085477784,-0.37732336,3.6010568,3.6613243896149394,3.621779886753511,jump
10/07/2020, 20:43:21,1.605584,-0.782453,1.7754744,-0.085477784,-0.37732336,3.6010568,2.518420578283975,3.621779886753511,jump
10/07/2020, 20:43:22,9.377472,-3.493521,3.2303107,0.070824444,-0.14775445,0.54950005,10.515539718210086,0.5734089126041301,jump
10/07/2020, 20:43:22,9.377472,-3.493521,3.2303107,0.058613338,-0.15508112,0.60811335,10.515539718210086,0.6303074826562826,jump
10/07/2020, 20:43:22,9.470792,-3.4767714,3.1657043,0.058613338,-0.15508112,0.60811335,10.573812939936674,0.6303074826562826,jump
10/07/2020, 20:43:22,9.470792,-3.4767714,3.1657043,0.0024422223,-0.17950334,0.65451556,10.573812939936674,0.6786884678395773,jump
10/07/2020, 20:43:22,9.609575,-3.3954153,3.103491,0.0024422223,-0.17950334,0.65451556,10.653846197968113,0.6786884678395773,jump
10/07/2020, 20:43:22,9.609575,-3.3954153,3.103491,-0.064718895,-0.18194556,0.69237006,10.653846197968113,0.7187969247058119,jump
10/07/2020, 20:43:22,9.760324,-3.3260236,3.0580273,-0.064718895,-0.18194556,0.69237006,10.755365122422448,0.7187969247058119,jump
10/07/2020, 20:43:22,9.760324,-3.3260236,3.0580273,-0.1306589,-0.15508112,0.7228978,10.755365122422448,0.7508016853443736,jump
10/07/2020, 20:43:22,9.860822,-3.2757742,3.0029924,-0.1306589,-0.15508112,0.7228978,10.815935708476413,0.7508016853443736,jump
10/07/2020, 20:43:22,9.860822,-3.2757742,3.0029924,-0.18194556,-0.12455334,0.74121445,10.815935708476413,0.7733153229249444,jump
10/07/2020, 20:43:22,9.894321,-3.2327034,2.926422,-0.18194556,-0.12455334,0.74121445,10.812581319396147,0.7733153229249444,jump
10/07/2020, 20:43:22,9.894321,-3.2327034,2.926422,-0.21491556,-0.109900005,0.7448778,10.812581319396147,0.7830131979415171,jump
10/07/2020, 20:43:22,9.8632145,-3.2949169,2.9048867,-0.21491556,-0.109900005,0.7448778,10.797122031832556,0.7830131979415171,jump
10/07/2020, 20:43:22,9.8632145,-3.2949169,2.9048867,-0.22224224,-0.11112112,0.7570889,10.797122031832556,0.7968206299541569,jump
10/07/2020, 20:43:22,9.801002,-3.455236,2.8953154,-0.22224224,-0.11112112,0.7570889,10.788009000782859,0.7968206299541569,jump
10/07/2020, 20:43:22,9.801002,-3.455236,2.8953154,-0.21247335,-0.13920668,0.7863956,10.788009000782859,0.8264027329806036,jump
10/07/2020, 20:43:22,9.765109,-3.723232,2.87378,-0.21247335,-0.13920668,0.7863956,10.838746390167408,0.8264027329806036,jump
10/07/2020, 20:43:22,9.765109,-3.723232,2.87378,-0.18805112,-0.17217667,0.83768225,10.838746390167408,0.8756252496404578,jump
10/07/2020, 20:43:22,9.784252,-4.0271206,2.8929226,-0.18805112,-0.17217667,0.83768225,10.968969509974265,0.8756252496404578,jump
10/07/2020, 20:43:22,9.784252,-4.0271206,2.8929226,-0.13432223,-0.18438779,0.86943114,10.968969509974265,0.8988614023475208,jump
10/07/2020, 20:43:23,0.09092726,-0.40438703,-0.059820566,0.97566783,-0.33214223,-3.7280524,0.4187781441929053,3.8678961616412253,jump
10/07/2020, 20:43:23,1.1437693,-0.5694918,-0.25124636,0.97566783,-0.33214223,-3.7280524,1.3021727147655902,3.8678961616412253,jump
10/07/2020, 20:43:23,1.1437693,-0.5694918,-0.25124636,1.1673822,-0.57636446,-4.1517777,1.3021727147655902,4.351118904484052,jump
10/07/2020, 20:43:23,2.4502504,-0.8757731,-0.33499518,1.1673822,-0.57636446,-4.1517777,2.6235333435786528,4.351118904484052,jump
10/07/2020, 20:43:23,2.4502504,-0.8757731,-0.33499518,1.4177101,-0.8083756,-4.588936,2.6235333435786528,4.870493321097067,jump
10/07/2020, 20:43:23,4.031906,-1.1509477,0.06460621,1.4177101,-0.8083756,-4.588936,4.193461764725624,4.870493321097067,jump
10/07/2020, 20:43:23,4.031906,-1.1509477,0.06460621,1.6765857,-0.97933114,-5.0590634,4.193461764725624,5.41886997740164,jump
10/07/2020, 20:43:23,6.2404814,-1.5433706,1.1222339,1.6765857,-0.97933114,-5.0590634,6.5257190782978975,5.41886997740164,jump
10/07/2020, 20:43:23,6.2404814,-1.5433706,1.1222339,1.8780689,-1.1588345,-5.548729,6.5257190782978975,5.971468250289411,jump
10/07/2020, 20:43:23,8.997013,-1.8999012,1.9501505,1.8780689,-1.1588345,-5.548729,9.399944462459361,5.971468250289411,jump
10/07/2020, 20:43:23,8.997013,-1.8999012,1.9501505,1.9317979,-1.4897556,-6.050606,9.399944462459361,6.523882666777684,jump
10/07/2020, 20:43:23,12.607782,-2.5411777,2.5938199,1.9317979,-1.4897556,-6.050606,13.120276747813248,6.523882666777684,jump
10/07/2020, 20:43:23,12.607782,-2.5411777,2.5938199,1.5508112,-2.0172756,-6.4169393,13.120276747813248,6.9030084362304285,jump
10/07/2020, 20:43:23,17.216358,-4.1467614,2.7158537,1.5508112,-2.0172756,-6.4169393,17.915760678018678,6.9030084362304285,jump
10/07/2020, 20:43:23,17.216358,-4.1467614,2.7158537,0.7485411,-2.6949923,-6.4169393,17.915760678018678,7.000029054901148,jump
10/07/2020, 20:43:23,22.815563,-6.5659056,3.0963125,0.7485411,-2.6949923,-6.4169393,23.94260201871469,7.000029054901148,jump
10/07/2020, 20:43:23,22.815563,-6.5659056,3.0963125,0.17339778,-2.4983935,-6.309481,23.94260201871469,6.788342165403837,jump
10/07/2020, 20:43:23,30.245277,-8.944371,4.503292,0.17339778,-2.4983935,-6.309481,31.85997836576102,6.788342165403837,jump
10/07/2020, 20:43:23,30.245277,-8.944371,4.503292,0.4249467,-1.2589656,-6.568357,31.85997836576102,6.701409378905596,jump
10/07/2020, 20:43:23,35.152958,-11.157732,5.723632,0.4249467,-1.2589656,-6.568357,37.32271956224743,6.701409378905596,jump
10/07/2020, 20:43:24,8.327023,-3.926622,2.9431717,0.7986067,-0.23933779,-1.0293967,9.665398291489625,1.3246556900432023,jump
10/07/2020, 20:43:24,8.327023,-3.926622,2.9431717,0.96956223,-0.24178001,-1.0355023,9.665398291489625,1.439018255883514,jump
10/07/2020, 20:43:24,9.102298,-4.3262234,3.1322048,0.96956223,-0.24178001,-1.0355023,10.553612667373768,1.439018255883514,jump
10/07/2020, 20:43:24,9.102298,-4.3262234,3.1322048,1.1539501,-0.2295689,-1.0086378,10.553612667373768,1.5497267128648946,jump
10/07/2020, 20:43:24,9.925428,-4.618148,3.4360933,1.1539501,-0.2295689,-1.0086378,11.473803017086533,1.5497267128648946,jump
10/07/2020, 20:43:24,9.925428,-4.618148,3.4360933,1.3444434,-0.23079,-0.9365923,11.473803017086533,1.6546894848032827,jump
10/07/2020, 20:43:24,10.892129,-4.9316072,3.912265,1.3444434,-0.23079,-0.9365923,12.580343432992976,1.6546894848032827,jump
10/07/2020, 20:43:24,10.892129,-4.9316072,3.912265,1.51662,-0.26864445,-0.78273225,12.580343432992976,1.7277082970592228,jump
10/07/2020, 20:43:24,12.069397,-5.3096733,4.4913282,1.51662,-0.26864445,-0.78273225,13.929644765381996,1.7277082970592228,jump
10/07/2020, 20:43:24,12.069397,-5.3096733,4.4913282,1.6643745,-0.31138334,-0.5690378,13.929644765381996,1.7863107158033855,jump
10/07/2020, 20:43:24,13.564912,-5.6350975,5.304888,1.6643745,-0.31138334,-0.5690378,15.617393874643184,1.7863107158033855,jump
10/07/2020, 20:43:24,13.564912,-5.6350975,5.304888,1.7584001,-0.31382558,-0.34435335,15.617393874643184,1.8190757465889482,jump
10/07/2020, 20:43:24,15.163317,-5.7260246,5.9964137,1.7584001,-0.31382558,-0.34435335,17.28208637708143,1.8190757465889482,jump
10/07/2020, 20:43:24,15.163317,-5.7260246,5.9964137,1.7486312,-0.2845189,-0.13920668,17.28208637708143,1.7770877051937195,jump
10/07/2020, 20:43:24,16.46262,-5.4867425,6.2524457,1.7486312,-0.2845189,-0.13920668,18.44492533182446,1.7770877051937195,jump
10/07/2020, 20:43:24,16.46262,-5.4867425,6.2524457,1.5495901,-0.13310112,0.07448778,18.44492533182446,1.5570786266417505,jump
10/07/2020, 20:43:24,17.161324,-5.1014977,6.0753765,1.5495901,-0.13310112,0.07448778,18.90625568211565,1.5570786266417505,jump
10/07/2020, 20:43:24,17.161324,-5.1014977,6.0753765,1.119759,0.14042778,0.39930335,18.90625568211565,1.197089496080986,jump
10/07/2020, 20:43:24,16.984255,-4.802395,5.4676,1.119759,0.14042778,0.39930335,18.477623146726724,1.197089496080986,jump
10/07/2020, 20:43:24,16.984255,-4.802395,5.4676,0.5030978,0.39075556,0.88042116,18.477623146726724,1.0867100355910246,jump
10/07/2020, 20:43:25,6.0323057,-2.160719,2.4335005,-2.04414,0.10867889,-0.028085556,6.854147892506428,2.0472197367302094,jump
10/07/2020, 20:43:25,6.0323057,-2.160719,2.4335005,-1.7266512,0.024422223,-0.089141116,6.854147892506428,1.729123165446373,jump
10/07/2020, 20:43:25,6.532406,-2.5459633,2.5220351,-1.7266512,0.024422223,-0.089141116,7.450833272097425,1.729123165446373,jump
10/07/2020, 20:43:25,6.532406,-2.5459633,2.5220351,-1.350549,-0.023201112,-0.15996556,7.450833272097425,1.3601874232530822,jump
10/07/2020, 20:43:25,7.0899334,-2.8833513,2.6105695,-1.350549,-0.023201112,-0.15996556,8.086775835569805,1.3601874232530822,jump
10/07/2020, 20:43:25,7.0899334,-2.8833513,2.6105695,-0.9524667,-0.05006556,-0.25765446,8.086775835569805,0.9879702651024671,jump
10/07/2020, 20:43:25,7.6737823,-3.1393833,2.713461,-0.9524667,-0.05006556,-0.25765446,8.723848538102274,0.9879702651024671,jump
10/07/2020, 20:43:25,7.6737823,-3.1393833,2.713461,-0.5324045,-0.06349778,-0.37610224,8.723848538102274,0.6549346495875035,jump
10/07/2020, 20:43:25,8.260024,-3.2877383,2.8498518,-0.5324045,-0.06349778,-0.37610224,9.335891841662761,0.6549346495875035,jump
10/07/2020, 20:43:25,8.260024,-3.2877383,2.8498518,-0.117226675,-0.085477784,-0.5104245,9.335891841662761,0.5306427327365486,jump
10/07/2020, 20:43:25,8.834301,-3.3906298,3.0077782,-0.117226675,-0.085477784,-0.5104245,9.929147687511916,0.5306427327365486,jump
10/07/2020, 20:43:25,8.834301,-3.3906298,3.0077782,0.23689556,-0.11356334,-0.6325356,9.929147687511916,0.6849214511533136,jump
10/07/2020, 20:43:25,9.339187,-3.3547373,3.1202407,0.23689556,-0.11356334,-0.6325356,10.402431052889138,0.6849214511533136,jump
10/07/2020, 20:43:25,9.339187,-3.3547373,3.1202407,0.4933289,-0.11600556,-0.7424356,10.402431052889138,0.8989111610908597,jump
10/07/2020, 20:43:25,9.738789,-3.1800613,3.2805598,0.4933289,-0.11600556,-0.7424356,10.757270382139176,0.8989111610908597,jump
10/07/2020, 20:43:25,9.738789,-3.1800613,3.2805598,0.6423045,-0.08425667,-0.82791334,10.757270382139176,1.0512348628227508,jump
10/07/2020, 20:43:25,9.973285,-2.9503503,3.3403804,0.6423045,-0.08425667,-0.82791334,10.92378672228223,1.0512348628227508,jump
10/07/2020, 20:43:25,9.973285,-2.9503503,3.3403804,0.6801589,-0.05372889,-0.89263225,10.92378672228223,1.1235191441775556,jump
10/07/2020, 20:43:25,10.095319,-2.7206392,3.385844,0.6801589,-0.05372889,-0.89263225,10.990053635478215,1.1235191441775556,jump
10/07/2020, 20:43:25,10.095319,-2.7206392,3.385844,0.6569578,-0.03174889,-0.93415004,10.990053635478215,1.1424700640891599,jump
10/07/2020, 20:43:26,2.4598217,-0.09810573,-0.44985065,-0.30649891,1.5886656,2.4141366,2.502541336527351,2.9061754496516725,jump
10/07/2020, 20:43:26,1.8185452,0.485743,-0.64845496,-0.30649891,1.5886656,2.4141366,1.9908658454742216,2.9061754496516725,jump
10/07/2020, 20:43:26,1.8185452,0.485743,-0.64845496,-0.52141446,1.5019667,2.129618,1.9908658454742216,2.657639850659092,jump
10/07/2020, 20:43:26,1.1126626,0.8422736,-0.7369894,-0.52141446,1.5019667,2.129618,1.5781622567511089,2.657639850659092,jump
10/07/2020, 20:43:26,1.1126626,0.8422736,-0.7369894,-0.6667267,1.4470167,1.8902801,1.5781622567511089,2.472153077910148,jump
10/07/2020, 20:43:26,0.37088752,1.0504491,-0.5192425,-0.6667267,1.4470167,1.8902801,1.2290702712536352,2.472153077910148,jump
10/07/2020, 20:43:26,0.37088752,1.0504491,-0.5192425,-0.70458114,1.3981723,1.7119979,1.2290702712536352,2.3199691694131226,jump
10/07/2020, 20:43:26,-0.33738798,0.8470592,-0.2416751,-0.70458114,1.3981723,1.7119979,0.943263892645925,2.3199691694131226,jump
10/07/2020, 20:43:26,-0.33738798,0.8470592,-0.2416751,-0.7021389,1.2797245,1.5544745,0.943263892645925,2.132389426113963,jump
10/07/2020, 20:43:26,-0.96909314,0.5312066,-0.21296121,-0.7021389,1.2797245,1.5544745,1.1254663298176344,2.132389426113963,jump
10/07/2020, 20:43:26,-0.96909314,0.5312066,-0.21296121,-0.65085226,1.1185378,1.3444434,1.1254663298176344,1.8660824221198542,jump
10/07/2020, 20:43:26,-1.3830515,0.4546363,-0.27996024,-0.65085226,1.1185378,1.3444434,1.4825327656318548,1.8660824221198542,jump
10/07/2020, 20:43:26,-1.3830515,0.4546363,-0.27996024,-0.5104245,1.0086378,1.0733567,1.4825327656318548,1.5588386881520298,jump
10/07/2020, 20:43:26,-1.6510476,0.701097,-0.40917268,-0.5104245,1.0086378,1.0733567,1.8398145125971872,1.5588386881520298,jump
10/07/2020, 20:43:26,-1.6510476,0.701097,-0.40917268,-0.33458444,0.93415004,0.80593336,1.8398145125971872,1.278323755142192,jump
10/07/2020, 20:43:26,-1.9501505,0.997807,-0.6580262,-0.33458444,0.93415004,0.80593336,2.2872919135890433,1.278323755142192,jump
10/07/2020, 20:43:26,-1.9501505,0.997807,-0.6580262,-0.19904111,0.83890337,0.5910178,2.2872919135890433,1.0453125103315795,jump
10/07/2020, 20:43:26,-2.2636101,1.268196,-0.88295156,-0.19904111,0.83890337,0.5910178,2.7407764064353617,1.0453125103315795,jump
10/07/2020, 20:43:26,-2.2636101,1.268196,-0.88295156,-0.123332225,0.71923447,0.41395667,2.7407764064353617,0.8389691185035958,jump
10/07/2020, 20:43:26,-2.4526432,1.4117653,-1.1724831,-0.123332225,0.71923447,0.41395667,3.063210147212341,0.8389691185035958,jump
10/07/2020, 20:43:27,9.327223,-2.1870399,2.9766715,-0.5092034,0.28085557,0.59346,10.031988929911039,0.8308806923768478,jump
10/07/2020, 20:43:27,9.327223,-2.1870399,2.9766715,-0.52019334,0.30649891,0.5519422,10.031988929911039,0.8180360130410412,jump
10/07/2020, 20:43:27,9.284152,-2.2420747,2.9455647,-0.52019334,0.30649891,0.5519422,9.994935202271813,0.8180360130410412,jump
10/07/2020, 20:43:27,9.284152,-2.2420747,2.9455647,-0.51164556,0.30894113,0.48478112,9.994935202271813,0.7695703505090095,jump
10/07/2020, 20:43:27,9.135797,-2.321038,2.914458,-0.51164556,0.30894113,0.48478112,9.866309422800072,0.7695703505090095,jump
10/07/2020, 20:43:27,9.135797,-2.321038,2.914458,-0.48844448,0.2955089,0.41884112,9.866309422800072,0.7080475966275654,jump
10/07/2020, 20:43:27,8.930014,-2.3808584,2.928815,-0.48844448,0.2955089,0.41884112,9.694925857267954,0.7080475966275654,jump
10/07/2020, 20:43:27,8.930014,-2.3808584,2.928815,-0.47745445,0.2613178,0.35900667,9.694925857267954,0.6520241819370792,jump
10/07/2020, 20:43:27,8.784052,-2.3976083,2.9766715,-0.47745445,0.2613178,0.35900667,9.579596344647635,0.6520241819370792,jump
10/07/2020, 20:43:27,8.784052,-2.3976083,2.9766715,-0.44570556,0.22712667,0.30894113,9.579596344647635,0.5879494821134749,jump
10/07/2020, 20:43:27,8.702696,-2.4047868,3.0197423,-0.44570556,0.22712667,0.30894113,9.520438956863194,0.5879494821134749,jump
10/07/2020, 20:43:27,8.702696,-2.4047868,3.0197423,-0.39075556,0.19537778,0.26620224,9.520438956863194,0.5115916552111304,jump
10/07/2020, 20:43:27,8.662018,-2.457429,3.0436704,-0.39075556,0.19537778,0.26620224,9.504390528093017,0.5115916552111304,jump
10/07/2020, 20:43:27,8.662018,-2.457429,3.0436704,-0.3370267,0.15019667,0.22224224,9.504390528093017,0.43074080184251645,jump
10/07/2020, 20:43:27,8.69791,-2.4837499,3.1082766,-0.3370267,0.15019667,0.22224224,9.564728987107461,0.43074080184251645,jump
10/07/2020, 20:43:27,8.69791,-2.4837499,3.1082766,-0.31260446,0.12211112,0.17584,9.564728987107461,0.37888306843161584,jump
10/07/2020, 20:43:27,8.819944,-2.4382863,3.1322048,-0.31260446,0.12211112,0.17584,9.67198871622834,0.37888306843161584,jump
10/07/2020, 20:43:27,8.819944,-2.4382863,3.1322048,-0.30772,0.12211112,0.13432223,9.67198871622834,0.35727466698160915,jump
10/07/2020, 20:43:27,8.927621,-2.3569303,3.0747771,-0.30772,0.12211112,0.13432223,9.731998218409501,0.35727466698160915,jump
10/07/2020, 20:43:27,8.927621,-2.3569303,3.0747771,-0.31871,0.14897557,0.08303556,9.731998218409501,0.3614757072215804,jump
10/07/2020, 20:43:28,2.0482562,-3.7304106,1.7395821,-0.07693,-1.1136534,-4.350819,4.597549576278814,4.491744550130508,jump
10/07/2020, 20:43:28,3.4360933,-4.651647,2.2492533,-0.07693,-1.1136534,-4.350819,6.205134834928308,4.491744550130508,jump
10/07/2020, 20:43:28,3.4360933,-4.651647,2.2492533,0.3858711,-1.1014422,-4.7391324,6.205134834928308,4.880722018339181,jump
10/07/2020, 20:43:28,4.5559344,-4.462614,2.1966112,0.3858711,-1.1014422,-4.7391324,6.7451140376621765,4.880722018339181,jump
10/07/2020, 20:43:28,4.5559344,-4.462614,2.1966112,0.85722005,-1.2662922,-5.2788634,6.7451140376621765,5.495882213574896,jump
10/07/2020, 20:43:28,5.2977095,-3.7734814,1.9525433,0.85722005,-1.2662922,-5.2788634,6.79097286072704,5.495882213574896,jump
10/07/2020, 20:43:28,5.2977095,-3.7734814,1.9525433,1.0281756,-1.4299212,-5.687936,6.79097286072704,5.954362563812833,jump
10/07/2020, 20:43:28,5.8097734,-2.981457,1.5577276,1.0281756,-1.4299212,-5.687936,6.7133500203462955,5.954362563812833,jump
10/07/2020, 20:43:28,5.8097734,-2.981457,1.5577276,0.8401245,-1.4885345,-5.8955245,6.7133500203462955,6.138302136330414,jump
10/07/2020, 20:43:28,6.4008007,-2.306681,1.4979069,0.8401245,-1.4885345,-5.8955245,6.966688716433616,6.138302136330414,jump
10/07/2020, 20:43:28,6.4008007,-2.306681,1.4979069,0.39564002,-1.5337156,-5.961465,6.966688716433616,6.168296208785209,jump
10/07/2020, 20:43:28,7.4416785,-2.4239295,1.7659031,0.39564002,-1.5337156,-5.961465,8.023242926645514,6.168296208785209,jump
10/07/2020, 20:43:28,7.4416785,-2.4239295,1.7659031,-0.29917222,-1.6839123,-5.8344693,8.023242926645514,6.079975066017532,jump
10/07/2020, 20:43:28,9.722038,-4.4410787,2.737389,-0.29917222,-1.6839123,-5.8344693,11.033336159652205,6.079975066017532,jump
10/07/2020, 20:43:28,9.722038,-4.4410787,2.737389,-0.8779789,-1.8634156,-5.5658245,11.033336159652205,5.934776081790842,jump
10/07/2020, 20:43:28,13.471592,-6.5946193,3.8739798,-0.8779789,-1.8634156,-5.5658245,15.491304417896947,5.934776081790842,jump
10/07/2020, 20:43:28,13.471592,-6.5946193,3.8739798,-0.7119078,-2.1821256,-5.698926,15.491304417896947,6.14379703048515,jump
10/07/2020, 20:43:28,17.8361,-7.051648,4.354937,-0.7119078,-2.1821256,-5.698926,19.667680805078284,6.14379703048515,jump
10/07/2020, 20:43:28,17.8361,-7.051648,4.354937,-0.24178001,-2.5252578,-6.1495156,19.667680805078284,6.652212198259461,jump
10/07/2020, 20:43:28,22.025932,-7.01097,4.85743,-0.24178001,-2.5252578,-6.1495156,23.61969564153168,6.652212198259461,jump
10/07/2020, 20:43:29,8.9108715,-2.1391835,3.0604203,-0.38831335,0.19293556,-0.20636779,9.661568681505262,0.48020730319300675,jump
10/07/2020, 20:43:29,8.633304,-2.2636101,3.103491,-0.38831335,0.19293556,-0.20636779,9.44931316997543,0.48020730319300675,jump
10/07/2020, 20:43:29,8.633304,-2.2636101,3.103491,-0.3809867,0.17339778,-0.30161446,9.44931316997543,0.5159350082782271,jump
10/07/2020, 20:43:29,8.379665,-2.4335005,3.1226335,-0.3809867,0.17339778,-0.30161446,9.267769759883747,0.5159350082782271,jump
10/07/2020, 20:43:29,8.379665,-2.4335005,3.1226335,-0.34435335,0.13676445,-0.38953447,9.267769759883747,0.5376065936772415,jump
10/07/2020, 20:43:29,8.195417,-2.5555346,3.1752756,-0.34435335,0.13676445,-0.38953447,9.153032198960437,0.5376065936772415,jump
10/07/2020, 20:43:29,8.195417,-2.5555346,3.1752756,-0.27475002,0.09036223,-0.46402225,9.153032198960437,0.5467810856409815,jump
10/07/2020, 20:43:29,8.056634,-2.644069,3.1944182,-0.27475002,0.09036223,-0.46402225,9.061167630253754,0.5467810856409815,jump
10/07/2020, 20:43:29,8.056634,-2.644069,3.1944182,-0.17950334,0.03052778,-0.52752,9.061167630253754,0.5580598037483935,jump
10/07/2020, 20:43:29,8.01117,-2.6632116,3.1872396,-0.17950334,0.03052778,-0.52752,9.023859677672498,0.5580598037483935,jump
10/07/2020, 20:43:29,8.01117,-2.6632116,3.1872396,-0.08425667,-0.04151778,-0.5836911,9.023859677672498,0.5912006735464356,jump
10/07/2020, 20:43:29,8.008778,-2.6464617,3.199204,-0.08425667,-0.04151778,-0.5836911,9.02104121670135,0.5912006735464356,jump
10/07/2020, 20:43:29,8.008778,-2.6464617,3.199204,0.0036633336,-0.09768889,-0.6288723,9.02104121670135,0.636425076614377,jump
10/07/2020, 20:43:29,8.051848,-2.6105695,3.2207394,0.0036633336,-0.09768889,-0.6288723,9.056516874176822,0.636425076614377,jump
10/07/2020, 20:43:29,8.051848,-2.6105695,3.2207394,0.06105556,-0.123332225,-0.6801589,9.056516874176822,0.6939414717066846,jump
10/07/2020, 20:43:29,8.092526,-2.565106,3.225525,0.06105556,-0.123332225,-0.6801589,9.081451611175876,0.6939414717066846,jump
10/07/2020, 20:43:29,8.092526,-2.565106,3.225525,0.10013112,-0.14042778,-0.7228978,9.081451611175876,0.7431873734218755,jump
10/07/2020, 20:43:29,8.1738825,-2.5555346,3.196811,0.10013112,-0.14042778,-0.7228978,9.141264260826107,0.7431873734218755,jump
10/07/2020, 20:43:29,8.1738825,-2.5555346,3.196811,0.11478445,-0.15752333,-0.7668578,9.141264260826107,0.7912395088670542,jump
10/07/2020, 20:43:29,8.209774,-2.5507488,3.1728828,0.11478445,-0.15752333,-0.7668578,9.163727092031404,0.7912395088670542,jump
10/07/2020, 20:43:30,8.477771,-2.7589245,2.8905299,2.2785935,-2.9099078,-5.954138,9.372268939433692,7.007946132528069,jump
10/07/2020, 20:43:30,8.477771,-2.7589245,2.8905299,2.9624157,-2.9160135,-5.733117,9.372268939433692,7.081502177186782,jump
10/07/2020, 20:43:30,11.468799,-6.7669024,4.0773697,2.9624157,-2.9160135,-5.733117,13.92656650065776,7.081502177186782,jump
10/07/2020, 20:43:30,11.468799,-6.7669024,4.0773697,3.5876245,-3.449639,-5.096918,13.92656650065776,7.12387772821988,jump
10/07/2020, 20:43:30,14.842679,-10.743773,4.034299,3.5876245,-3.449639,-5.096918,18.76191238543208,7.12387772821988,jump
10/07/2020, 20:43:30,14.842679,-10.743773,4.034299,4.3373866,-4.2751102,-5.1115713,18.76191238543208,7.950952865554134,jump
10/07/2020, 20:43:30,17.53939,-9.6071825,4.453043,4.3373866,-4.2751102,-5.1115713,20.487990843755494,7.950952865554134,jump
10/07/2020, 20:43:30,17.53939,-9.6071825,4.453043,4.7965245,-4.402106,-5.62688,20.487990843755494,8.605054531980972,jump
10/07/2020, 20:43:30,19.101904,-7.204789,5.608776,4.7965245,-4.402106,-5.62688,21.171917468991698,8.605054531980972,jump
10/07/2020, 20:43:30,19.101904,-7.204789,5.608776,4.228708,-4.0467625,-5.788067,21.171917468991698,8.231644675177689,jump
10/07/2020, 20:43:30,19.803,-4.8526444,6.5491557,4.228708,-4.0467625,-5.788067,21.414910405921283,8.231644675177689,jump
10/07/2020, 20:43:30,19.803,-4.8526444,6.5491557,3.1895423,-3.790329,-5.5572767,21.414910405921283,7.444669127764359,jump
10/07/2020, 20:43:30,20.14278,-3.5533416,7.3172517,3.1895423,-3.790329,-5.5572767,21.723259591375385,7.444669127764359,jump
10/07/2020, 20:43:30,20.14278,-3.5533416,7.3172517,2.32988,-3.5888457,-5.1457624,21.723259591375385,6.692310931835539,jump
10/07/2020, 20:43:30,20.551954,-3.7471602,8.360522,2.32988,-3.5888457,-5.1457624,22.5016080860726,6.692310931835539,jump
10/07/2020, 20:43:30,20.551954,-3.7471602,8.360522,1.9269134,-3.4862723,-4.734248,22.5016080860726,6.187099128307136,jump
10/07/2020, 20:43:30,21.049662,-4.625326,9.035298,1.9269134,-3.4862723,-4.734248,23.36917870375125,6.187099128307136,jump
10/07/2020, 20:43:30,21.049662,-4.625326,9.035298,1.9647678,-3.5180213,-4.4668245,23.36917870375125,6.0157549935346015,jump
10/07/2020, 20:43:30,21.801006,-5.276174,10.212567,1.9647678,-3.5180213,-4.4668245,24.645860112769043,6.0157549935346015,jump
10/07/2020, 20:43:30,21.801006,-5.276174,10.212567,2.2114322,-3.5338957,-4.2714467,24.645860112769043,5.968593506608587,jump
10/07/2020, 20:43:31,10.028319,-3.4097722,4.8119664,0.48356003,-0.098910004,-0.8865267,11.633948433335684,1.014664025148502,jump
10/07/2020, 20:43:31,10.028319,-3.4097722,4.8119664,0.4359367,-0.025643334,-0.7631945,11.633948433335684,0.879297574590093,jump
10/07/2020, 20:43:31,9.853643,-3.8141594,4.9986067,0.4359367,-0.025643334,-0.7631945,11.688805295392786,0.879297574590093,jump
10/07/2020, 20:43:31,9.853643,-3.8141594,4.9986067,0.38220778,-0.015874445,-0.64963114,11.688805295392786,0.7538934987053998,jump
10/07/2020, 20:43:31,9.65504,-4.0103707,5.0919266,0.38220778,-0.015874445,-0.64963114,11.62886851500641,0.7538934987053998,jump
10/07/2020, 20:43:31,9.65504,-4.0103707,5.0919266,0.2283478,-0.023201112,-0.52752,11.62886851500641,0.575289803177029,jump
10/07/2020, 20:43:31,9.446864,-4.017549,5.271388,0.2283478,-0.023201112,-0.52752,11.539994546877407,0.575289803177029,jump
10/07/2020, 20:43:31,9.446864,-4.017549,5.271388,0.02075889,0.024422223,-0.35534334,11.539994546877407,0.35678602417009214,jump
10/07/2020, 20:43:31,9.341579,-4.0510488,5.2283173,0.02075889,0.024422223,-0.35534334,11.446021307954794,0.35678602417009214,jump
10/07/2020, 20:43:31,9.341579,-4.0510488,5.2283173,-0.16729222,0.12455334,-0.12577444,11.446021307954794,0.24355580910574964,jump
10/07/2020, 20:43:31,9.298509,-4.180261,5.1732826,-0.16729222,0.12455334,-0.12577444,11.432396916769475,0.24355580910574964,jump
10/07/2020, 20:43:31,9.298509,-4.180261,5.1732826,-0.26986557,0.21613668,0.11844778,11.432396916769475,0.36547553674433636,jump
10/07/2020, 20:43:31,9.315259,-4.362116,5.1326046,-0.26986557,0.21613668,0.11844778,11.495465828155773,0.36547553674433636,jump
10/07/2020, 20:43:31,9.315259,-4.362116,5.1326046,-0.28085557,0.25277,0.31871,11.495465828155773,0.4943162844117323,jump
10/07/2020, 20:43:31,9.379865,-4.517649,5.1014977,-0.28085557,0.25277,0.31871,11.59380412050107,0.4943162844117323,jump
10/07/2020, 20:43:31,9.379865,-4.517649,5.1014977,-0.21125223,0.24422224,0.48600224,11.59380412050107,0.5834982257325737,jump
10/07/2020, 20:43:31,9.51147,-4.5822554,5.211568,-0.21125223,0.24422224,0.48600224,11.773935727141298,0.5834982257325737,jump
10/07/2020, 20:43:31,9.51147,-4.5822554,5.211568,-0.078151114,0.24910668,0.6679478,11.773935727141298,0.717158304939851,jump
10/07/2020, 20:43:31,9.750752,-4.7018967,5.5465627,-0.078151114,0.24910668,0.6679478,12.16344371733211,0.717158304939851,jump
10/07/2020, 20:43:31,9.750752,-4.7018967,5.5465627,0.023201112,0.28940335,0.89263225,12.16344371733211,0.9386612364000999,jump
10/07/2020, 20:43:32,7.4273214,-8.9348,4.955536,-2.4019256,0.54950005,0.49943447,12.631432749813724,2.5140866150505925,jump
10/07/2020, 20:43:32,7.4273214,-8.9348,4.955536,-1.7486312,0.4591378,0.5372889,12.631432749813724,1.8860535764696686,jump
10/07/2020, 20:43:32,7.2287173,-8.554341,4.8646083,-1.7486312,0.4591378,0.5372889,12.210467777430123,1.8860535764696686,jump
10/07/2020, 20:43:32,7.2287173,-8.554341,4.8646083,-1.0892311,0.38831335,0.48722336,12.210467777430123,1.2548299971853767,jump
10/07/2020, 20:43:32,7.109076,-7.743174,4.735396,-1.0892311,0.38831335,0.48722336,11.529079802117574,1.2548299971853767,jump
10/07/2020, 20:43:32,7.109076,-7.743174,4.735396,-0.52019334,0.32970002,0.31993112,11.529079802117574,0.6940166682245716,jump
10/07/2020, 20:43:32,6.946364,-6.7166533,4.5942197,-0.52019334,0.32970002,0.31993112,10.69917092516339,0.6940166682245716,jump
10/07/2020, 20:43:32,6.946364,-6.7166533,4.5942197,-0.09280445,0.28329778,0.13432223,10.69917092516339,0.3269751616133464,jump
10/07/2020, 20:43:32,6.745367,-5.74756,4.4841495,-0.09280445,0.28329778,0.13432223,9.931868868344047,0.3269751616133464,jump
10/07/2020, 20:43:32,6.745367,-5.74756,4.4841495,0.20392556,0.23811668,0.0,9.931868868344047,0.31350468905326173,jump
10/07/2020, 20:43:32,6.5850477,-4.907679,4.319045,0.20392556,0.23811668,0.0,9.279133459018265,0.31350468905326173,jump
10/07/2020, 20:43:32,6.5850477,-4.907679,4.319045,0.42250445,0.2075889,-0.06105556,9.279133459018265,0.4746903680738315,jump
10/07/2020, 20:43:32,6.503692,-4.2185464,4.287938,0.42250445,0.2075889,-0.06105556,8.858925360121107,0.4746903680738315,jump
10/07/2020, 20:43:32,6.503692,-4.2185464,4.287938,0.64841,0.18927222,-0.064718895,8.858925360121107,0.6785632375920827,jump
10/07/2020, 20:43:32,6.6855464,-3.7998023,4.278367,0.64841,0.18927222,-0.064718895,8.799968905454465,0.6785632375920827,jump
10/07/2020, 20:43:32,6.6855464,-3.7998023,4.278367,0.91461223,0.15630223,-0.057392225,8.799968905454465,0.9296449817162146,jump
10/07/2020, 20:43:32,7.0468626,-3.548556,4.24726,0.91461223,0.15630223,-0.057392225,8.96045429416567,0.9296449817162146,jump
10/07/2020, 20:43:32,7.0468626,-3.548556,4.24726,1.229659,0.07937223,-0.070824444,8.96045429416567,1.2342516815685183,jump
10/07/2020, 20:43:32,7.5828547,-3.4337006,4.2017965,1.229659,0.07937223,-0.070824444,9.324434554740193,1.2342516815685183,jump
10/07/2020, 20:43:32,7.5828547,-3.4337006,4.2017965,1.5361578,-0.015874445,-0.12089001,9.324434554740193,1.5409890722790038,jump
10/07/2020, 20:43:33,8.477771,-2.8570302,3.5246277,0.2613178,0.034191113,-0.11600556,9.61551971796839,0.287946713500057,jump
10/07/2020, 20:43:33,8.477771,-2.8570302,3.5246277,0.31504667,-0.013432222,-0.085477784,9.61551971796839,0.32671283913388977,jump
10/07/2020, 20:43:33,8.370093,-2.751746,3.4528432,0.31504667,-0.013432222,-0.085477784,9.46322854096025,0.32671283913388977,jump
10/07/2020, 20:43:33,8.370093,-2.751746,3.4528432,0.35534334,-0.058613338,-0.085477784,9.46322854096025,0.37014978796108855,jump
10/07/2020, 20:43:33,8.348558,-2.6416762,3.4432719,0.35534334,-0.058613338,-0.085477784,9.40919773828776,0.37014978796108855,jump
10/07/2020, 20:43:33,8.348558,-2.6416762,3.4432719,0.39075556,-0.07448778,-0.07693,9.40919773828776,0.4051623942413961,jump
10/07/2020, 20:43:33,8.408379,-2.6081767,3.4839497,0.39075556,-0.07448778,-0.07693,9.467910101097795,0.4051623942413961,jump
10/07/2020, 20:43:33,8.408379,-2.6081767,3.4839497,0.40663,-0.06716111,-0.054950003,9.467910101097795,0.4157861017894352,jump
10/07/2020, 20:43:33,8.523234,-2.5938199,3.548556,0.40663,-0.06716111,-0.054950003,9.589873609671459,0.4157861017894352,jump
10/07/2020, 20:43:33,8.523234,-2.5938199,3.548556,0.43349445,-0.046402223,-0.036633335,9.589873609671459,0.4375072623340108,jump
10/07/2020, 20:43:33,8.640483,-2.6249263,3.562913,0.43349445,-0.046402223,-0.036633335,9.707859271988964,0.4375072623340108,jump
10/07/2020, 20:43:33,8.640483,-2.6249263,3.562913,0.47745445,-0.039075557,-0.03052778,9.707859271988964,0.4800224993392495,jump
10/07/2020, 20:43:33,8.678768,-2.6249263,3.629912,0.47745445,-0.039075557,-0.03052778,9.766653232766375,0.4800224993392495,jump
10/07/2020, 20:43:33,8.678768,-2.6249263,3.629912,0.5153089,-0.045181114,-0.025643334,9.766653232766375,0.5179210298356532,jump
10/07/2020, 20:43:33,8.645268,-2.629712,3.603591,0.5153089,-0.045181114,-0.025643334,9.72840788634112,0.5179210298356532,jump
10/07/2020, 20:43:33,8.645268,-2.629712,3.603591,0.5324045,-0.05250778,-0.018316668,9.72840788634112,0.5353009435481102,jump
10/07/2020, 20:43:33,8.657232,-2.6225336,3.5605202,0.5324045,-0.05250778,-0.018316668,9.721247707826612,0.5353009435481102,jump
10/07/2020, 20:43:33,8.657232,-2.6225336,3.5605202,0.53118336,-0.054950003,0.0024422223,9.721247707826612,0.5340236242964496,jump
10/07/2020, 20:43:33,8.702696,-2.5746772,3.5437703,0.53118336,-0.054950003,0.0024422223,9.742904385449611,0.5340236242964496,jump
10/07/2020, 20:43:33,8.702696,-2.5746772,3.5437703,0.5287411,-0.04151778,0.024422223,9.742904385449611,0.5309306398217141,jump
10/07/2020, 20:43:34,6.8650084,-4.0558343,4.7042894,-0.8962956,0.5678167,-0.0024422223,9.257886941368433,1.0610219393663083,jump
10/07/2020, 20:43:34,6.32423,-3.3714871,4.331009,-0.8962956,0.5678167,-0.0024422223,8.373795511939596,1.0610219393663083,jump
10/07/2020, 20:43:34,6.32423,-3.3714871,4.331009,-0.86821,0.5153089,-0.31138334,8.373795511939596,1.0565469685361344,jump
10/07/2020, 20:43:34,5.95095,-2.914458,3.9338005,-0.86821,0.5153089,-0.31138334,7.706014490865978,1.0565469685361344,jump
10/07/2020, 20:43:34,5.95095,-2.914458,3.9338005,-0.89019006,0.4823389,-0.56049,7.706014490865978,1.1572546068171836,jump
10/07/2020, 20:43:34,5.7667027,-2.7996025,3.546163,-0.89019006,0.4823389,-0.56049,7.3258382651534495,1.1572546068171836,jump
10/07/2020, 20:43:34,5.7667027,-2.7996025,3.546163,-0.91094893,0.4359367,-0.70580226,7.3258382651534495,1.232081810178017,jump
10/07/2020, 20:43:34,5.800202,-2.8498518,3.1322048,-0.91094893,0.4359367,-0.70580226,7.181553054437533,1.232081810178017,jump
10/07/2020, 20:43:34,5.800202,-2.8498518,3.1322048,-0.8816423,0.36389112,-0.8205867,7.181553054437533,1.258202036922267,jump
10/07/2020, 20:43:34,5.9964137,-2.952743,2.7469604,-0.8816423,0.36389112,-0.8205867,7.2264417482954775,1.258202036922267,jump
10/07/2020, 20:43:34,5.9964137,-2.952743,2.7469604,-0.7863956,0.29306668,-0.9512456,7.2264417482954775,1.2685323553067636,jump
10/07/2020, 20:43:34,6.2787666,-2.9623144,2.4335005,-0.7863956,0.29306668,-0.9512456,7.356639290614296,1.2685323553067636,jump
10/07/2020, 20:43:34,6.2787666,-2.9623144,2.4335005,-0.6740534,0.23689556,-1.0953367,7.356639290614296,1.3077575795338228,jump
10/07/2020, 20:43:34,6.5204415,-2.952743,2.1918256,-0.6740534,0.23689556,-1.0953367,7.4859167039444925,1.3077575795338228,jump
10/07/2020, 20:43:34,6.5204415,-2.952743,2.1918256,-0.5873545,0.20636779,-1.2211112,7.4859167039444925,1.3706514734447877,jump
10/07/2020, 20:43:34,6.664011,-2.9072795,2.024328,-0.5873545,0.20636779,-1.2211112,7.547133263389721,1.3706514734447877,jump
10/07/2020, 20:43:34,6.664011,-2.9072795,2.024328,-0.5421733,0.19171445,-1.2980411,7.547133263389721,1.419724289088538,jump
10/07/2020, 20:43:34,6.7836523,-2.8594232,1.9334008,-0.5421733,0.19171445,-1.2980411,7.611325631921167,1.419724289088538,jump
10/07/2020, 20:43:34,6.7836523,-2.8594232,1.9334008,-0.53851,0.17706113,-1.34078,7.611325631921167,1.4556904719540258,jump
10/07/2020, 20:43:34,6.884151,-2.7708886,1.9190438,-0.53851,0.17706113,-1.34078,7.664991012346823,1.4556904719540258,jump
10/07/2020, 20:43:35,9.221938,-1.7371893,3.7543387,0.9072856,-0.19904111,-0.05617111,10.107276040414616,0.9305587923858464,jump
10/07/2020, 20:43:35,9.377472,-1.5744773,3.8333018,0.9072856,-0.19904111,-0.05617111,10.252324665851145,0.9305587923858464,jump
10/07/2020, 20:43:35,9.377472,-1.5744773,3.8333018,0.75098336,-0.13920668,-0.05006556,10.252324665851145,0.7654156141494295,jump
10/07/2020, 20:43:35,9.444471,-1.3974084,3.938586,0.75098336,-0.13920668,-0.05006556,10.327790133930712,0.7654156141494295,jump
10/07/2020, 20:43:35,9.444471,-1.3974084,3.938586,0.5836911,-0.08792,-0.051286668,10.327790133930712,0.5924994285865504,jump
10/07/2020, 20:43:35,9.466006,-1.2299109,4.072584,0.5836911,-0.08792,-0.051286668,10.378048817146523,0.5924994285865504,jump
10/07/2020, 20:43:35,9.466006,-1.2299109,4.072584,0.41273558,-0.051286668,-0.05372889,10.378048817146523,0.41936592137363926,jump
10/07/2020, 20:43:35,9.410972,-1.0887343,4.206582,0.41273558,-0.051286668,-0.05372889,10.36566747745926,0.41936592137363926,jump
10/07/2020, 20:43:35,9.410972,-1.0887343,4.206582,0.24788557,-0.0012211112,-0.05372889,10.36566747745926,0.25364451596204673,jump
10/07/2020, 20:43:35,9.35833,-1.0767702,4.2999024,0.24788557,-0.0012211112,-0.05372889,10.355043754594567,0.25364451596204673,jump
10/07/2020, 20:43:35,9.35833,-1.0767702,4.2999024,0.123332225,0.054950003,-0.013432222,10.355043754594567,0.13568627437391168,jump
10/07/2020, 20:43:35,9.360723,-1.174876,4.347759,0.123332225,0.054950003,-0.013432222,10.387803732385924,0.13568627437391168,jump
10/07/2020, 20:43:35,9.360723,-1.174876,4.347759,0.064718895,0.09402556,0.02075889,10.387803732385924,0.11601841537203376,jump
10/07/2020, 20:43:35,9.336794,-1.2634103,4.347759,0.064718895,0.09402556,0.02075889,10.37665323242153,0.11601841537203376,jump
10/07/2020, 20:43:35,9.336794,-1.2634103,4.347759,0.05372889,0.10745778,0.023201112,10.37665323242153,0.12236118466361454,jump
10/07/2020, 20:43:35,9.3200445,-1.3328022,4.347759,0.05372889,0.10745778,0.023201112,10.37027472018628,0.12236118466361454,jump
10/07/2020, 20:43:35,9.3200445,-1.3328022,4.347759,0.06105556,0.11478445,0.028085556,10.37027472018628,0.13301146426229213,jump
10/07/2020, 20:43:35,9.303294,-1.3351951,4.462614,0.06105556,0.11478445,0.028085556,10.40427569499794,0.13301146426229213,jump
10/07/2020, 20:43:35,9.303294,-1.3351951,4.462614,0.08059334,0.1306589,0.054950003,10.40427569499794,0.16305378264963385,jump
10/07/2020, 20:43:35,9.353543,-1.3471591,4.570291,0.08059334,0.1306589,0.054950003,10.497198192830393,0.16305378264963385,jump
10/07/2020, 20:43:36,5.355137,-2.5698915,3.306881,0.9072856,-0.27108666,-0.27230778,6.7983302812889885,0.9852951919425894,jump
10/07/2020, 20:43:36,5.355137,-2.5698915,3.306881,0.8584412,-0.27963445,-0.41273558,6.7983302812889885,0.9927070729875253,jump
10/07/2020, 20:43:36,5.814559,-2.457429,3.2470603,0.8584412,-0.27963445,-0.41273558,7.0986938028496445,0.9927070729875253,jump
10/07/2020, 20:43:36,5.814559,-2.457429,3.2470603,0.7522045,-0.23079,-0.54339445,7.0986938028496445,0.956218137644386,jump
10/07/2020, 20:43:36,6.2787666,-2.4263222,3.2303107,0.7522045,-0.23079,-0.54339445,7.46624785440614,0.956218137644386,jump
10/07/2020, 20:43:36,6.2787666,-2.4263222,3.2303107,0.6191034,-0.1526389,-0.6520734,7.46624785440614,0.9120237472565674,jump
10/07/2020, 20:43:36,6.690332,-2.400001,3.1274192,0.6191034,-0.1526389,-0.6520734,7.765391008097722,0.9120237472565674,jump
10/07/2020, 20:43:36,6.690332,-2.400001,3.1274192,0.4798967,-0.07204556,-0.7546467,7.765391008097722,0.8972084871284007,jump
10/07/2020, 20:43:36,6.984649,-2.4215364,3.0723844,0.4798967,-0.07204556,-0.7546467,8.005542366643818,0.8972084871284007,jump
10/07/2020, 20:43:36,6.984649,-2.4215364,3.0723844,0.36267,-0.0024422223,-0.8498934,8.005542366643818,0.9240423544451204,jump
10/07/2020, 20:43:36,7.300502,-2.440679,3.0819557,0.36267,-0.0024422223,-0.8498934,8.291724306365218,0.9240423544451204,jump
10/07/2020, 20:43:36,7.300502,-2.440679,3.0819557,0.28574002,0.035412222,-0.9329289,8.291724306365218,0.9763491960801175,jump
10/07/2020, 20:43:36,7.6067834,-2.5124638,3.1513474,0.28574002,0.035412222,-0.9329289,8.608520102638737,0.9763491960801175,jump
10/07/2020, 20:43:36,7.6067834,-2.5124638,3.1513474,0.2625389,0.035412222,-0.9927634,8.608520102638737,1.0275017631271002,jump
10/07/2020, 20:43:36,8.094919,-2.5842485,3.2685957,0.2625389,0.035412222,-0.9927634,9.104382202122004,1.0275017631271002,jump
10/07/2020, 20:43:36,8.094919,-2.5842485,3.2685957,0.26864445,0.007326667,-1.0330601,9.104382202122004,1.0674439741184873,jump
10/07/2020, 20:43:36,8.781659,-2.5866413,3.397808,0.26864445,0.007326667,-1.0330601,9.764903993359173,1.0674439741184873,jump
10/07/2020, 20:43:36,8.781659,-2.5866413,3.397808,0.26986557,-0.014653334,-1.06603,9.764903993359173,1.0997555012972373,jump
10/07/2020, 20:43:36,9.58804,-2.5316064,3.4672,0.26986557,-0.014653334,-1.06603,10.50528557716292,1.0997555012972373,jump
10/07/2020, 20:43:36,9.58804,-2.5316064,3.4672,0.23689556,-0.0012211112,-1.0855678,10.50528557716292,1.111115887698303,jump
10/07/2020, 20:43:37,11.736795,-0.40917268,3.5413775,-2.7304046,0.123332225,-1.0025322,12.26626039407855,2.9112524969840843,jump
10/07/2020, 20:43:37,11.736795,-0.40917268,3.5413775,-3.4435334,0.27719223,-0.90118,12.26626039407855,3.5702777760545366,jump
10/07/2020, 20:43:37,11.724831,-0.62452674,3.1393833,-3.4435334,0.27719223,-0.90118,12.153905318665892,3.5702777760545366,jump
10/07/2020, 20:43:37,11.724831,-0.62452674,3.1393833,-3.96739,0.42250445,-0.7522045,12.153905318665892,4.060111511070779,jump
10/07/2020, 20:43:37,11.466406,-1.160519,2.7852457,-3.96739,0.42250445,-0.7522045,11.856764367645118,4.060111511070779,jump
10/07/2020, 20:43:37,11.466406,-1.160519,2.7852457,-4.3117437,0.5482789,-0.5592689,11.856764367645118,4.382296831943182,jump
10/07/2020, 20:43:37,11.004591,-1.6845472,2.5603201,-4.3117437,0.5482789,-0.5592689,11.423395346918864,4.382296831943182,jump
10/07/2020, 20:43:37,11.004591,-1.6845472,2.5603201,-4.5291014,0.6203245,-0.37732336,11.423395346918864,4.586930850699658,jump
10/07/2020, 20:43:37,10.3441725,-2.0961127,2.4382863,-4.5291014,0.6203245,-0.37732336,10.83239737640896,4.586930850699658,jump
10/07/2020, 20:43:37,10.3441725,-2.0961127,2.4382863,-4.6524334,0.6020078,-0.19293556,10.83239737640896,4.695186261074623,jump
10/07/2020, 20:43:37,9.638289,-2.498107,2.2468605,-4.6524334,0.6020078,-0.19293556,10.207132018541802,4.695186261074623,jump
10/07/2020, 20:43:37,9.638289,-2.498107,2.2468605,-4.6963935,0.5140878,-0.0036633336,10.207132018541802,4.724448273990923,jump
10/07/2020, 20:43:37,9.044869,-2.8809586,2.2372892,-4.6963935,0.5140878,-0.0036633336,9.752694397264408,4.724448273990923,jump
10/07/2020, 20:43:37,9.044869,-2.8809586,2.2372892,-4.623127,0.39808223,0.2075889,9.752694397264408,4.644875209923095,jump
10/07/2020, 20:43:37,8.597412,-3.3140593,2.2085752,-4.623127,0.39808223,0.2075889,9.475035006265086,4.644875209923095,jump
10/07/2020, 20:43:37,8.597412,-3.3140593,2.2085752,-4.3996634,0.27475002,0.43105224,9.475035006265086,4.429258636160746,jump
10/07/2020, 20:43:37,8.327023,-3.8691943,2.2779672,-4.3996634,0.27475002,0.43105224,9.460396583286549,4.429258636160746,jump
10/07/2020, 20:43:37,8.327023,-3.8691943,2.2779672,-4.0369935,0.16362889,0.6337567,9.460396583286549,4.089711299480041,jump
10/07/2020, 20:43:37,8.181061,-4.4243293,2.3353949,-4.0369935,0.16362889,0.6337567,9.58950021641477,4.089711299480041,jump
10/07/2020, 20:43:37,8.181061,-4.4243293,2.3353949,-3.5693078,0.05250778,0.8071545,9.58950021641477,3.659810598465489,jump
10/07/2020, 20:43:38,9.741181,-0.6843473,1.98365,-3.3092113,0.5641534,2.3201113,9.96462808848353,4.08069411742814,jump
10/07/2020, 20:43:38,9.767502,-1.8999012,2.589034,-3.3092113,0.5641534,2.3201113,10.281868209413256,4.08069411742814,jump
10/07/2020, 20:43:38,9.767502,-1.8999012,2.589034,-3.2518191,0.5470578,2.206548,10.281868209413256,3.9676761324137413,jump
10/07/2020, 20:43:38,9.755538,-2.9048867,3.2303107,-3.2518191,0.5470578,2.206548,10.679128960803634,3.9676761324137413,jump
10/07/2020, 20:43:38,9.755538,-2.9048867,3.2303107,-3.1455824,0.5092034,2.0612357,10.679128960803634,3.7950849028203044,jump
10/07/2020, 20:43:38,9.650253,-3.6658044,3.7088752,-3.1455824,0.5092034,2.0612357,10.96910504863515,3.7950849028203044,jump
10/07/2020, 20:43:38,9.650253,-3.6658044,3.7088752,-2.9709635,0.41762,1.867079,10.96910504863515,3.533697004619677,jump
10/07/2020, 20:43:38,9.332008,-4.1204405,3.952943,-2.9709635,0.41762,1.867079,10.940300219181134,3.533697004619677,jump
10/07/2020, 20:43:38,9.332008,-4.1204405,3.952943,-2.6937711,0.28085557,1.6045401,10.940300219181134,3.1479885133858443,jump
10/07/2020, 20:43:38,8.898908,-4.4889355,4.0797625,-2.6937711,0.28085557,1.6045401,10.76965927715843,3.1479885133858443,jump
10/07/2020, 20:43:38,8.898908,-4.4889355,4.0797625,-2.37384,0.17950334,1.3358957,10.76965927715843,2.7298269992268205,jump
10/07/2020, 20:43:38,8.41795,-5.087141,4.17069,-2.37384,0.17950334,1.3358957,10.683423433538483,2.7298269992268205,jump
10/07/2020, 20:43:38,8.41795,-5.087141,4.17069,-2.041698,0.18316667,1.1075479,10.683423433538483,2.3299663023972195,jump
10/07/2020, 20:43:38,7.960921,-5.814559,4.328616,-2.041698,0.18316667,1.1075479,10.766720671885436,2.3299663023972195,jump
10/07/2020, 20:43:38,7.960921,-5.814559,4.328616,-1.5837811,0.2075889,0.91094893,10.766720671885436,1.8388267327054943,jump
10/07/2020, 20:43:38,7.420143,-6.2668023,4.0845485,-1.5837811,0.2075889,0.91094893,10.536359497823547,1.8388267327054943,jump
10/07/2020, 20:43:38,7.420143,-6.2668023,4.0845485,-0.9426978,0.13188,0.6935911,10.536359497823547,1.1777691449571615,jump
10/07/2020, 20:43:38,6.71426,-6.1208405,3.804588,-0.9426978,0.13188,0.6935911,9.84991716688479,1.1777691449571615,jump
10/07/2020, 20:43:38,6.71426,-6.1208405,3.804588,-0.22102112,-0.008547778,0.44204223,9.84991716688479,0.4942921530995322,jump
10/07/2020, 20:43:38,6.175875,-5.6183476,3.7686956,-0.22102112,-0.008547778,0.44204223,9.160258241671318,0.4942921530995322,jump
10/07/2020, 20:43:39,17.69253,-8.315059,7.7001033,-0.6655056,0.16485001,3.0063758,21.010887613509723,3.0835642692443623,jump
10/07/2020, 20:43:39,17.69253,-8.315059,7.7001033,-0.05617111,0.05617111,3.3751512,21.010887613509723,3.376085858320415,jump
10/07/2020, 20:43:39,19.81975,-8.446664,7.645068,-0.05617111,0.05617111,3.3751512,22.860789159981046,3.376085858320415,jump
10/07/2020, 20:43:39,19.81975,-8.446664,7.645068,0.55438447,-0.025643334,3.7048512,22.860789159981046,3.7461876312572575,jump
10/07/2020, 20:43:39,21.714865,-7.7479596,7.4919276,0.55438447,-0.025643334,3.7048512,24.242425785696998,3.7461876312572575,jump
10/07/2020, 20:43:39,21.714865,-7.7479596,7.4919276,0.8425667,0.1965989,4.1029334,24.242425785696998,4.193164957572442,jump
10/07/2020, 20:43:39,23.282164,-6.745367,7.393822,0.8425667,0.1965989,4.1029334,25.342212336211098,4.193164957572442,jump
10/07/2020, 20:43:39,23.282164,-6.745367,7.393822,0.7326667,0.61544,4.5669556,25.342212336211098,4.666117229978007,jump
10/07/2020, 20:43:39,24.418755,-5.9557357,7.460821,0.7326667,0.61544,4.5669556,26.218509013901247,4.666117229978007,jump
10/07/2020, 20:43:39,24.418755,-5.9557357,7.460821,0.40663,1.0306178,4.922299,26.218509013901247,5.045448208487943,jump
10/07/2020, 20:43:39,24.839891,-5.7140603,7.704889,0.40663,1.0306178,4.922299,26.62772997016865,5.045448208487943,jump
10/07/2020, 20:43:39,24.839891,-5.7140603,7.704889,-0.009768889,1.4323634,5.0590634,26.62772997016865,5.257935255418058,jump
10/07/2020, 20:43:39,24.459433,-5.895915,8.133204,-0.009768889,1.4323634,5.0590634,26.44191127843596,5.257935255418058,jump
10/07/2020, 20:43:39,24.459433,-5.895915,8.133204,-0.57148004,1.7889278,5.085928,26.44191127843596,5.421578674989591,jump
10/07/2020, 20:43:39,23.344378,-6.587441,8.9348,-0.57148004,1.7889278,5.085928,25.849274532854412,5.421578674989591,jump
10/07/2020, 20:43:39,23.344378,-6.587441,8.9348,-1.32979,2.1137433,5.11035,25.849274532854412,5.6878757603935615,jump
10/07/2020, 20:43:39,22.181465,-7.5924263,9.793823,-1.32979,2.1137433,5.11035,25.40829209084889,5.6878757603935615,jump
10/07/2020, 20:43:39,22.181465,-7.5924263,9.793823,-1.9928534,2.3433123,5.030978,25.40829209084889,5.896890598245667,jump
10/07/2020, 20:43:39,21.061625,-8.855837,10.51167,-1.9928534,2.3433123,5.030978,25.14981278080243,5.896890598245667,jump
10/07/2020, 20:43:39,21.061625,-8.855837,10.51167,-2.2602768,2.647369,4.8539166,25.14981278080243,5.973099707791198,jump
10/07/2020, 20:43:40,7.23111,-2.902494,4.4410787,-0.7534256,0.49455002,-0.023201112,8.968645609079706,0.9015365468542097,jump
10/07/2020, 20:43:40,7.23111,-2.902494,4.4410787,-0.65085226,0.38709223,0.02075889,8.968645609079706,0.7575486758856232,jump
10/07/2020, 20:43:40,7.597212,-2.9216363,4.4195433,-0.65085226,0.38709223,0.02075889,9.262070465686836,0.7575486758856232,jump
10/07/2020, 20:43:40,7.597212,-2.9216363,4.4195433,-0.5262989,0.26498112,0.06716111,9.262070465686836,0.5930565918973162,jump
10/07/2020, 20:43:40,8.169097,-2.8666015,4.426722,-0.5262989,0.26498112,0.06716111,9.723549609151627,0.5930565918973162,jump
10/07/2020, 20:43:40,8.169097,-2.8666015,4.426722,-0.42250445,0.20514667,0.106236674,9.723549609151627,0.4815406541516582,jump
10/07/2020, 20:43:40,8.810373,-2.7302105,4.3525443,-0.42250445,0.20514667,0.106236674,10.199086692142348,0.4815406541516582,jump
10/07/2020, 20:43:40,8.810373,-2.7302105,4.3525443,-0.37488112,0.21980001,0.15386,10.199086692142348,0.4609997809339322,jump
10/07/2020, 20:43:40,9.286545,-2.5387847,4.2281175,-0.37488112,0.21980001,0.15386,10.514861843736268,0.4609997809339322,jump
10/07/2020, 20:43:40,9.286545,-2.5387847,4.2281175,-0.39808223,0.28940335,0.20148334,10.514861843736268,0.5318075718678634,jump
10/07/2020, 20:43:40,9.600004,-2.4047868,4.058227,-0.39808223,0.28940335,0.20148334,10.696367941014442,0.5318075718678634,jump
10/07/2020, 20:43:40,9.600004,-2.4047868,4.058227,-0.4591378,0.37488112,0.2625389,10.696367941014442,0.6482823838523127,jump
10/07/2020, 20:43:40,9.731609,-2.3545375,3.888337,-0.4591378,0.37488112,0.2625389,10.740913882683024,0.6482823838523127,jump
10/07/2020, 20:43:40,9.731609,-2.3545375,3.888337,-0.49455002,0.43105224,0.34069002,10.740913882683024,0.7392262447784931,jump
10/07/2020, 20:43:40,9.74836,-2.4598217,3.7854455,-0.49455002,0.43105224,0.34069002,10.742943568831803,0.7392262447784931,jump
10/07/2020, 20:43:40,9.74836,-2.4598217,3.7854455,-0.4493689,0.45303226,0.41029334,10.742943568831803,0.7586245794993192,jump
10/07/2020, 20:43:40,9.836894,-2.6943183,3.7734814,-0.4493689,0.45303226,0.41029334,10.87487917068682,0.7586245794993192,jump
10/07/2020, 20:43:40,9.836894,-2.6943183,3.7734814,-0.3052778,0.41762,0.49455002,10.87487917068682,0.7156680241270702,jump
10/07/2020, 20:43:40,10.047462,-2.9336007,3.8285162,-0.3052778,0.41762,0.49455002,11.145180637702438,0.7156680241270702,jump
10/07/2020, 20:43:40,10.047462,-2.9336007,3.8285162,-0.09646778,0.34679556,0.5800278,11.145180637702438,0.6826459275089983,jump
10/07/2020, 20:43:41,27.158537,-8.755338,10.461421,-3.130929,2.504499,6.0774703,30.39216009535578,7.280856863923894,jump
10/07/2020, 20:43:41,27.158537,-8.755338,10.461421,-3.5094736,2.7743645,6.6721516,30.39216009535578,8.033125756399208,jump
10/07/2020, 20:43:41,30.340992,-10.4159565,10.4566345,-3.5094736,2.7743645,6.6721516,33.740319340903824,8.033125756399208,jump
10/07/2020, 20:43:41,30.340992,-10.4159565,10.4566345,-3.405679,3.2652512,6.9823136,33.740319340903824,8.42693409080212,jump
10/07/2020, 20:43:41,31.767113,-11.899507,10.234102,-3.405679,3.2652512,6.9823136,35.43281751078855,8.42693409080212,jump
10/07/2020, 20:43:41,31.767113,-11.899507,10.234102,-2.8280935,3.745148,7.0482535,35.43281751078855,8.467710672721445,jump
10/07/2020, 20:43:41,30.309885,-12.330215,9.755538,-2.8280935,3.745148,7.0482535,34.14518801801787,8.467710672721445,jump
10/07/2020, 20:43:41,30.309885,-12.330215,9.755538,-2.0270445,4.0186768,6.950565,34.14518801801787,8.280641540392661,jump
10/07/2020, 20:43:41,27.019753,-10.913664,8.62134,-2.0270445,4.0186768,6.950565,30.389185315579866,8.280641540392661,jump
10/07/2020, 20:43:41,27.019753,-10.913664,8.62134,-1.3542123,4.3373866,6.7808304,30.389185315579866,8.162504161456932,jump
10/07/2020, 20:43:41,22.956741,-8.224132,7.233503,-1.3542123,4.3373866,6.7808304,25.43564185626038,8.162504161456932,jump
10/07/2020, 20:43:41,22.956741,-8.224132,7.233503,-1.0855678,4.880781,6.6806993,25.43564185626038,8.344592630430679,jump
10/07/2020, 20:43:41,18.570696,-5.4149575,5.642276,-1.0855678,4.880781,6.6806993,20.15013118213619,8.344592630430679,jump
10/07/2020, 20:43:41,18.570696,-5.4149575,5.642276,-1.1661612,5.1921644,6.573241,20.15013118213619,8.45730474739342,jump
10/07/2020, 20:43:41,13.921442,-2.804388,3.8691943,-1.1661612,5.1921644,6.573241,14.718756905837456,8.45730474739342,jump
10/07/2020, 20:43:41,13.921442,-2.804388,3.8691943,-1.4335845,4.855138,6.338788,14.718756905837456,8.112198308801219,jump
10/07/2020, 20:43:41,9.329616,-0.8255238,2.120041,-1.4335845,4.855138,6.338788,9.603009426041531,8.112198308801219,jump
10/07/2020, 20:43:41,9.329616,-0.8255238,2.120041,-1.6680379,4.326397,6.050606,9.603009426041531,7.622984398483101,jump
10/07/2020, 20:43:41,5.3910294,0.27517462,1.2155539,-1.6680379,4.326397,6.050606,5.533216952429964,7.622984398483101,jump
10/07/2020, 20:43:41,5.3910294,0.27517462,1.2155539,-1.7522945,4.006466,5.7770767,5.533216952429964,7.245475878215585,jump
10/07/2020, 20:43:42,6.4845495,-3.0604203,4.240082,1.3578756,0.19049335,-0.29795113,8.330297013182628,1.4031709438030036,jump
10/07/2020, 20:43:42,6.3457656,-2.9503503,3.9720855,1.3578756,0.19049335,-0.29795113,8.04678636235797,1.4031709438030036,jump
10/07/2020, 20:43:42,6.3457656,-2.9503503,3.9720855,1.4079412,0.27475002,-0.2942878,8.04678636235797,1.464374054184774,jump
10/07/2020, 20:43:42,6.2141604,-3.158526,3.7208393,1.4079412,0.27475002,-0.2942878,7.901691018660604,1.464374054184774,jump
10/07/2020, 20:43:42,6.2141604,-3.158526,3.7208393,1.5447056,0.25765446,-0.29184556,7.901691018660604,1.5930082021604188,jump
10/07/2020, 20:43:42,6.046663,-3.3954153,3.4624143,1.5447056,0.25765446,-0.29184556,7.751083069369539,1.5930082021604188,jump
10/07/2020, 20:43:42,6.046663,-3.3954153,3.4624143,1.7266512,0.13920668,-0.29673,7.751083069369539,1.7574844342958742,jump
10/07/2020, 20:43:42,5.9820566,-3.414558,3.2422748,1.7266512,0.13920668,-0.29673,7.6129201288500274,1.7574844342958742,jump
10/07/2020, 20:43:42,5.9820566,-3.414558,3.2422748,1.8646368,-0.03052778,-0.33336335,7.6129201288500274,1.894448043161933,jump
10/07/2020, 20:43:42,6.087341,-3.1657043,3.141776,1.8646368,-0.03052778,-0.33336335,7.5464003849658985,1.894448043161933,jump
10/07/2020, 20:43:42,6.087341,-3.1657043,3.141776,1.8683001,-0.17950334,-0.38465002,7.5464003849658985,1.9159129095924436,jump
10/07/2020, 20:43:42,6.3744793,-2.672783,3.0675986,1.8683001,-0.17950334,-0.38465002,7.562269219158446,1.9159129095924436,jump
10/07/2020, 20:43:42,6.3744793,-2.672783,3.0675986,1.68147,-0.25521225,-0.4249467,7.562269219158446,1.7530129688484333,jump
10/07/2020, 20:43:42,6.826723,-2.0937197,3.1322048,1.68147,-0.25521225,-0.4249467,7.797340396843475,1.7530129688484333,jump
10/07/2020, 20:43:42,6.826723,-2.0937197,3.1322048,1.3175789,-0.23079,-0.46280113,7.797340396843475,1.4154374233559237,jump
10/07/2020, 20:43:42,7.4943204,-1.5361922,3.2303107,1.3175789,-0.23079,-0.46280113,8.304193617478129,1.4154374233559237,jump
10/07/2020, 20:43:42,7.4943204,-1.5361922,3.2303107,0.83401895,-0.14164889,-0.48722336,8.304193617478129,0.9762369635412306,jump
10/07/2020, 20:43:42,8.281559,-1.1700903,3.3212378,0.83401895,-0.14164889,-0.48722336,8.999108356120816,0.9762369635412306,jump
10/07/2020, 20:43:42,8.281559,-1.1700903,3.3212378,0.32359445,-0.04151778,-0.5030978,8.999108356120816,0.59962026606149,jump
10/07/2020, 20:43:42,9.133404,-1.0408778,3.385844,0.32359445,-0.04151778,-0.5030978,9.796245747598007,0.59962026606149,jump
10/07/2020, 20:43:43,14.603396,-6.5659056,7.944171,-1.9037123,1.7974756,4.0137925,17.874007803331974,4.792240521577097,jump
10/07/2020, 20:43:43,15.299708,-7.4392858,8.343773,-1.9037123,1.7974756,4.0137925,18.948419318064087,4.792240521577097,jump
10/07/2020, 20:43:43,15.299708,-7.4392858,8.343773,-2.0075068,1.8255612,4.3288393,18.948419318064087,5.1089731860209815,jump
10/07/2020, 20:43:43,16.295122,-8.362915,8.602198,-2.0075068,1.8255612,4.3288393,20.23529486029506,5.1089731860209815,jump
10/07/2020, 20:43:43,16.295122,-8.362915,8.602198,-2.3628502,1.8487623,4.6829615,20.23529486029506,5.561574510358119,jump
10/07/2020, 20:43:43,17.541782,-9.152547,8.733803,-2.3628502,1.8487623,4.6829615,21.627819001122475,5.561574510358119,jump
10/07/2020, 20:43:43,17.541782,-9.152547,8.733803,-2.812219,1.9513357,5.048074,21.627819001122475,6.099125743218945,jump
10/07/2020, 20:43:43,19.113867,-9.851251,8.707481,-2.812219,1.9513357,5.048074,23.199294723670917,6.099125743218945,jump
10/07/2020, 20:43:43,19.113867,-9.851251,8.707481,-3.1968691,2.0929844,5.405859,23.199294723670917,6.619959786969767,jump
10/07/2020, 20:43:43,20.664417,-10.722239,8.599805,-3.1968691,2.0929844,5.405859,24.818162386538827,6.619959786969767,jump
10/07/2020, 20:43:43,20.664417,-10.722239,8.599805,-3.6279213,2.31889,5.733117,24.818162386538827,7.169916057025377,jump
10/07/2020, 20:43:43,21.975683,-11.631511,8.571091,-3.6279213,2.31889,5.733117,26.299929474660786,7.169916057025377,jump
10/07/2020, 20:43:43,21.975683,-11.631511,8.571091,-4.0711846,2.578987,6.0164146,26.299929474660786,7.708629114544422,jump
10/07/2020, 20:43:43,22.545176,-12.363714,8.772088,-4.0711846,2.578987,6.0164146,27.167920397532413,7.708629114544422,jump
10/07/2020, 20:43:43,22.545176,-12.363714,8.772088,-4.3715777,2.7609324,6.2752905,27.167920397532413,8.130972305139105,jump
10/07/2020, 20:43:43,22.32982,-12.854243,8.941978,-4.3715777,2.7609324,6.2752905,27.27290667391963,8.130972305139105,jump
10/07/2020, 20:43:43,22.32982,-12.854243,8.941978,-4.4949102,2.9343302,6.5976634,27.27290667391963,8.505508468631072,jump
10/07/2020, 20:43:43,21.188444,-13.134204,8.7266245,-4.4949102,2.9343302,6.5976634,26.41233523017833,8.505508468631072,jump
10/07/2020, 20:43:43,21.188444,-13.134204,8.7266245,-4.67075,2.9892802,6.9676604,26.41233523017833,8.905054461650364,jump
10/07/2020, 20:43:43,19.185652,-12.803994,7.6833534,-4.67075,2.9892802,6.9676604,24.311837054426448,8.905054461650364,jump
10/07/2020, 20:43:44,9.372686,-8.602198,8.236095,0.028085556,0.12455334,-0.08303556,15.15514177956892,0.15230638971756683,jump
10/07/2020, 20:43:44,9.372686,-8.602198,8.236095,0.5287411,0.117226675,-0.047623336,15.15514177956892,0.5436701655180315,jump
10/07/2020, 20:43:44,8.671589,-8.16431,8.015956,0.5287411,0.117226675,-0.047623336,14.356460866558768,0.5436701655180315,jump
10/07/2020, 20:43:44,8.671589,-8.16431,8.015956,0.9097278,0.16485001,-0.0024422223,14.356460866558768,0.9245464738549162,jump
10/07/2020, 20:43:44,8.145168,-7.109076,7.4775705,0.9097278,0.16485001,-0.0024422223,13.145219271552396,0.9245464738549162,jump
10/07/2020, 20:43:44,8.145168,-7.109076,7.4775705,1.1112112,0.21125223,-0.045181114,13.145219271552396,1.1320155143630803,jump
10/07/2020, 20:43:44,7.704889,-5.7930236,6.867401,1.1112112,0.21125223,-0.045181114,11.835777633704197,1.1320155143630803,jump
10/07/2020, 20:43:44,7.704889,-5.7930236,6.867401,1.1051056,0.2503278,-0.17095557,11.835777633704197,1.1459268231411466,jump
10/07/2020, 20:43:44,7.331609,-4.479364,6.1328044,1.1051056,0.2503278,-0.17095557,10.555968834482835,1.1459268231411466,jump
10/07/2020, 20:43:44,7.331609,-4.479364,6.1328044,0.9402556,0.30894113,-0.2820767,10.555968834482835,1.029122167916048,jump
10/07/2020, 20:43:44,6.9559355,-3.4289148,5.5298133,0.9402556,0.30894113,-0.2820767,9.524774538054146,1.029122167916048,jump
10/07/2020, 20:43:44,6.9559355,-3.4289148,5.5298133,0.7216767,0.38220778,-0.31260446,9.524774538054146,0.8744264430768215,jump
10/07/2020, 20:43:44,6.6257257,-2.696711,4.989035,0.7216767,0.38220778,-0.31260446,8.721408357971592,0.8744264430768215,jump
10/07/2020, 20:43:44,6.6257257,-2.696711,4.989035,0.5043189,0.42983112,-0.25399113,8.721408357971592,0.7096504969857813,jump
10/07/2020, 20:43:44,6.3696938,-2.2277179,4.558327,0.5043189,0.42983112,-0.25399113,8.143345278680998,0.7096504969857813,jump
10/07/2020, 20:43:44,6.3696938,-2.2277179,4.558327,0.33214223,0.4249467,-0.16240779,8.143345278680998,0.5632712014825456,jump
10/07/2020, 20:43:44,6.2691956,-1.9142581,4.2281175,0.33214223,0.4249467,-0.16240779,7.800267584692917,0.5632712014825456,jump
10/07/2020, 20:43:44,6.2691956,-1.9142581,4.2281175,0.21980001,0.38220778,-0.10745778,7.800267584692917,0.4538083370719096,jump
10/07/2020, 20:43:44,6.367301,-1.6510476,4.0510488,0.21980001,0.38220778,-0.10745778,7.725249252847114,0.4538083370719096,jump
10/07/2020, 20:43:44,6.367301,-1.6510476,4.0510488,0.17095557,0.3309211,-0.09036223,7.725249252847114,0.3832752563160402,jump
10/07/2020, 20:43:45,12.21536,-1.8448663,7.7647095,-1.4689968,1.1979101,1.9195868,14.591410386688155,2.6977311623401996,jump
10/07/2020, 20:43:45,12.21536,-1.8448663,7.7647095,-1.6985656,1.3969512,2.2004423,14.591410386688155,3.1110358619640484,jump
10/07/2020, 20:43:45,12.7393875,-2.4311078,8.348558,-1.6985656,1.3969512,2.2004423,15.42403017745624,3.1110358619640484,jump
10/07/2020, 20:43:45,12.7393875,-2.4311078,8.348558,-1.7950335,1.6130879,2.53869,15.42403017745624,3.5027339361136343,jump
10/07/2020, 20:43:45,13.57209,-3.4169507,8.79123,-1.7950335,1.6130879,2.53869,16.52764083511864,3.5027339361136343,jump
10/07/2020, 20:43:45,13.57209,-3.4169507,8.79123,-1.7693901,1.8328879,2.8854856,16.52764083511864,3.849187808999064,jump
10/07/2020, 20:43:45,14.514862,-4.5128636,9.068798,-1.7693901,1.8328879,2.8854856,17.700007265001318,3.849187808999064,jump
10/07/2020, 20:43:45,14.514862,-4.5128636,9.068798,-1.6546056,2.0062857,3.1797736,17.700007265001318,4.107780655193613,jump
10/07/2020, 20:43:45,15.371492,-5.424529,9.332008,-1.6546056,2.0062857,3.1797736,18.782829231134716,4.107780655193613,jump
10/07/2020, 20:43:45,15.371492,-5.424529,9.332008,-1.5495901,2.096648,3.4191113,18.782829231134716,4.2997074326930145,jump
10/07/2020, 20:43:45,16.113268,-6.0490556,9.542577,-1.5495901,2.096648,3.4191113,19.679665838791827,4.2997074326930145,jump
10/07/2020, 20:43:45,16.113268,-6.0490556,9.542577,-1.6289623,2.2212012,3.6975245,19.679665838791827,4.6107418679186924,jump
10/07/2020, 20:43:45,16.881363,-6.398408,9.836894,-1.6289623,2.2212012,3.6975245,20.559292844075397,4.6107418679186924,jump
10/07/2020, 20:43:45,16.881363,-6.398408,9.836894,-1.9891901,2.4556546,4.0272245,20.559292844075397,5.119145864296749,jump
10/07/2020, 20:43:45,17.644674,-6.613762,10.083355,-1.9891901,2.4556546,4.0272245,21.371720210004465,5.119145864296749,jump
10/07/2020, 20:43:45,17.644674,-6.613762,10.083355,-2.5069413,2.7230778,4.3715777,21.371720210004465,5.728053707181231,jump
10/07/2020, 20:43:45,18.568304,-7.1066833,10.34178,-2.5069413,2.7230778,4.3715777,22.41069544118492,5.728053707181231,jump
10/07/2020, 20:43:45,18.568304,-7.1066833,10.34178,-2.8806012,2.9318879,4.693951,22.41069544118492,6.239151124197237,jump
10/07/2020, 20:43:45,19.688145,-8.389236,10.660025,-2.8806012,2.9318879,4.693951,23.908961807180177,6.239151124197237,jump
10/07/2020, 20:43:45,19.688145,-8.389236,10.660025,-2.9795113,3.1443613,5.019988,23.908961807180177,6.630593879500034,jump
10/07/2020, 20:43:46,6.2213387,-2.5914268,5.1206403,1.67048,0.10013112,-0.35656446,8.464130540099237,1.7110429362595139,jump
10/07/2020, 20:43:46,6.2213387,-2.5914268,5.1206403,1.4824289,0.14653334,-0.3834289,8.464130540099237,1.538208441842554,jump
10/07/2020, 20:43:46,6.24766,-2.254039,4.7976093,1.4824289,0.14653334,-0.3834289,8.193351254926144,1.538208441842554,jump
10/07/2020, 20:43:46,6.24766,-2.254039,4.7976093,1.3017045,0.14531223,-0.39808223,8.193351254926144,1.368948420324935,jump
10/07/2020, 20:43:46,6.3744793,-2.1104696,4.5152564,1.3017045,0.14531223,-0.39808223,8.091699976889059,1.368948420324935,jump
10/07/2020, 20:43:46,6.3744793,-2.1104696,4.5152564,1.1429601,0.106236674,-0.43349445,8.091699976889059,1.2270132000467988,jump
10/07/2020, 20:43:46,6.664011,-2.0219352,4.2951164,1.1429601,0.106236674,-0.43349445,8.18201013089136,1.2270132000467988,jump
10/07/2020, 20:43:46,6.664011,-2.0219352,4.2951164,1.0086378,0.054950003,-0.4823389,8.18201013089136,1.1193839848557197,jump
10/07/2020, 20:43:46,7.0612197,-1.9645073,4.2161536,1.0086378,0.054950003,-0.4823389,8.455534518754346,1.1193839848557197,jump
10/07/2020, 20:43:46,7.0612197,-1.9645073,4.2161536,0.87065226,0.014653334,-0.52752,8.455534518754346,1.0180999099524666,jump
10/07/2020, 20:43:46,7.6259255,-1.9070797,4.211368,0.87065226,0.014653334,-0.52752,8.917808837582136,1.0180999099524666,jump
10/07/2020, 20:43:46,7.6259255,-1.9070797,4.211368,0.7009178,-0.0036633336,-0.5678167,8.917808837582136,0.9020614895731426,jump
10/07/2020, 20:43:46,8.319844,-1.8831514,4.2687955,0.7009178,-0.0036633336,-0.5678167,9.53879879515625,0.9020614895731426,jump
10/07/2020, 20:43:46,8.319844,-1.8831514,4.2687955,0.48722336,0.01099,-0.5922389,9.53879879515625,0.7669773777351524,jump
10/07/2020, 20:43:46,9.15494,-1.861616,4.302295,0.48722336,0.01099,-0.5922389,10.285342885286616,0.7669773777351524,jump
10/07/2020, 20:43:46,9.15494,-1.861616,4.302295,0.24788557,0.089141116,-0.61788225,10.285342885286616,0.6716932866085993,jump
10/07/2020, 20:43:46,9.990034,-1.9190438,4.3070807,0.24788557,0.089141116,-0.61788225,11.046920610019388,0.6716932866085993,jump
10/07/2020, 20:43:46,9.990034,-1.9190438,4.3070807,0.023201112,0.21369445,-0.6459678,11.046920610019388,0.6807921751328672,jump
10/07/2020, 20:43:46,10.717453,-2.0721843,4.261617,0.023201112,0.21369445,-0.6459678,11.718324443537824,0.6807921751328672,jump
10/07/2020, 20:43:46,10.717453,-2.0721843,4.261617,-0.14287001,0.35778558,-0.64841,11.718324443537824,0.7542267029858459,jump
10/07/2020, 20:43:47,6.795616,-3.5006995,3.129812,0.6984756,-0.6764956,-1.0281756,8.260206968104496,1.4151535338121226,jump
10/07/2020, 20:43:47,6.7381887,-3.2997024,3.1393833,0.6984756,-0.6764956,-1.0281756,8.133077591969016,1.4151535338121226,jump
10/07/2020, 20:43:47,6.7381887,-3.2997024,3.1393833,0.7485411,-0.6899278,-1.1014422,8.133077591969016,1.4998297084847712,jump
10/07/2020, 20:43:47,6.687939,-3.1776686,3.1202407,0.7485411,-0.6899278,-1.1014422,8.03504883650316,1.4998297084847712,jump
10/07/2020, 20:43:47,6.687939,-3.1776686,3.1202407,0.7900589,-0.70336,-1.1673822,8.03504883650316,1.5753379627455815,jump
10/07/2020, 20:43:47,6.664011,-3.1728828,3.103491,0.7900589,-0.70336,-1.1673822,8.006739952730289,1.5753379627455815,jump
10/07/2020, 20:43:47,6.664011,-3.1728828,3.103491,0.8303556,-0.7167922,-1.21989,8.006739952730289,1.6405526813295244,jump
10/07/2020, 20:43:47,6.745367,-3.2327034,3.1130621,0.8303556,-0.7167922,-1.21989,8.101944465879523,1.6405526813295244,jump
10/07/2020, 20:43:47,6.745367,-3.2327034,3.1130621,0.8950745,-0.72900337,-1.284609,8.101944465879523,1.7270855307404684,jump
10/07/2020, 20:43:47,6.853044,-3.1441689,3.1226335,0.8950745,-0.72900337,-1.284609,8.160934383255784,1.7270855307404684,jump
10/07/2020, 20:43:47,6.853044,-3.1441689,3.1226335,0.9964267,-0.7485411,-1.3884034,8.160934383255784,1.865702017910988,jump
10/07/2020, 20:43:47,6.9056864,-2.8259234,3.0819557,0.9964267,-0.7485411,-1.3884034,8.07296713870612,1.865702017910988,jump
10/07/2020, 20:43:47,6.9056864,-2.8259234,3.0819557,1.1014422,-0.7717422,-1.5276101,8.07296713870612,2.0352772604374665,jump
10/07/2020, 20:43:47,6.884151,-2.3114667,3.0293136,1.1014422,-0.7717422,-1.5276101,7.8683641050348205,2.0352772604374665,jump
10/07/2020, 20:43:47,6.884151,-2.3114667,3.0293136,1.1942468,-0.80104893,-1.6680379,7.8683641050348205,2.2023294820838726,jump
10/07/2020, 20:43:47,6.9009004,-1.9262222,2.9862428,1.1942468,-0.80104893,-1.6680379,7.762113352990765,2.2023294820838726,jump
10/07/2020, 20:43:47,6.9009004,-1.9262222,2.9862428,1.3053678,-0.82425004,-1.7608423,7.762113352990765,2.3417811564805,jump
10/07/2020, 20:43:47,7.1377897,-1.9238294,3.1633115,1.3053678,-0.82425004,-1.7608423,8.040876905231432,2.3417811564805,jump
10/07/2020, 20:43:47,7.1377897,-1.9238294,3.1633115,1.4775445,-0.82913446,-1.7999178,8.040876905231432,2.4719033140460094,jump
10/07/2020, 20:43:47,7.685746,-2.5339992,3.505485,1.4775445,-0.82913446,-1.7999178,8.81931244496643,2.4719033140460094,jump
10/07/2020, 20:43:48,28.587051,-7.7479596,14.8785715,2.119849,-2.4727502,-4.4717093,33.145471419647976,5.532127688077427,jump
10/07/2020, 20:43:48,27.641888,-5.761917,12.193824,2.119849,-2.4727502,-4.4717093,30.756511208541752,5.532127688077427,jump
10/07/2020, 20:43:48,27.641888,-5.761917,12.193824,1.0391656,-1.3993934,-3.942968,30.756511208541752,4.311051260471075,jump
10/07/2020, 20:43:48,25.715666,-4.735396,10.939985,1.0391656,-1.3993934,-3.942968,28.344359591583604,4.311051260471075,jump
10/07/2020, 20:43:48,25.715666,-4.735396,10.939985,0.11112112,0.26986557,-3.3446236,28.344359591583604,3.357332590932374,jump
10/07/2020, 20:43:48,21.992434,-4.347759,10.064212,0.11112112,0.26986557,-3.3446236,24.57353250456883,3.357332590932374,jump
10/07/2020, 20:43:48,21.992434,-4.347759,10.064212,-0.5470578,1.6045401,-2.5667756,24.57353250456883,3.0760620906398737,jump
10/07/2020, 20:43:48,16.969898,-4.5008993,8.750552,-0.5470578,1.6045401,-2.5667756,19.616516096935857,3.0760620906398737,jump
10/07/2020, 20:43:48,16.969898,-4.5008993,8.750552,-0.70336,2.0233812,-1.4628912,19.616516096935857,2.594000319746461,jump
10/07/2020, 20:43:48,11.404193,-4.208975,7.245467,-0.70336,2.0233812,-1.4628912,14.151603449479202,2.594000319746461,jump
10/07/2020, 20:43:48,11.404193,-4.208975,7.245467,-0.21613668,1.3932878,-0.07326667,14.151603449479202,1.411854773348995,jump
10/07/2020, 20:43:48,6.5228343,-3.2566316,5.8337016,-0.21613668,1.3932878,-0.07326667,9.337295714535834,1.411854773348995,jump
10/07/2020, 20:43:48,6.5228343,-3.2566316,5.8337016,0.76441556,0.24788557,1.0049745,9.337295714535834,1.2867603202709683,jump
10/07/2020, 20:43:48,4.2448673,-1.2203395,4.6205406,0.76441556,0.24788557,1.0049745,6.391988955014424,1.2867603202709683,jump
10/07/2020, 20:43:48,4.2448673,-1.2203395,4.6205406,1.62652,-0.64841,1.2577446,6.391988955014424,2.1559045305101123,jump
10/07/2020, 20:43:48,4.6372905,1.3854443,3.507878,1.62652,-0.64841,1.2577446,5.977384658642338,2.1559045305101123,jump
10/07/2020, 20:43:48,4.6372905,1.3854443,3.507878,1.7669479,-0.96589893,0.91217005,5.977384658642338,2.2106830865218403,jump
10/07/2020, 20:43:48,6.4773707,3.1728828,2.455036,1.7669479,-0.96589893,0.91217005,7.619102198800516,2.2106830865218403,jump
10/07/2020, 20:43:48,6.4773707,3.1728828,2.455036,1.0892311,-0.80227005,0.66428447,7.619102198800516,1.5070950723099064,jump
10/07/2020, 20:43:48,8.427522,3.6107693,1.6151553,1.0892311,-0.80227005,0.66428447,9.309645729201561,1.5070950723099064,jump
10/07/2020, 20:43:49,9.906285,-2.2372892,3.4839497,-0.56659555,0.08059334,-0.18805112,10.736752597027683,0.6024027159672329,jump
10/07/2020, 20:43:49,9.906285,-2.2372892,3.4839497,-0.74732006,0.13920668,-0.10867889,10.736752597027683,0.7679042041645424,jump
10/07/2020, 20:43:49,9.769895,-2.5794628,3.3954153,-0.74732006,0.13920668,-0.10867889,10.659892764882702,0.7679042041645424,jump
10/07/2020, 20:43:49,9.769895,-2.5794628,3.3954153,-0.86576784,0.16362889,-0.064718895,10.659892764882702,0.883468673000055,jump
10/07/2020, 20:43:49,9.518648,-2.7565317,3.3140593,-0.86576784,0.16362889,-0.064718895,10.4492161628384,0.883468673000055,jump
10/07/2020, 20:43:49,9.518648,-2.7565317,3.3140593,-0.93415004,0.15386,-0.045181114,10.4492161628384,0.9478135528902998,jump
10/07/2020, 20:43:49,9.260223,-2.8713872,3.2159536,-0.93415004,0.15386,-0.045181114,10.214644359556456,0.9478135528902998,jump
10/07/2020, 20:43:49,9.260223,-2.8713872,3.2159536,-0.97688895,0.123332225,-0.018316668,10.214644359556456,0.9848138746364994,jump
10/07/2020, 20:43:49,9.006584,-2.8833513,3.1920254,-0.97688895,0.123332225,-0.018316668,9.981047016039355,0.9848138746364994,jump
10/07/2020, 20:43:49,9.006584,-2.8833513,3.1920254,-0.9976478,0.09402556,0.02198,9.981047016039355,1.0023098836480446,jump
10/07/2020, 20:43:49,8.841479,-2.9048867,3.1465619,-0.9976478,0.09402556,0.02198,9.823999931508974,1.0023098836480446,jump
10/07/2020, 20:43:49,8.841479,-2.9048867,3.1465619,-0.99886894,0.064718895,0.06349778,9.823999931508974,1.0029754071894224,jump
10/07/2020, 20:43:49,8.7577305,-2.9096723,3.1465619,-0.99886894,0.064718895,0.06349778,9.750122431956726,1.0029754071894224,jump
10/07/2020, 20:43:49,8.7577305,-2.9096723,3.1465619,-0.9842156,0.03174889,0.07570889,9.750122431956726,0.9876336410664595,jump
10/07/2020, 20:43:49,8.748159,-2.8953154,3.129812,-0.9842156,0.03174889,0.07570889,9.731848104169988,0.9876336410664595,jump
10/07/2020, 20:43:49,8.748159,-2.8953154,3.129812,-0.96589893,0.0,0.064718895,9.731848104169988,0.9680647087277425,jump
10/07/2020, 20:43:49,8.740981,-2.8833513,3.0795627,-0.96589893,0.0,0.064718895,9.705780323916406,0.9680647087277425,jump
10/07/2020, 20:43:49,8.740981,-2.8833513,3.0795627,-0.97078335,-0.0061055557,0.036633335,9.705780323916406,0.9714934879975959,jump
10/07/2020, 20:43:49,8.7266245,-2.8977082,3.0317063,-0.97078335,-0.0061055557,0.036633335,9.682041672184548,0.9714934879975959,jump
10/07/2020, 20:43:49,8.7266245,-2.8977082,3.0317063,-1.0025322,0.012211111,0.0,9.682041672184548,1.0026066082749354,jump
10/07/2020, 20:43:50,-1.1629118,0.9068798,-0.81834537,1.9098178,-0.8975167,-4.217718,1.6865597743792824,4.716151666208739,jump
10/07/2020, 20:43:50,-1.1629118,0.9068798,-0.81834537,1.6655957,-1.0990001,-4.402106,1.6865597743792824,4.8332748349699335,jump
10/07/2020, 20:43:50,-0.30149564,0.124426775,-0.7513463,1.6655957,-1.0990001,-4.402106,0.8190866204176316,4.8332748349699335,jump
10/07/2020, 20:43:50,-0.30149564,0.124426775,-0.7513463,1.5618012,-1.2015734,-4.6292324,0.8190866204176316,5.031182188675876,jump
10/07/2020, 20:43:50,0.6149554,-0.82313097,-0.38763726,1.5618012,-1.2015734,-4.6292324,1.0981700252902178,5.031182188675876,jump
10/07/2020, 20:43:50,0.6149554,-0.82313097,-0.38763726,1.6961234,-1.2504178,-4.900319,1.0981700252902178,5.334182831503364,jump
10/07/2020, 20:43:50,1.3399807,-1.7371893,0.02632105,1.6961234,-1.2504178,-4.900319,2.1940983959193514,5.334182831503364,jump
10/07/2020, 20:43:50,1.3399807,-1.7371893,0.02632105,1.9794211,-1.3017045,-5.1933856,2.1940983959193514,5.708221852607337,jump
10/07/2020, 20:43:50,1.8065811,-2.3306093,0.4139583,1.9794211,-1.3017045,-5.1933856,2.9777234100979144,5.708221852607337,jump
10/07/2020, 20:43:50,1.8065811,-2.3306093,0.4139583,2.284699,-1.4189311,-5.459588,2.9777234100979144,6.086075630421236,jump
10/07/2020, 20:43:50,1.9573289,-2.4430718,0.567099,2.284699,-1.4189311,-5.459588,3.1814049974185132,6.086075630421236,jump
10/07/2020, 20:43:50,1.9573289,-2.4430718,0.567099,2.4446645,-1.6423945,-5.665956,3.1814049974185132,6.385679436829142,jump
10/07/2020, 20:43:50,2.050649,-2.1511476,0.57427746,2.4446645,-1.6423945,-5.665956,3.0269442744294266,6.385679436829142,jump
10/07/2020, 20:43:50,2.050649,-2.1511476,0.57427746,2.3543024,-1.954999,-5.790509,3.0269442744294266,6.549408970716214,jump
10/07/2020, 20:43:50,2.4598217,-1.8089739,0.45224348,2.3543024,-1.954999,-5.790509,3.0866865025299757,6.549408970716214,jump
10/07/2020, 20:43:50,2.4598217,-1.8089739,0.45224348,2.0343711,-2.2859201,-5.8625546,3.0866865025299757,6.613141664901984,jump
10/07/2020, 20:43:50,3.4983068,-2.1415763,0.30867413,2.0343711,-2.2859201,-5.8625546,4.1133658783160065,6.613141664901984,jump
10/07/2020, 20:43:50,3.4983068,-2.1415763,0.30867413,1.5434844,-2.592419,-5.6867146,4.1133658783160065,6.437523090991419,jump
10/07/2020, 20:43:50,5.2737813,-5.2139606,0.4235296,1.5434844,-2.592419,-5.6867146,7.428158058928017,6.437523090991419,jump
10/07/2020, 20:43:50,5.2737813,-5.2139606,0.4235296,1.2638501,-2.6998768,-5.128667,7.428158058928017,5.932105499388254,jump
10/07/2020, 20:43:51,8.12124,-2.766103,3.6394832,1.2760612,-0.7070234,-1.0867889,9.319425823495884,1.819154828058668,jump
10/07/2020, 20:43:51,8.408379,-2.7852457,3.8141594,1.2760612,-0.7070234,-1.0867889,9.64397407432415,1.819154828058668,jump
10/07/2020, 20:43:51,8.408379,-2.7852457,3.8141594,1.3920667,-0.7216767,-1.1673822,9.64397407432415,1.9548525033261965,jump
10/07/2020, 20:43:51,8.666803,-2.8402805,3.897908,1.3920667,-0.7216767,-1.1673822,9.91838497673209,1.9548525033261965,jump
10/07/2020, 20:43:51,8.666803,-2.8402805,3.897908,1.4702178,-0.7131289,-1.2345434,9.91838497673209,2.0479723691265983,jump
10/07/2020, 20:43:51,8.863015,-2.885744,3.9744785,1.4702178,-0.7131289,-1.2345434,10.13296778758692,2.0479723691265983,jump
10/07/2020, 20:43:51,8.863015,-2.885744,3.9744785,1.526389,-0.6984756,-1.2833878,10.13296778758692,2.113011061260815,jump
10/07/2020, 20:43:51,8.989835,-2.9096723,3.9984066,1.526389,-0.6984756,-1.2833878,10.260145118857551,2.113011061260815,jump
10/07/2020, 20:43:51,8.989835,-2.9096723,3.9984066,1.5520322,-0.6984756,-1.3188001,10.260145118857551,2.1531153928284423,jump
10/07/2020, 20:43:51,9.116654,-2.9192436,3.9601214,1.5520322,-0.6984756,-1.3188001,10.359436851066263,2.1531153928284423,jump
10/07/2020, 20:43:51,9.116654,-2.9192436,3.9601214,1.5691278,-0.7021389,-1.3420012,10.359436851066263,2.180854947657195,jump
10/07/2020, 20:43:51,9.221938,-2.8905299,3.9481573,1.5691278,-0.7021389,-1.3420012,10.439695973385044,2.180854947657195,jump
10/07/2020, 20:43:51,9.221938,-2.8905299,3.9481573,1.5825601,-0.6972545,-1.35177,10.439695973385044,2.1949811866348874,jump
10/07/2020, 20:43:51,9.408579,-2.8761728,4.017549,1.5825601,-0.6972545,-1.35177,10.627061049121876,2.1949811866348874,jump
10/07/2020, 20:43:51,9.408579,-2.8761728,4.017549,1.5862234,-0.6899278,-1.3529912,10.627061049121876,2.1960624313437633,jump
10/07/2020, 20:43:51,9.623933,-2.7900312,4.091727,1.5862234,-0.6899278,-1.3529912,10.823427617339542,2.1960624313437633,jump
10/07/2020, 20:43:51,9.623933,-2.7900312,4.091727,1.5752333,-0.69237006,-1.34078,10.823427617339542,2.1813820008522704,jump
10/07/2020, 20:43:51,9.920643,-2.6823542,4.106084,1.5752333,-0.69237006,-1.34078,11.066801863095382,2.1813820008522704,jump
10/07/2020, 20:43:51,9.920643,-2.6823542,4.106084,1.5141778,-0.69237006,-1.3200212,11.066801863095382,2.124750937564253,jump
10/07/2020, 20:43:51,10.205389,-2.5292134,4.098905,1.5141778,-0.69237006,-1.3200212,11.284853059850168,2.124750937564253,jump
10/07/2020, 20:43:52,15.598811,-7.2119675,7.1856465,-1.9843056,5.115235,5.1457624,18.627101227919518,7.522098610703879,jump
10/07/2020, 20:43:52,15.598811,-7.2119675,7.1856465,-2.16503,5.1469836,5.085928,18.627101227919518,7.552844403282442,jump
10/07/2020, 20:43:52,12.866207,-6.0825553,5.608776,-2.16503,5.1469836,5.085928,15.296899486105147,7.552844403282442,jump
10/07/2020, 20:43:52,12.866207,-6.0825553,5.608776,-2.404368,5.051737,5.039526,15.296899486105147,7.529797626086583,jump
10/07/2020, 20:43:52,10.552348,-4.974678,4.1898327,-2.404368,5.051737,5.039526,12.3957319569191,7.529797626086583,jump
10/07/2020, 20:43:52,10.552348,-4.974678,4.1898327,-2.688887,4.85758,5.0175457,12.3957319569191,7.483445915054852,jump
10/07/2020, 20:43:52,8.796016,-3.9577286,3.0388846,-2.688887,4.85758,5.0175457,10.112780458711187,7.483445915054852,jump
10/07/2020, 20:43:52,8.796016,-3.9577286,3.0388846,-2.9392145,4.624348,5.0126615,10.112780458711187,7.426328333050004,jump
10/07/2020, 20:43:52,7.487142,-2.981457,2.2277179,-2.9392145,4.624348,5.0126615,8.36116674672075,7.426328333050004,jump
10/07/2020, 20:43:52,7.487142,-2.981457,2.2277179,-2.9392145,4.5339856,5.048074,8.36116674672075,7.394528789402442,jump
10/07/2020, 20:43:52,6.13759,-2.009971,1.6510476,-2.9392145,4.5339856,5.048074,6.666029653057824,7.394528789402442,jump
10/07/2020, 20:43:52,6.13759,-2.009971,1.6510476,-2.6534746,4.4997945,5.1701846,6.666029653057824,7.349822215940238,jump
10/07/2020, 20:43:52,4.618148,-1.0671989,0.8542377,-2.6534746,4.4997945,5.1701846,4.816214800539228,7.349822215940238,jump
10/07/2020, 20:43:52,4.618148,-1.0671989,0.8542377,-2.3994834,4.3373866,5.195828,4.816214800539228,7.181021624964773,jump
10/07/2020, 20:43:52,3.1250265,-0.059820566,-0.11246266,-2.3994834,4.3373866,5.195828,3.1276215810301333,7.181021624964773,jump
10/07/2020, 20:43:52,3.1250265,-0.059820566,-0.11246266,-2.3005733,4.0577526,5.0810437,3.1276215810301333,6.897463248112915,jump
10/07/2020, 20:43:52,1.9669002,0.94755775,-0.9403793,-2.3005733,4.0577526,5.0810437,2.377157013253888,6.897463248112915,jump
10/07/2020, 20:43:52,1.9669002,0.94755775,-0.9403793,-2.372619,3.76957,4.9308467,2.377157013253888,6.644714322817881,jump
10/07/2020, 20:43:52,1.2418749,1.8424734,-1.5960127,-2.372619,3.76957,4.9308467,2.7357299043611474,6.644714322817881,jump
10/07/2020, 20:43:52,1.2418749,1.8424734,-1.5960127,-2.5838711,3.4850512,4.800188,2.7357299043611474,6.470222330458753,jump
10/07/2020, 20:43:53,10.925629,-4.5894337,2.2995026,1.9855268,0.22224224,1.6851335,12.071452908940659,2.6136914611675177,jump
10/07/2020, 20:43:53,10.616954,-4.395615,2.4263222,1.9855268,0.22224224,1.6851335,11.744282893702959,2.6136914611675177,jump
10/07/2020, 20:43:53,10.616954,-4.395615,2.4263222,2.218759,0.2625389,1.7718323,11.744282893702959,2.8515273645384127,jump
10/07/2020, 20:43:53,10.313066,-4.0869412,2.5268207,2.218759,0.2625389,1.7718323,11.377487946206411,2.8515273645384127,jump
10/07/2020, 20:43:53,10.313066,-4.0869412,2.5268207,2.3872724,0.25277,1.8353301,11.377487946206411,3.021820422933121,jump
10/07/2020, 20:43:53,10.212567,-3.682554,2.629712,2.3872724,0.25277,1.8353301,11.170188951988976,3.021820422933121,jump
10/07/2020, 20:43:53,10.212567,-3.682554,2.629712,2.4556546,0.1856089,1.8695211,11.170188951988976,3.091892555779694,jump
10/07/2020, 20:43:53,10.518848,-3.1872396,2.6871397,2.4556546,0.1856089,1.8695211,11.31483047447984,3.091892555779694,jump
10/07/2020, 20:43:53,10.518848,-3.1872396,2.6871397,2.3982623,0.11112112,1.889059,11.31483047447984,3.0549228286872325,jump
10/07/2020, 20:43:53,11.205588,-2.5722845,2.7230322,2.3982623,0.11112112,1.889059,11.815107361547838,3.0549228286872325,jump
10/07/2020, 20:43:53,11.205588,-2.5722845,2.7230322,2.1699145,0.15386,1.8829534,11.815107361547838,2.8771018917060514,jump
10/07/2020, 20:43:53,12.076576,-1.9286151,2.7876384,2.1699145,0.15386,1.8829534,12.54329213883967,2.8771018917060514,jump
10/07/2020, 20:43:53,12.076576,-1.9286151,2.7876384,1.7657267,0.36755446,1.8731846,12.54329213883967,2.600328327037799,jump
10/07/2020, 20:43:53,12.74178,-1.2418749,2.8139594,1.7657267,0.36755446,1.8731846,13.107768130434104,2.600328327037799,jump
10/07/2020, 20:43:53,12.74178,-1.2418749,2.8139594,1.2113422,0.6935911,1.8756268,13.107768130434104,2.3380321862552136,jump
10/07/2020, 20:43:53,12.882957,-0.6580262,2.778067,1.2113422,0.6935911,1.8756268,13.195501061352104,2.3380321862552136,jump
10/07/2020, 20:43:53,12.882957,-0.6580262,2.778067,0.56659555,0.98910004,1.8731846,13.195501061352104,2.192753933224829,jump
10/07/2020, 20:43:53,12.425928,-0.27038896,2.6799614,0.56659555,0.98910004,1.8731846,12.714518986810642,2.192753933224829,jump
10/07/2020, 20:43:53,12.425928,-0.27038896,2.6799614,-0.091583334,1.1588345,1.8744056,12.714518986810642,2.2056022407258538,jump
10/07/2020, 20:43:53,11.586047,-0.11724831,2.6536403,-0.091583334,1.1588345,1.8744056,11.886632951969846,2.2056022407258538,jump
10/07/2020, 20:43:54,5.5202417,-0.93559366,2.091327,0.97688895,-0.8547778,-0.38465002,5.976792849376743,1.353851091695669,jump
10/07/2020, 20:43:54,5.3096733,-0.58624154,2.349752,0.97688895,-0.8547778,-0.38465002,5.835892735661003,1.353851091695669,jump
10/07/2020, 20:43:54,5.3096733,-0.58624154,2.349752,1.0855678,-0.91461223,-0.44204223,5.835892735661003,1.4867327904711796,jump
10/07/2020, 20:43:54,5.352744,-0.22013968,2.6392834,1.0855678,-0.91461223,-0.44204223,5.972114187649349,1.4867327904711796,jump
10/07/2020, 20:43:54,5.352744,-0.22013968,2.6392834,1.1661612,-0.9634567,-0.5153089,5.972114187649349,1.5980375371915314,jump
10/07/2020, 20:43:54,5.7690954,0.047856454,2.78046,1.1661612,-0.9634567,-0.5153089,6.404350815172199,1.5980375371915314,jump
10/07/2020, 20:43:54,5.7690954,0.047856454,2.78046,1.1405178,-0.9463611,-0.59468114,6.404350815172199,1.5968800716467806,jump
10/07/2020, 20:43:54,6.4773707,0.2105684,2.6943183,1.1405178,-0.9463611,-0.59468114,7.0185484120852415,1.5968800716467806,jump
10/07/2020, 20:43:54,6.4773707,0.2105684,2.6943183,0.9866578,-0.83401895,-0.6569578,7.0185484120852415,1.4493704738471005,jump
10/07/2020, 20:43:54,7.2646093,0.33499518,2.428715,0.9866578,-0.83401895,-0.6569578,7.667165518860564,1.4493704738471005,jump
10/07/2020, 20:43:54,7.2646093,0.33499518,2.428715,0.72900337,-0.6581789,-0.69114894,7.667165518860564,1.2009713834856142,jump
10/07/2020, 20:43:54,7.972885,0.44745782,2.050649,0.72900337,-0.6581789,-0.69114894,8.244530117048429,1.2009713834856142,jump
10/07/2020, 20:43:54,7.972885,0.44745782,2.050649,0.4249467,-0.47745445,-0.7351089,8.244530117048429,0.9741291300057624,jump
10/07/2020, 20:43:54,8.420342,0.526421,1.6606189,0.4249467,-0.47745445,-0.7351089,8.598659262515687,0.9741291300057624,jump
10/07/2020, 20:43:54,8.420342,0.526421,1.6606189,0.14042778,-0.37366003,-0.78273225,8.598659262515687,0.8786418788815306,jump
10/07/2020, 20:43:54,8.690732,0.59342,1.2634103,0.14042778,-0.37366003,-0.78273225,8.802112003775886,0.8786418788815306,jump
10/07/2020, 20:43:54,8.690732,0.59342,1.2634103,-0.07204556,-0.34435335,-0.83890337,8.802112003775886,0.9096860176116155,jump
10/07/2020, 20:43:54,8.848659,0.7968099,0.971486,-0.07204556,-0.34435335,-0.83890337,8.937418495945517,0.9096860176116155,jump
10/07/2020, 20:43:54,8.848659,0.7968099,0.971486,-0.17584,-0.3809867,-0.89263225,8.937418495945517,0.9863381227757898,jump
10/07/2020, 20:43:54,9.164511,1.0504491,1.0289137,-0.17584,-0.3809867,-0.89263225,9.28172202350827,0.9863381227757898,jump
10/07/2020, 20:43:55,10.662417,1.0073783,2.4430718,-1.6851335,0.10135223,1.5092934,10.985015075506144,2.2644897266209996,jump
10/07/2020, 20:43:55,10.336994,0.40917268,1.7946169,-1.6851335,0.10135223,1.5092934,10.499596217587834,2.2644897266209996,jump
10/07/2020, 20:43:55,10.336994,0.40917268,1.7946169,-1.8609734,0.12699556,1.5141778,10.499596217587834,2.402516206100592,jump
10/07/2020, 20:43:55,9.973285,0.06460621,1.4356936,-1.8609734,0.12699556,1.5141778,10.07629883793877,2.402516206100592,jump
10/07/2020, 20:43:55,9.973285,0.06460621,1.4356936,-1.8841745,0.11112112,1.4555645,10.07629883793877,2.383511974413144,jump
10/07/2020, 20:43:55,9.700503,-0.25603202,1.3351951,-1.8841745,0.11112112,1.4555645,9.79530823840867,2.383511974413144,jump
10/07/2020, 20:43:55,9.700503,-0.25603202,1.3351951,-1.7754956,0.09280445,1.3847401,9.79530823840867,2.2535533378839125,jump
10/07/2020, 20:43:55,9.602397,-0.66759753,1.5840486,-1.7754956,0.09280445,1.3847401,9.755046078695816,2.2535533378839125,jump
10/07/2020, 20:43:55,9.602397,-0.66759753,1.5840486,-1.5837811,0.11966889,1.3273479,9.755046078695816,2.0699119958279795,jump
10/07/2020, 20:43:55,9.645468,-1.2394822,2.254039,-1.5837811,0.11966889,1.3273479,9.982587657765645,2.0699119958279795,jump
10/07/2020, 20:43:55,9.645468,-1.2394822,2.254039,-1.3322322,0.22224224,1.2638501,9.982587657765645,1.8497436043276,jump
10/07/2020, 20:43:55,9.760324,-2.1415763,3.3044882,-1.3322322,0.22224224,1.2638501,10.524728331614922,1.8497436043276,jump
10/07/2020, 20:43:55,9.760324,-2.1415763,3.3044882,-1.1820356,0.40785113,1.18692,10.524728331614922,1.724044610611939,jump
10/07/2020, 20:43:55,9.851251,-3.0987053,4.4602213,-1.1820356,0.40785113,1.18692,11.249119422677849,1.724044610611939,jump
10/07/2020, 20:43:55,9.851251,-3.0987053,4.4602213,-1.0257334,0.60933447,1.0782411,11.249119422677849,1.6081110952573299,jump
10/07/2020, 20:43:55,9.757931,-4.048656,5.623133,-1.0257334,0.60933447,1.0782411,11.96780910271967,1.6081110952573299,jump
10/07/2020, 20:43:55,9.757931,-4.048656,5.623133,-0.87065226,0.7448778,0.93415004,11.96780910271967,1.4783486098375107,jump
10/07/2020, 20:43:55,9.296116,-4.723432,6.398408,-0.87065226,0.7448778,0.93415004,12.23389573874246,1.4783486098375107,jump
10/07/2020, 20:43:55,9.296116,-4.723432,6.398408,-0.70336,0.70946556,0.7754056,12.23389573874246,1.2646384966635946,jump
10/07/2020, 20:43:55,8.554341,-5.087141,6.7381887,-0.70336,0.70946556,0.7754056,12.019107572066373,1.2646384966635946,jump
10/07/2020, 20:43:56,9.963714,-2.1367905,4.3118663,-0.06716111,-0.3712178,-1.0440501,11.064974205344818,1.1101143484807507,jump
10/07/2020, 20:43:56,9.891929,-2.1463618,4.261617,-0.06716111,-0.3712178,-1.0440501,10.982645536659657,1.1101143484807507,jump
10/07/2020, 20:43:56,9.891929,-2.1463618,4.261617,-0.15141778,-0.3162678,-0.9683412,10.982645536659657,1.0298724591179618,jump
10/07/2020, 20:43:56,9.803394,-2.1822543,4.2329035,-0.15141778,-0.3162678,-0.9683412,10.898910308612402,1.0298724591179618,jump
10/07/2020, 20:43:56,9.803394,-2.1822543,4.2329035,-0.23445335,-0.2735289,-0.89019006,10.898910308612402,0.960325354398465,jump
10/07/2020, 20:43:56,9.674182,-2.2492533,4.17069,-0.23445335,-0.2735289,-0.89019006,10.772353133496466,0.960325354398465,jump
10/07/2020, 20:43:56,9.674182,-2.2492533,4.17069,-0.3052778,-0.23811668,-0.8230289,10.772353133496466,0.9095442224004373,jump
10/07/2020, 20:43:56,9.583255,-2.333002,4.1180477,-0.3052778,-0.23811668,-0.8230289,10.688310837716873,0.9095442224004373,jump
10/07/2020, 20:43:56,9.583255,-2.333002,4.1180477,-0.36755446,-0.21735778,-0.7570889,10.688310837716873,0.8692090004857832,jump
10/07/2020, 20:43:56,9.504292,-2.3952155,4.074977,-0.36755446,-0.21735778,-0.7570889,10.614803428436405,0.8692090004857832,jump
10/07/2020, 20:43:56,9.504292,-2.3952155,4.074977,-0.40907225,-0.18805112,-0.69481224,10.614803428436405,0.8279295717179549,jump
10/07/2020, 20:43:56,9.466006,-2.498107,4.046263,-0.40907225,-0.18805112,-0.69481224,10.593302566653838,0.8279295717179549,jump
10/07/2020, 20:43:56,9.466006,-2.498107,4.046263,-0.42128336,-0.16240779,-0.63742,10.593302566653838,0.7811275289907335,jump
10/07/2020, 20:43:56,9.406186,-2.617748,4.0366917,-0.42128336,-0.16240779,-0.63742,10.565217524042557,0.7811275289907335,jump
10/07/2020, 20:43:56,9.406186,-2.617748,4.0366917,-0.41395667,-0.14042778,-0.5775856,10.565217524042557,0.7243515640921457,jump
10/07/2020, 20:43:56,9.284152,-2.7038896,4.017549,-0.41395667,-0.14042778,-0.5775856,10.471255809129039,0.7243515640921457,jump
10/07/2020, 20:43:56,9.284152,-2.7038896,4.017549,-0.39197668,-0.123332225,-0.51775116,10.471255809129039,0.6610013763973988,jump
10/07/2020, 20:43:56,9.190832,-2.78046,4.046263,-0.39197668,-0.123332225,-0.51775116,10.419913558550496,0.6610013763973988,jump
10/07/2020, 20:43:56,9.190832,-2.78046,4.046263,-0.35534334,-0.10745778,-0.46035892,10.419913558550496,0.5913936066964854,jump
10/07/2020, 20:43:56,9.08794,-2.8546374,4.0510488,-0.35534334,-0.10745778,-0.46035892,10.351357784748746,0.5913936066964854,jump
10/07/2020, 20:43:57,-0.63888365,-0.7585248,-1.402194,1.1527289,-0.9317078,-4.844148,1.717463313199838,5.0658301157959,jump
10/07/2020, 20:43:57,0.18664017,-2.2157538,-1.2083755,1.1527289,-0.9317078,-4.844148,2.530725324156313,5.0658301157959,jump
10/07/2020, 20:43:57,0.18664017,-2.2157538,-1.2083755,1.3761923,-1.00009,-5.0175457,2.530725324156313,5.298098734378112,jump
10/07/2020, 20:43:57,0.9595219,-3.333202,-0.77766734,1.3761923,-1.00009,-5.0175457,3.5546706685390683,5.298098734378112,jump
10/07/2020, 20:43:57,0.9595219,-3.333202,-0.77766734,1.85731,-1.1038845,-5.310612,3.5546706685390683,5.733303018437503,jump
10/07/2020, 20:43:57,1.5337993,-3.8811584,-0.30867413,1.85731,-1.1038845,-5.310612,4.1846397853488035,5.733303018437503,jump
10/07/2020, 20:43:57,1.5337993,-3.8811584,-0.30867413,2.4104733,-1.2870512,-5.658629,4.1846397853488035,6.283865373800428,jump
10/07/2020, 20:43:57,1.8879371,-3.8141594,-0.038285162,2.4104733,-1.2870512,-5.658629,4.256005639975842,6.283865373800428,jump
10/07/2020, 20:43:57,1.8879371,-3.8141594,-0.038285162,2.757269,-1.5923289,-5.961465,4.256005639975842,6.7584840534819675,jump
10/07/2020, 20:43:57,2.143969,-3.2015967,0.1268196,2.757269,-1.5923289,-5.961465,3.855244246677548,6.7584840534819675,jump
10/07/2020, 20:43:57,2.143969,-3.2015967,0.1268196,2.789018,-1.9537779,-6.1898127,3.855244246677548,7.064676200761877,jump
10/07/2020, 20:43:57,2.6608188,-2.2731814,0.2321038,2.789018,-1.9537779,-6.1898127,3.5073042056758235,7.064676200761877,jump
10/07/2020, 20:43:57,2.6608188,-2.2731814,0.2321038,2.5557857,-2.3213322,-6.3436723,3.5073042056758235,7.222381983601017,jump
10/07/2020, 20:43:57,3.65384,-1.4620147,0.31585258,2.5557857,-2.3213322,-6.3436723,3.9481384201654035,7.222381983601017,jump
10/07/2020, 20:43:57,3.65384,-1.4620147,0.31585258,2.2102113,-2.6705701,-6.463341,3.9481384201654035,7.334286514041314,jump
10/07/2020, 20:43:57,5.2498527,-1.4907285,0.5766702,2.2102113,-2.6705701,-6.463341,5.487783972637838,7.334286514041314,jump
10/07/2020, 20:43:57,5.2498527,-1.4907285,0.5766702,1.9635468,-2.8842645,-6.520734,5.487783972637838,7.395570776068314,jump
10/07/2020, 20:43:57,7.5469627,-2.7397819,1.3567305,1.9635468,-2.8842645,-6.520734,8.142712615269048,7.395570776068314,jump
10/07/2020, 20:43:57,7.5469627,-2.7397819,1.3567305,2.1577034,-2.9343302,-6.5427136,8.142712615269048,7.488196019935594,jump
10/07/2020, 20:43:57,10.250853,-4.651647,2.306681,2.1577034,-2.9343302,-6.5427136,11.490803985394223,7.488196019935594,jump
10/07/2020, 20:43:58,6.7381887,-1.6151553,2.9359934,0.58979666,-0.80227005,-1.4921979,7.525421699330255,1.7939207983049301,jump
10/07/2020, 20:43:58,6.9726853,-1.6582261,2.9910283,0.58979666,-0.80227005,-1.4921979,7.766228496532094,1.7939207983049301,jump
10/07/2020, 20:43:58,6.9726853,-1.6582261,2.9910283,0.58979666,-0.85722005,-1.6594901,7.766228496532094,1.9587224774049155,jump
10/07/2020, 20:43:58,7.1976104,-1.7012969,3.0604203,0.58979666,-0.85722005,-1.6594901,8.004135096572737,1.9587224774049155,jump
10/07/2020, 20:43:58,7.1976104,-1.7012969,3.0604203,0.5873545,-0.9133912,-1.8243401,8.004135096572737,2.1230839691905485,jump
10/07/2020, 20:43:58,7.5349984,-1.7204394,3.1130621,0.5873545,-0.9133912,-1.8243401,8.33230273676748,2.1230839691905485,jump
10/07/2020, 20:43:58,7.5349984,-1.7204394,3.1130621,0.58979666,-0.96712005,-1.9843056,8.33230273676748,2.2848741958840364,jump
10/07/2020, 20:43:58,7.8963146,-1.7252251,3.196811,0.58979666,-0.96712005,-1.9843056,8.691822969136963,2.2848741958840364,jump
10/07/2020, 20:43:58,7.8963146,-1.7252251,3.196811,0.57514334,-1.0086378,-2.1369445,8.691822969136963,2.4320098634836413,jump
10/07/2020, 20:43:58,8.295917,-1.7826529,3.3260236,0.57514334,-1.0086378,-2.1369445,9.113863921122066,2.4320098634836413,jump
10/07/2020, 20:43:58,8.295917,-1.7826529,3.3260236,0.56171113,-1.0355023,-2.2798145,9.113863921122066,2.566191440833779,jump
10/07/2020, 20:43:58,8.71466,-1.8783658,3.4576287,0.56171113,-1.0355023,-2.2798145,9.561838100009957,2.566191440833779,jump
10/07/2020, 20:43:58,8.71466,-1.8783658,3.4576287,0.5592689,-1.0513767,-2.4153578,9.561838100009957,2.692977552348531,jump
10/07/2020, 20:43:58,9.12144,-1.9262222,3.6346977,0.5592689,-1.0513767,-2.4153578,10.006099421999238,2.692977552348531,jump
10/07/2020, 20:43:58,9.12144,-1.9262222,3.6346977,0.5641534,-1.0721356,-2.5313635,10.006099421999238,2.806340109206756,jump
10/07/2020, 20:43:58,9.542577,-2.0075781,3.7304106,0.5641534,-1.0721356,-2.5313635,10.440646762586395,2.806340109206756,jump
10/07/2020, 20:43:58,9.542577,-2.0075781,3.7304106,0.57148004,-1.0965579,-2.6376002,10.440646762586395,2.913067676851839,jump
10/07/2020, 20:43:58,9.930214,-2.143969,3.8285162,0.57148004,-1.0965579,-2.6376002,10.856486016365949,2.913067676851839,jump
10/07/2020, 20:43:58,9.930214,-2.143969,3.8285162,0.5885756,-1.1185378,-2.71453,10.856486016365949,2.9943648884223486,jump
10/07/2020, 20:43:58,10.267602,-2.2444677,3.897908,0.5885756,-1.1185378,-2.71453,11.209592861713745,2.9943648884223486,jump
10/07/2020, 20:43:59,22.451855,-8.312666,9.303294,-1.4384689,3.6120467,5.536518,25.685355309656458,6.765286912349318,jump
10/07/2020, 20:43:59,22.451855,-8.312666,9.303294,-1.2882723,3.7329369,5.6671767,25.685355309656458,6.907340662619169,jump
10/07/2020, 20:43:59,22.164717,-8.657232,8.513663,-1.2882723,3.7329369,5.6671767,25.27260969469843,6.907340662619169,jump
10/07/2020, 20:43:59,22.164717,-8.657232,8.513663,-1.27484,3.8465002,5.808826,25.27260969469843,7.082601191143542,jump
10/07/2020, 20:43:59,21.54976,-8.666803,7.6737823,-1.27484,3.8465002,5.808826,24.462064658335773,7.082601191143542,jump
10/07/2020, 20:43:59,21.54976,-8.666803,7.6737823,-1.5727912,3.9600635,6.0396156,24.462064658335773,7.391395793529857,jump
10/07/2020, 20:43:59,20.874985,-8.79123,6.8578296,-1.5727912,3.9600635,6.0396156,23.666020849039565,7.391395793529857,jump
10/07/2020, 20:43:59,20.874985,-8.79123,6.8578296,-1.8951645,3.9185457,6.3693156,23.666020849039565,7.714585571972366,jump
10/07/2020, 20:43:59,20.315063,-9.238688,6.013163,-1.8951645,3.9185457,6.3693156,23.11305473161692,7.714585571972366,jump
10/07/2020, 20:43:59,20.315063,-9.238688,6.013163,-1.845099,3.8831334,6.701458,23.11305473161692,7.961950409911955,jump
10/07/2020, 20:43:59,19.736002,-9.439685,4.9770713,-1.845099,3.8831334,6.701458,22.436324625013143,7.961950409911955,jump
10/07/2020, 20:43:59,19.736002,-9.439685,4.9770713,-1.5422634,3.93442,6.8626447,22.436324625013143,8.059412500421278,jump
10/07/2020, 20:43:59,18.568304,-8.666803,3.8787656,-1.5422634,3.93442,6.8626447,20.855220417526247,8.059412500421278,jump
10/07/2020, 20:43:59,18.568304,-8.666803,3.8787656,-1.3126945,4.0553102,6.9261427,20.855220417526247,8.132660130396445,jump
10/07/2020, 20:43:59,16.73301,-7.4177504,2.9575288,-1.3126945,4.0553102,6.9261427,18.54086294319326,8.132660130396445,jump
10/07/2020, 20:43:59,16.73301,-7.4177504,2.9575288,-1.2614079,4.0797324,7.0250525,18.54086294319326,8.221114867643996,jump
10/07/2020, 20:43:59,14.577076,-6.096912,2.1487548,-1.2614079,4.0797324,7.0250525,15.946179029417841,8.221114867643996,jump
10/07/2020, 20:43:59,14.577076,-6.096912,2.1487548,-1.2101212,3.9942546,7.0812235,15.946179029417841,8.219622194273098,jump
10/07/2020, 20:43:59,12.574283,-4.546363,1.4907285,-1.2101212,3.9942546,7.0812235,13.45378277391381,8.219622194273098,jump
10/07/2020, 20:43:59,12.574283,-4.546363,1.4907285,-1.0611455,3.9258723,7.031158,13.45378277391381,8.122541830611096,jump
10/07/2020, 20:44:00,10.425529,-2.2707887,3.1609187,-1.2125634,1.1283067,2.1992211,11.12832122750373,2.75317266064355,jump
10/07/2020, 20:44:00,10.425529,-2.2707887,3.1609187,-1.1246433,1.05504,2.3994834,11.12832122750373,2.8522715168311956,jump
10/07/2020, 20:44:00,10.717453,-2.3042881,3.1680973,-1.1246433,1.05504,2.3994834,11.410976425213471,2.8522715168311956,jump
10/07/2020, 20:44:00,10.717453,-2.3042881,3.1680973,-1.0672512,1.0403867,2.5826502,11.410976425213471,2.9818637710226445,jump
10/07/2020, 20:44:00,11.057234,-2.254039,3.1752756,-1.0672512,1.0403867,2.5826502,11.722861701907677,2.9818637710226445,jump
10/07/2020, 20:44:00,11.057234,-2.254039,3.1752756,-1.0525978,1.0562612,2.7438369,11.722861701907677,3.1228657597787097,jump
10/07/2020, 20:44:00,11.334801,-2.1870399,3.2015967,-1.0525978,1.0562612,2.7438369,11.979610692656978,3.1228657597787097,jump
10/07/2020, 20:44:00,11.334801,-2.1870399,3.2015967,-1.0672512,1.0745778,2.8769379,11.979610692656978,3.251232702810392,jump
10/07/2020, 20:44:00,11.617154,-2.1008983,3.2039895,-1.0672512,1.0745778,2.8769379,12.232644528343416,3.251232702810392,jump
10/07/2020, 20:44:00,11.617154,-2.1008983,3.2039895,-1.0941156,1.1002212,2.9831746,12.232644528343416,3.3625743178843748,jump
10/07/2020, 20:44:00,11.736795,-2.0386848,3.1752756,-1.0941156,1.1002212,2.9831746,12.328462096454787,3.3625743178843748,jump
10/07/2020, 20:44:00,11.736795,-2.0386848,3.1752756,-1.1283067,1.1234223,3.0625467,12.328462096454787,3.451716409768186,jump
10/07/2020, 20:44:00,11.753545,-2.0338993,3.1274192,-1.1283067,1.1234223,3.0625467,12.331395419552077,3.451716409768186,jump
10/07/2020, 20:44:00,11.753545,-2.0338993,3.1274192,-1.16494,1.1331911,3.108949,12.331395419552077,3.508100745459923,jump
10/07/2020, 20:44:00,11.657832,-2.0219352,3.1537402,-1.16494,1.1331911,3.108949,12.244972414593594,3.508100745459923,jump
10/07/2020, 20:44:00,11.657832,-2.0219352,3.1537402,-1.1808145,1.1368545,3.1248236,12.244972414593594,3.5286376210234147,jump
10/07/2020, 20:44:00,11.468799,-2.050649,3.0747771,-1.1808145,1.1368545,3.1248236,12.049595743680587,3.5286376210234147,jump
10/07/2020, 20:44:00,11.468799,-2.050649,3.0747771,-1.185699,1.1148745,3.107728,12.049595743680587,3.508104979353616,jump
10/07/2020, 20:44:00,11.184053,-2.1080768,3.0317063,-1.185699,1.1148745,3.107728,11.777872560660233,3.508104979353616,jump
10/07/2020, 20:44:00,11.184053,-2.1080768,3.0317063,-1.1771512,1.0709145,3.064989,11.777872560660233,3.45350560413836,jump
10/07/2020, 20:44:01,10.73181,-3.3547373,3.7471602,2.2126534,-0.23445335,-0.53973114,11.851886322549639,2.289566147593186,jump
10/07/2020, 20:44:01,11.708081,-3.3643086,4.089334,2.2126534,-0.23445335,-0.53973114,12.849917954227688,2.289566147593186,jump
10/07/2020, 20:44:01,11.708081,-3.3643086,4.089334,2.1039746,-0.17217667,-0.4151778,12.849917954227688,2.1514475226704635,jump
10/07/2020, 20:44:01,12.780066,-3.400201,4.4721856,2.1039746,-0.17217667,-0.4151778,13.960368428609767,2.1514475226704635,jump
10/07/2020, 20:44:01,12.780066,-3.400201,4.4721856,1.9818634,-0.085477784,-0.26376,13.960368428609767,2.0011642222388963,jump
10/07/2020, 20:44:01,13.785051,-3.4049866,4.900501,1.9818634,-0.085477784,-0.26376,15.021201094746212,2.0011642222388963,jump
10/07/2020, 20:44:01,13.785051,-3.4049866,4.900501,1.7950335,0.089141116,-0.06716111,15.021201094746212,1.7984998909579522,jump
10/07/2020, 20:44:01,14.627325,-3.333202,5.3982077,1.7950335,0.089141116,-0.06716111,15.943949295846423,1.7984998909579522,jump
10/07/2020, 20:44:01,14.627325,-3.333202,5.3982077,1.5031879,0.35168,0.1526389,15.943949295846423,1.5513063236934461,jump
10/07/2020, 20:44:01,15.110675,-3.1393833,5.7284174,1.5031879,0.35168,0.1526389,16.462168391226182,1.5513063236934461,jump
10/07/2020, 20:44:01,15.110675,-3.1393833,5.7284174,1.1295278,0.6337567,0.40296668,16.462168391226182,1.3564154091685159,jump
10/07/2020, 20:44:01,15.136996,-2.9096723,5.9748783,1.1295278,0.6337567,0.40296668,16.531606683863785,1.3564154091685159,jump
10/07/2020, 20:44:01,15.136996,-2.9096723,5.9748783,0.7119078,0.85722005,0.69237006,16.531606683863785,1.3118747035480889,jump
10/07/2020, 20:44:01,14.873786,-2.6919255,6.0658054,0.7119078,0.85722005,0.69237006,16.28711047951004,1.3118747035480889,jump
10/07/2020, 20:44:01,14.873786,-2.6919255,6.0658054,0.27230778,1.0525978,1.0257334,16.28711047951004,1.4947382662102064,jump
10/07/2020, 20:44:01,14.38565,-2.5435705,6.1495543,0.27230778,1.0525978,1.0257334,15.850352842621668,1.4947382662102064,jump
10/07/2020, 20:44:01,14.38565,-2.5435705,6.1495543,-0.16607112,1.2516389,1.4079412,15.850352842621668,1.8911578491127607,jump
10/07/2020, 20:44:01,13.722837,-2.4311078,6.245267,-0.16607112,1.2516389,1.4079412,15.271866663817047,1.8911578491127607,jump
10/07/2020, 20:44:01,13.722837,-2.4311078,6.245267,-0.5739222,1.4384689,1.8145711,15.271866663817047,2.3856336710913864,jump
10/07/2020, 20:44:01,13.01217,-2.2851455,6.2548385,-0.5739222,1.4384689,1.8145711,14.617163137504063,2.3856336710913864,jump
10/07/2020, 20:44:02,7.1688967,-3.199204,5.0081778,-0.11966889,0.2735289,-0.6423045,9.311811317671854,0.7083034310044147,jump
10/07/2020, 20:44:02,7.0540414,-3.0269206,4.651647,-0.11966889,0.2735289,-0.6423045,8.975498236164034,0.7083034310044147,jump
10/07/2020, 20:44:02,7.0540414,-3.0269206,4.651647,-0.23567446,0.27475002,-0.5482789,8.975498236164034,0.6569930041512128,jump
10/07/2020, 20:44:02,7.123433,-2.902494,4.4147577,-0.23567446,0.27475002,-0.5482789,8.868926444057566,0.6569930041512128,jump
10/07/2020, 20:44:02,7.123433,-2.902494,4.4147577,-0.3370267,0.2845189,-0.44570556,8.868926444057566,0.6270497895018826,jump
10/07/2020, 20:44:02,7.338787,-2.8570302,4.290331,-0.3370267,0.2845189,-0.44570556,8.968130028278187,0.6270497895018826,jump
10/07/2020, 20:44:02,7.338787,-2.8570302,4.290331,-0.41029334,0.31016225,-0.33458444,8.968130028278187,0.6135861757485711,jump
10/07/2020, 20:44:02,7.645068,-2.9120653,4.2592244,-0.41029334,0.31016225,-0.33458444,9.223241514865895,0.6135861757485711,jump
10/07/2020, 20:44:02,7.645068,-2.9120653,4.2592244,-0.45425335,0.3492378,-0.21491556,9.223241514865895,0.6119655547292231,jump
10/07/2020, 20:44:02,7.958528,-2.9910283,4.2520456,-0.45425335,0.3492378,-0.21491556,9.506014463947611,0.6119655547292231,jump
10/07/2020, 20:44:02,7.958528,-2.9910283,4.2520456,-0.4798967,0.39197668,-0.081814446,9.506014463947611,0.6250121293849197,jump
10/07/2020, 20:44:02,8.262417,-3.1752756,4.2520456,-0.4798967,0.39197668,-0.081814446,9.819867564862916,0.6250121293849197,jump
10/07/2020, 20:44:02,8.262417,-3.1752756,4.2520456,-0.4701278,0.43227336,0.06594,9.819867564862916,0.6420502159263592,jump
10/07/2020, 20:44:02,8.492127,-3.4241292,4.23051,-0.4701278,0.43227336,0.06594,10.086530922179772,0.6420502159263592,jump
10/07/2020, 20:44:02,8.492127,-3.4241292,4.23051,-0.4273889,0.4701278,0.21735778,10.086530922179772,0.6715101070684425,jump
10/07/2020, 20:44:02,8.752945,-3.6873398,4.2592244,-0.4273889,0.4701278,0.21735778,10.40920326066332,0.6715101070684425,jump
10/07/2020, 20:44:02,8.752945,-3.6873398,4.2592244,-0.35900667,0.5092034,0.37854445,10.40920326066332,0.7290197310729134,jump
10/07/2020, 20:44:02,9.025727,-3.9242291,4.28076,-0.35900667,0.5092034,0.37854445,10.732578056315363,0.7290197310729134,jump
10/07/2020, 20:44:02,9.025727,-3.9242291,4.28076,-0.26376,0.5458367,0.5482789,10.732578056315363,0.8173841260329063,jump
10/07/2020, 20:44:02,9.35833,-4.1108694,4.2927237,-0.26376,0.5458367,0.5482789,11.086255445833096,0.8173841260329063,jump
10/07/2020, 20:44:03,10.406385,-2.9623144,4.130012,-0.5507211,-0.6801589,-1.6765857,11.581241875077568,1.8912560403449343,jump
10/07/2020, 20:44:03,10.406385,-2.9623144,4.130012,-0.52996224,-0.6227667,-1.5923289,11.581241875077568,1.7900306288858017,jump
10/07/2020, 20:44:03,10.205389,-3.0005996,4.0869412,-0.52996224,-0.6227667,-1.5923289,11.395466287980035,1.7900306288858017,jump
10/07/2020, 20:44:03,10.205389,-3.0005996,4.0869412,-0.50554,-0.57514334,-1.515399,11.395466287980035,1.6978794508340775,jump
10/07/2020, 20:44:03,9.97807,-3.0197423,4.058227,-0.50554,-0.57514334,-1.515399,11.187043230590765,1.6978794508340775,jump
10/07/2020, 20:44:03,9.97807,-3.0197423,4.058227,-0.48356003,-0.54339445,-1.4287001,11.187043230590765,1.6032129516704776,jump
10/07/2020, 20:44:03,9.784252,-3.0580273,4.0366917,-0.48356003,-0.54339445,-1.4287001,11.017168458117633,1.6032129516704776,jump
10/07/2020, 20:44:03,9.784252,-3.0580273,4.0366917,-0.45547447,-0.5128667,-1.3371167,11.017168458117633,1.5027875215058397,jump
10/07/2020, 20:44:03,9.633504,-3.0556345,3.9984066,-0.45547447,-0.5128667,-1.3371167,10.868696130428724,1.5027875215058397,jump
10/07/2020, 20:44:03,9.633504,-3.0556345,3.9984066,-0.43349445,-0.47745445,-1.2443123,10.868696130428724,1.4014967921524633,jump
10/07/2020, 20:44:03,9.487542,-3.0245278,3.993621,-0.43349445,-0.47745445,-1.2443123,10.728943751021262,1.4014967921524633,jump
10/07/2020, 20:44:03,9.487542,-3.0245278,3.993621,-0.4163989,-0.44204223,-1.1490656,10.728943751021262,1.2996696401965226,jump
10/07/2020, 20:44:03,9.346365,-3.050849,3.9984066,-0.4163989,-0.44204223,-1.1490656,10.613645620397682,1.2996696401965226,jump
10/07/2020, 20:44:03,9.346365,-3.050849,3.9984066,-0.40052447,-0.40540892,-1.0501556,10.613645620397682,1.1948234630372958,jump
10/07/2020, 20:44:03,9.209974,-3.0388846,3.9816568,-0.40052447,-0.40540892,-1.0501556,10.48389417383588,1.1948234630372958,jump
10/07/2020, 20:44:03,9.209974,-3.0388846,3.9816568,-0.39075556,-0.3712178,-0.9549089,10.48389417383588,1.0965142852772358,jump
10/07/2020, 20:44:03,9.111869,-3.0317063,3.9720855,-0.39075556,-0.3712178,-0.9549089,10.3920575638365,1.0965142852772358,jump
10/07/2020, 20:44:03,9.111869,-3.0317063,3.9720855,-0.38831335,-0.33580557,-0.8535567,10.3920575638365,0.9960480235477753,jump
10/07/2020, 20:44:03,9.02812,-3.0293136,3.9673,-0.38831335,-0.33580557,-0.8535567,10.316160184065382,0.9960480235477753,jump
10/07/2020, 20:44:03,9.02812,-3.0293136,3.9673,-0.3858711,-0.30039334,-0.76075226,10.316160184065382,0.9043653454122969,jump
10/07/2020, 20:44:04,5.0512486,-3.993621,-0.23449662,-0.7656367,1.9782001,7.415808,6.44353242887422,7.713215046258962,jump
10/07/2020, 20:44:04,5.0512486,-3.993621,-0.23449662,-0.35290113,1.8255612,7.314456,6.44353242887422,7.5470841488471585,jump
10/07/2020, 20:44:04,4.223332,-2.2420747,-0.82313097,-0.35290113,1.8255612,7.314456,4.8519043939589634,7.5470841488471585,jump
10/07/2020, 20:44:04,4.223332,-2.2420747,-0.82313097,-0.27108666,1.6717012,7.174028,4.8519043939589634,7.371210853766533,jump
10/07/2020, 20:44:04,3.6346977,-0.57188463,-1.2251252,-0.27108666,1.6717012,7.174028,3.8780163700276766,7.371210853766533,jump
10/07/2020, 20:44:04,3.6346977,-0.57188463,-1.2251252,-0.3931978,1.5337156,7.020168,3.8780163700276766,7.196502233769348,jump
10/07/2020, 20:44:04,3.1441689,1.1413764,-1.5840486,-0.3931978,1.5337156,7.020168,3.7010468615537024,7.196502233769348,jump
10/07/2020, 20:44:04,3.1441689,1.1413764,-1.5840486,-0.55438447,1.3529912,6.8394437,3.7010468615537024,6.9939915136102195,jump
10/07/2020, 20:44:04,2.725425,2.8474588,-1.902294,-0.55438447,1.3529912,6.8394437,4.376606666517517,6.9939915136102195,jump
10/07/2020, 20:44:04,2.725425,2.8474588,-1.902294,-0.63986224,1.1417389,6.5622516,4.376606666517517,6.691497367673509,jump
10/07/2020, 20:44:04,2.2037897,4.168297,-2.2947168,-0.63986224,1.1417389,6.5622516,5.243768947288365,6.691497367673509,jump
10/07/2020, 20:44:04,2.2037897,4.168297,-2.2947168,-0.6618422,0.9378134,6.1348624,5.243768947288365,6.241319256164367,jump
10/07/2020, 20:44:04,1.6654046,4.847859,-2.7972097,-0.6618422,0.9378134,6.1348624,5.83949403978381,6.241319256164367,jump
10/07/2020, 20:44:04,1.6654046,4.847859,-2.7972097,-0.47867557,0.73755115,5.646418,5.83949403978381,5.714468418627018,jump
10/07/2020, 20:44:04,1.160519,4.7832522,-3.0532417,-0.47867557,0.73755115,5.646418,5.792114588180661,5.714468418627018,jump
