DATE,TIME,ax,ay,az,gx,gy,gz,ma,mg,label
10/07/2020, 20:29:56,2.6105695,-2.0219352,9.209974,-0.07693,-0.14531223,-0.12577444,9.78401356549652,0.20700985781445927,jump
10/07/2020, 20:29:56,2.6512475,-2.103291,9.3200445,-0.07693,-0.14531223,-0.12577444,9.915451391574743,0.20700985781445927,jump
10/07/2020, 20:29:56,2.6512475,-2.103291,9.3200445,-0.059834447,-0.14287001,-0.13920668,9.915451391574743,0.2082558512606481,jump
10/07/2020, 20:29:56,2.7230322,-1.9764715,9.372686,-0.059834447,-0.14287001,-0.13920668,9.958342955165772,0.2082558512606481,jump
10/07/2020, 20:29:56,2.7230322,-1.9764715,9.372686,-0.08303556,-0.08303556,-0.10013112,9.958342955165772,0.1543244908993685,jump
10/07/2020, 20:29:56,2.9120653,-1.7802601,9.355937,-0.08303556,-0.08303556,-0.10013112,9.959066588845127,0.1543244908993685,jump
10/07/2020, 20:29:56,2.9120653,-1.7802601,9.355937,-0.10013112,0.0036633336,-0.051286668,9.959066588845127,0.11256101828864189,jump
10/07/2020, 20:29:56,2.969493,-1.6701902,9.21476,-0.10013112,0.0036633336,-0.051286668,9.824419686365042,0.11256101828864189,jump
10/07/2020, 20:29:56,2.969493,-1.6701902,9.21476,-0.13798556,0.03297,-0.06594,9.824419686365042,0.1564452573507558,jump
10/07/2020, 20:29:56,2.914458,-1.7611175,9.133404,-0.13798556,0.03297,-0.06594,9.747546610379835,0.1564452573507558,jump
10/07/2020, 20:29:56,2.914458,-1.7611175,9.133404,-0.15630223,0.029306669,-0.08669889,9.747546610379835,0.1811241700387573,jump
10/07/2020, 20:29:56,2.804388,-1.8975084,9.150154,-0.15630223,0.029306669,-0.08669889,9.756559367038738,0.1811241700387573,jump
10/07/2020, 20:29:56,2.804388,-1.8975084,9.150154,-0.12821667,0.02198,-0.09402556,9.756559367038738,0.16050993897693253,jump
10/07/2020, 20:29:56,2.7397819,-1.9740787,9.18126,-0.12821667,0.02198,-0.09402556,9.782582907731966,0.16050993897693253,jump
10/07/2020, 20:29:56,2.7397819,-1.9740787,9.18126,-0.08792,0.0012211112,-0.09402556,9.782582907731966,0.128733149801652,jump
10/07/2020, 20:29:56,2.725425,-2.009971,9.245867,-0.08792,0.0012211112,-0.09402556,9.846521056733025,0.128733149801652,jump
10/07/2020, 20:29:56,2.725425,-2.009971,9.245867,-0.064718895,-0.017095556,-0.10135223,9.846521056733025,0.12146220747872503,jump
10/07/2020, 20:29:56,2.7972097,-2.0003998,9.30808,-0.064718895,-0.017095556,-0.10135223,9.923020198752805,0.12146220747872503,jump
10/07/2020, 20:29:56,2.7972097,-2.0003998,9.30808,-0.058613338,-0.0061055557,-0.106236674,9.923020198752805,0.12148675661005354,jump
10/07/2020, 20:29:56,2.8546374,-1.9860427,9.327223,-0.058613338,-0.0061055557,-0.106236674,9.954416404986018,0.12148675661005354,jump
10/07/2020, 20:29:57,2.7397819,-2.120041,9.267402,-0.05250778,-0.017095556,-0.068382226,9.89372084672407,0.08789456119076114,jump
10/07/2020, 20:29:57,2.7397819,-2.120041,9.267402,-0.048844445,-0.01099,-0.06105556,9.89372084672407,0.0789578452665924,jump
10/07/2020, 20:29:57,2.7708886,-2.1224337,9.336794,-0.048844445,-0.01099,-0.06105556,9.967861777950937,0.0789578452665924,jump
10/07/2020, 20:29:57,2.7708886,-2.1224337,9.336794,-0.05617111,0.0,-0.058613338,9.967861777950937,0.08118323187999905,jump
10/07/2020, 20:29:57,2.7852457,-2.1559331,9.375079,-0.05617111,0.0,-0.058613338,10.014876446721217,0.08118323187999905,jump
10/07/2020, 20:29:57,2.7852457,-2.1559331,9.375079,-0.064718895,0.007326667,-0.048844445,10.014876446721217,0.08141250047860783,jump
10/07/2020, 20:29:57,2.806781,-2.2085752,9.391829,-0.064718895,0.007326667,-0.048844445,10.04799819764855,0.08141250047860783,jump
10/07/2020, 20:29:57,2.806781,-2.2085752,9.391829,-0.06349778,0.019537779,-0.04151778,10.04799819764855,0.07834168157117456,jump
10/07/2020, 20:29:57,2.8259234,-2.2827528,9.365508,-0.06349778,0.019537779,-0.04151778,10.045374309634617,0.07834168157117456,jump
10/07/2020, 20:29:57,2.8259234,-2.2827528,9.365508,-0.05006556,0.018316668,-0.042738892,10.045374309634617,0.06832769093679743,jump
10/07/2020, 20:29:57,2.7972097,-2.251646,9.336794,-0.05006556,0.018316668,-0.042738892,10.003500014898458,0.06832769093679743,jump
10/07/2020, 20:29:57,2.7972097,-2.251646,9.336794,-0.035412222,0.014653334,-0.048844445,10.003500014898458,0.062084825377401884,jump
10/07/2020, 20:29:57,2.8019953,-2.1966112,9.315259,-0.035412222,0.014653334,-0.048844445,9.972478528926077,0.062084825377401884,jump
10/07/2020, 20:29:57,2.8019953,-2.1966112,9.315259,-0.03052778,0.017095556,-0.04151778,9.972478528926077,0.054294837556003034,jump
10/07/2020, 20:29:57,2.7972097,-2.201397,9.3104725,-0.03052778,0.017095556,-0.04151778,9.967719337038014,0.054294837556003034,jump
10/07/2020, 20:29:57,2.7972097,-2.201397,9.3104725,-0.035412222,0.023201112,-0.035412222,9.967719337038014,0.05519368205765841,jump
10/07/2020, 20:29:57,2.7972097,-2.2085752,9.3104725,-0.035412222,0.023201112,-0.035412222,9.969307143144652,0.05519368205765841,jump
10/07/2020, 20:29:57,2.7972097,-2.2085752,9.3104725,-0.04396,0.02075889,-0.024422223,9.969307143144652,0.054404578649832,jump
10/07/2020, 20:29:57,2.8187451,-2.2325034,9.3104725,-0.04396,0.02075889,-0.024422223,9.98069604760708,0.054404578649832,jump
10/07/2020, 20:29:57,2.8187451,-2.2325034,9.3104725,-0.042738892,0.015874445,-0.007326667,9.98069604760708,0.046176736257303175,jump
10/07/2020, 20:29:58,7.611569,-2.8402805,1.4715859,-0.65085226,0.08669889,-0.059834447,8.25643627841282,0.6593220205011822,jump
10/07/2020, 20:29:58,7.353144,-2.6488547,1.3280165,-0.65085226,0.08669889,-0.059834447,7.92772277757587,0.6593220205011822,jump
10/07/2020, 20:29:58,7.353144,-2.6488547,1.3280165,-0.6777167,0.098910004,-0.16607112,7.92772277757587,0.7047429977124994,jump
10/07/2020, 20:29:58,7.109076,-2.7014968,1.308874,-0.6777167,0.098910004,-0.16607112,7.716877493712771,0.7047429977124994,jump
10/07/2020, 20:29:58,7.109076,-2.7014968,1.308874,-0.68260115,0.091583334,-0.23689556,7.716877493712771,0.7283209108717158,jump
10/07/2020, 20:29:58,6.9391856,-2.8498518,1.4548361,-0.68260115,0.091583334,-0.23689556,7.641367729243932,0.7283209108717158,jump
10/07/2020, 20:29:58,6.9391856,-2.8498518,1.4548361,-0.6435256,0.085477784,-0.2845189,7.641367729243932,0.7087895689635041,jump
10/07/2020, 20:29:58,6.867401,-2.9982069,1.6606189,-0.6435256,0.085477784,-0.2845189,7.675161083560128,0.7087895689635041,jump
10/07/2020, 20:29:58,6.867401,-2.9982069,1.6606189,-0.55438447,0.085477784,-0.32481557,7.675161083560128,0.6481926777822954,jump
10/07/2020, 20:29:58,6.876972,-3.0436704,1.8424734,-0.55438447,0.085477784,-0.32481557,7.74282793323579,0.6481926777822954,jump
10/07/2020, 20:29:58,6.876972,-3.0436704,1.8424734,-0.4151778,0.07448778,-0.36511225,7.74282793323579,0.5578781054638172,jump
10/07/2020, 20:29:58,7.0779696,-3.0293136,1.969293,-0.4151778,0.07448778,-0.36511225,7.946855261684962,0.5578781054638172,jump
10/07/2020, 20:29:58,7.0779696,-3.0293136,1.969293,-0.25399113,0.054950003,-0.40540892,7.946855261684962,0.48154686882465497,jump
10/07/2020, 20:29:58,7.4344997,-2.8259234,1.9980069,-0.25399113,0.054950003,-0.40540892,8.200589090402392,0.48154686882465497,jump
10/07/2020, 20:29:58,7.4344997,-2.8259234,1.9980069,-0.085477784,0.042738892,-0.44692668,8.200589090402392,0.45703011350553935,jump
10/07/2020, 20:29:58,8.023134,-2.5914268,2.1296122,-0.085477784,0.042738892,-0.44692668,8.696057967109041,0.45703011350553935,jump
10/07/2020, 20:29:58,8.023134,-2.5914268,2.1296122,0.06960334,0.07570889,-0.5226356,8.696057967109041,0.5326578724863446,jump
10/07/2020, 20:29:58,8.609376,-2.347359,2.115255,0.06960334,0.07570889,-0.5226356,9.17091884852323,0.5326578724863446,jump
10/07/2020, 20:29:58,8.609376,-2.347359,2.115255,0.19049335,0.11112112,-0.6105556,9.17091884852323,0.6491638814441524,jump
10/07/2020, 20:29:58,9.128618,-2.1702902,1.9334008,0.19049335,0.11112112,-0.6105556,9.580181059287,0.6491638814441524,jump
10/07/2020, 20:29:59,9.999606,-5.3312087,4.0677986,-1.4445745,0.73633003,1.06603,12.039970707576844,1.9404631783218154,jump
10/07/2020, 20:29:59,8.800801,-5.3359947,3.9864426,-1.4445745,0.73633003,1.06603,11.03714941043208,1.9404631783218154,jump
10/07/2020, 20:29:59,8.800801,-5.3359947,3.9864426,-1.0306178,0.6679478,0.7986067,11.03714941043208,1.4649573615750637,jump
10/07/2020, 20:29:59,7.812566,-5.2498527,3.8524444,-1.0306178,0.6679478,0.7986067,10.17047025916894,1.4649573615750637,jump
10/07/2020, 20:29:59,7.812566,-5.2498527,3.8524444,-0.6288723,0.57636446,0.5971234,10.17047025916894,1.0412649341006586,jump
10/07/2020, 20:29:59,7.066005,-5.0416775,3.65384,-0.6288723,0.57636446,0.5971234,9.417934428099047,1.0412649341006586,jump
10/07/2020, 20:29:59,7.066005,-5.0416775,3.65384,-0.23201112,0.4908867,0.45791668,9.417934428099047,0.7102721912370719,jump
10/07/2020, 20:29:59,6.640083,-4.725825,3.4360933,-0.23201112,0.4908867,0.45791668,8.844820959039327,0.7102721912370719,jump
10/07/2020, 20:29:59,6.640083,-4.725825,3.4360933,0.12821667,0.42372558,0.33458444,8.844820959039327,0.5549140725934089,jump
10/07/2020, 20:29:59,6.393622,-4.314259,3.1609187,0.12821667,0.42372558,0.33458444,8.33562472484843,0.5549140725934089,jump
10/07/2020, 20:29:59,6.393622,-4.314259,3.1609187,0.42006224,0.39075556,0.20881,8.33562472484843,0.6105274902349778,jump
10/07/2020, 20:29:59,6.2644095,-3.7854455,2.952743,0.42006224,0.39075556,0.20881,7.892472091723746,0.6105274902349778,jump
10/07/2020, 20:29:59,6.2644095,-3.7854455,2.952743,0.61666113,0.36755446,0.08669889,7.892472091723746,0.7231071335288638,jump
10/07/2020, 20:29:59,6.235696,-3.2805598,2.7684958,0.61666113,0.36755446,0.08669889,7.570372780663909,0.7231071335288638,jump
10/07/2020, 20:29:59,6.235696,-3.2805598,2.7684958,0.7326667,0.33336335,-0.007326667,7.570372780663909,0.8049753146392365,jump
10/07/2020, 20:29:59,6.250053,-2.833102,2.5818555,0.7326667,0.33336335,-0.007326667,7.3318214990603465,0.8049753146392365,jump
10/07/2020, 20:29:59,6.250053,-2.833102,2.5818555,0.7778478,0.29673,-0.07570889,7.3318214990603465,0.8359591956542868,jump
10/07/2020, 20:29:59,6.352944,-2.498107,2.3856442,0.7778478,0.29673,-0.07570889,7.231302286897494,0.8359591956542868,jump
10/07/2020, 20:29:59,6.352944,-2.498107,2.3856442,0.7656367,0.26742333,-0.11112112,7.231302286897494,0.8185735586029675,jump
10/07/2020, 20:29:59,6.391229,-2.1966112,2.2444677,0.7656367,0.26742333,-0.11112112,7.1211337658702405,0.8185735586029675,jump
10/07/2020, 20:30:00,3.7064822,-1.605584,0.36131623,-1.3859612,-2.7169724,-5.4229546,4.055423476638504,6.221837613400753,jump
10/07/2020, 20:30:00,4.5966125,-2.4717858,0.4953143,-1.3859612,-2.7169724,-5.4229546,5.242509634134231,6.221837613400753,jump
10/07/2020, 20:30:00,4.5966125,-2.4717858,0.4953143,-1.4958612,-2.7194145,-5.5291915,5.242509634134231,6.340723483861038,jump
10/07/2020, 20:30:00,5.369494,-2.926422,0.5838487,-1.4958612,-2.7194145,-5.5291915,6.142987151378971,6.340723483861038,jump
10/07/2020, 20:30:00,5.369494,-2.926422,0.5838487,-1.4799867,-2.6705701,-5.698926,6.142987151378971,6.465296792654749,jump
10/07/2020, 20:30:00,6.04427,-2.8163524,0.92602235,-1.4799867,-2.6705701,-5.698926,6.732203083025642,6.465296792654749,jump
10/07/2020, 20:30:00,6.04427,-2.8163524,0.92602235,-1.3249056,-2.6107357,-5.976118,6.732203083025642,6.654720354543072,jump
10/07/2020, 20:30:00,6.573084,-2.3976083,1.3016955,-1.3249056,-2.6107357,-5.976118,7.11676669654098,6.654720354543072,jump
10/07/2020, 20:30:00,6.573084,-2.3976083,1.3016955,-1.1136534,-2.5960822,-6.349778,7.11676669654098,6.9497877423046965,jump
10/07/2020, 20:30:00,7.1880393,-2.0458634,1.8257236,-1.1136534,-2.5960822,-6.349778,7.693291419705346,6.9497877423046965,jump
10/07/2020, 20:30:00,7.1880393,-2.0458634,1.8257236,-0.88896894,-2.6937711,-6.7063427,7.693291419705346,7.281600169178947,jump
10/07/2020, 20:30:00,8.181061,-2.1224337,2.184647,-0.88896894,-2.6937711,-6.7063427,8.729671425439692,7.281600169178947,jump
10/07/2020, 20:30:00,8.181061,-2.1224337,2.184647,-0.64108336,-2.920898,-6.9530067,8.729671425439692,7.568813352050117,jump
10/07/2020, 20:30:00,9.827323,-2.8546374,2.4215364,-0.64108336,-2.920898,-6.9530067,10.51613379109111,7.568813352050117,jump
10/07/2020, 20:30:00,9.827323,-2.8546374,2.4215364,-0.42250445,-3.1895423,-7.0250525,10.51613379109111,7.726775093867161,jump
10/07/2020, 20:30:00,12.141182,-4.510471,2.5555346,-0.42250445,-3.1895423,-7.0250525,13.201643972721737,7.726775093867161,jump
10/07/2020, 20:30:00,12.141182,-4.510471,2.5555346,-0.40540892,-3.4594078,-6.83578,13.201643972721737,7.672010749208194,jump
10/07/2020, 20:30:00,14.9096775,-7.1569324,2.440679,-0.40540892,-3.4594078,-6.83578,16.717567956379575,7.672010749208194,jump
10/07/2020, 20:30:00,14.9096775,-7.1569324,2.440679,-0.39564002,-3.415448,-6.702679,16.717567956379575,7.533108495748221,jump
10/07/2020, 20:30:00,18.25245,-8.372486,2.605784,-0.39564002,-3.415448,-6.702679,20.249459229879072,7.533108495748221,jump
10/07/2020, 20:30:01,15.103497,-5.4843497,10.817951,0.26742333,0.70580226,1.3590968,19.370641915896705,1.5546112341042244,jump
10/07/2020, 20:30:01,15.854843,-5.400601,9.817751,0.26742333,0.70580226,1.3590968,19.41470511011999,1.5546112341042244,jump
10/07/2020, 20:30:01,15.854843,-5.400601,9.817751,-1.2504178,1.0965579,2.2224224,19.41470511011999,2.775814300166087,jump
10/07/2020, 20:30:01,16.68276,-4.981857,8.784052,-1.2504178,1.0965579,2.2224224,19.50110136072539,2.775814300166087,jump
10/07/2020, 20:30:01,16.68276,-4.981857,8.784052,-2.8097768,1.5630223,3.1370347,19.50110136072539,4.4920897772559885,jump
10/07/2020, 20:30:01,18.001205,-4.6037908,8.30788,-2.8097768,1.5630223,3.1370347,20.353357550509934,4.4920897772559885,jump
10/07/2020, 20:30:01,18.001205,-4.6037908,8.30788,-4.040657,1.9085968,4.0516467,20.353357550509934,6.03203879054457,jump
10/07/2020, 20:30:01,19.642681,-4.7569313,8.142776,-4.040657,1.9085968,4.0516467,21.7891741586615,6.03203879054457,jump
10/07/2020, 20:30:01,19.642681,-4.7569313,8.142776,-4.724479,1.9782001,4.990681,21.7891741586615,7.151285045362208,jump
10/07/2020, 20:30:01,21.377478,-6.0634127,8.269595,-4.724479,1.9782001,4.990681,23.709654732695995,7.151285045362208,jump
10/07/2020, 20:30:01,21.377478,-6.0634127,8.269595,-4.8697915,1.9501145,6.0445004,23.709654732695995,8.003361814886661,jump
10/07/2020, 20:30:01,23.002205,-8.796016,8.413164,-4.8697915,1.9501145,6.0445004,26.02407834577896,8.003361814886661,jump
10/07/2020, 20:30:01,23.002205,-8.796016,8.413164,-4.4521713,2.067341,7.093435,26.02407834577896,8.626270695109913,jump
10/07/2020, 20:30:01,24.691536,-12.191431,8.695518,-4.4521713,2.067341,7.093435,28.877585837145514,8.626270695109913,jump
10/07/2020, 20:30:01,24.691536,-12.191431,8.695518,-3.5680869,2.339649,7.710096,28.877585837145514,8.81196797771828,jump
10/07/2020, 20:30:01,25.945375,-14.794823,8.650054,-3.5680869,2.339649,7.710096,31.094577006091587,8.81196797771828,jump
10/07/2020, 20:30:01,25.945375,-14.794823,8.650054,-2.43978,2.6302733,7.7186437,31.094577006091587,8.511658141605391,jump
10/07/2020, 20:30:01,26.091337,-15.876378,8.6141615,-2.43978,2.6302733,7.7186437,31.733594747147254,8.511658141605391,jump
10/07/2020, 20:30:01,26.091337,-15.876378,8.6141615,-1.2589656,2.9172347,7.4451146,31.733594747147254,8.0947504014691,jump
10/07/2020, 20:30:01,25.004997,-15.814165,8.752945,-1.2589656,2.9172347,7.4451146,30.85371535442635,8.0947504014691,jump
10/07/2020, 20:30:02,8.425129,-1.8113668,2.8761728,1.4983034,-0.029306669,-0.89019006,9.084944531405176,1.7430462848341644,jump
10/07/2020, 20:30:02,9.037691,-1.416551,2.952743,1.4983034,-0.029306669,-0.89019006,9.612760736241942,1.7430462848341644,jump
10/07/2020, 20:30:02,9.037691,-1.416551,2.952743,1.0806834,0.037854444,-0.89385337,9.612760736241942,1.402955203744021,jump
10/07/2020, 20:30:02,9.547362,-1.1653047,3.0245278,1.0806834,0.037854444,-0.89385337,10.082550803633591,1.402955203744021,jump
10/07/2020, 20:30:02,9.547362,-1.1653047,3.0245278,0.6288723,0.12821667,-0.8523356,10.082550803633591,1.0669563161711144,jump
10/07/2020, 20:30:02,9.956535,-1.0719845,3.2207394,0.6288723,0.12821667,-0.8523356,10.519263702852506,1.0669563161711144,jump
10/07/2020, 20:30:02,9.956535,-1.0719845,3.2207394,0.19415668,0.23323223,-0.7778478,10.519263702852506,0.8349498962746473,jump
10/07/2020, 20:30:02,10.238888,-1.1581261,3.481557,0.19415668,0.23323223,-0.7778478,10.876457033754,0.8349498962746473,jump
10/07/2020, 20:30:02,10.238888,-1.1581261,3.481557,-0.17828223,0.31382558,-0.6777167,10.876457033754,0.7678352265243167,jump
10/07/2020, 20:30:02,10.518848,-1.3375878,3.751946,-0.17828223,0.31382558,-0.6777167,11.247773640062498,0.7678352265243167,jump
10/07/2020, 20:30:02,10.518848,-1.3375878,3.751946,-0.46158,0.34069002,-0.5482789,11.247773640062498,0.7935588032506548,jump
10/07/2020, 20:30:02,10.906486,-1.5290136,3.9194436,-0.46158,0.34069002,-0.5482789,11.689796751883655,0.7935588032506548,jump
10/07/2020, 20:30:02,10.906486,-1.5290136,3.9194436,-0.6667267,0.3370267,-0.41273558,11.689796751883655,0.8534999417605275,jump
10/07/2020, 20:30:02,11.351551,-1.6366907,3.9768713,-0.6667267,0.3370267,-0.41273558,12.138862092266328,0.8534999417605275,jump
10/07/2020, 20:30:02,11.351551,-1.6366907,3.9768713,-0.84745115,0.36755446,-0.25399113,12.138862092266328,0.9580089890328627,jump
10/07/2020, 20:30:02,11.770294,-1.672583,3.95055,-0.84745115,0.36755446,-0.25399113,12.527737428361135,0.9580089890328627,jump
10/07/2020, 20:30:02,11.770294,-1.672583,3.95055,-1.0452712,0.47623336,-0.06227667,12.527737428361135,1.1503340357758993,jump
10/07/2020, 20:30:02,11.956935,-1.6199409,3.8380876,-1.0452712,0.47623336,-0.06227667,12.661888383936189,1.1503340357758993,jump
10/07/2020, 20:30:02,11.956935,-1.6199409,3.8380876,-1.2760612,0.6618422,0.15141778,12.661888383936189,1.4454392428203058,jump
10/07/2020, 20:30:02,11.846865,-1.564906,3.737589,-1.2760612,0.6618422,0.15141778,12.520651128198677,1.4454392428203058,jump
10/07/2020, 20:30:03,-3.0197423,4.895715,-1.5888343,-0.19049335,0.30283555,0.7998278,5.967517517790821,0.8761972491948246,jump
10/07/2020, 20:30:03,-3.0197423,4.895715,-1.5888343,-0.39075556,0.19904111,0.26376,5.967517517790821,0.5117388136444165,jump
10/07/2020, 20:30:03,-3.5174494,4.402794,-1.0911272,-0.39075556,0.19904111,0.26376,5.740000225978336,0.5117388136444165,jump
10/07/2020, 20:30:03,-3.5174494,4.402794,-1.0911272,-0.72778225,0.06105556,-0.3174889,5.740000225978336,0.7963629770224154,jump
10/07/2020, 20:30:03,-3.6753755,3.5820556,-0.80877405,-0.72778225,0.06105556,-0.3174889,5.1955386969299875,0.7963629770224154,jump
10/07/2020, 20:30:03,-3.6753755,3.5820556,-0.80877405,-1.0391656,-0.109900005,-0.91461223,5.1955386969299875,1.3886895717209815,jump
10/07/2020, 20:30:03,-3.493521,2.7637103,-0.72741807,-1.0391656,-0.109900005,-0.91461223,4.513526365087222,1.3886895717209815,jump
10/07/2020, 20:30:03,-3.493521,2.7637103,-0.72741807,-1.16494,-0.28329778,-1.4799867,4.513526365087222,1.9046530837784479,jump
10/07/2020, 20:30:03,-3.1872396,2.1870399,-0.7106683,-1.16494,-0.28329778,-1.4799867,3.930227646137728,1.9046530837784479,jump
10/07/2020, 20:30:03,-3.1872396,2.1870399,-0.7106683,-1.1234223,-0.42250445,-1.9806423,3.930227646137728,2.3159299632571115,jump
10/07/2020, 20:30:03,-2.9766715,1.9381863,-0.6628119,-1.1234223,-0.42250445,-1.9806423,3.6133721968918184,2.3159299632571115,jump
10/07/2020, 20:30:03,-2.9766715,1.9381863,-0.6628119,-1.0171856,-0.55316335,-2.4007046,3.6133721968918184,2.6653402889966378,jump
10/07/2020, 20:30:03,-2.8642087,1.9908284,-0.72502524,-1.0171856,-0.55316335,-2.4007046,3.56268869800283,2.6653402889966378,jump
10/07/2020, 20:30:03,-2.8642087,1.9908284,-0.72502524,-0.9194967,-0.6984756,-2.7499423,3.56268869800283,2.9825366787391876,jump
10/07/2020, 20:30:03,-2.778067,2.1559331,-0.80877405,-0.9194967,-0.6984756,-2.7499423,3.60829877651858,2.9825366787391876,jump
10/07/2020, 20:30:03,-2.778067,2.1559331,-0.80877405,-0.83401895,-0.85966223,-3.0613258,3.60829877651858,3.287297118152133,jump
10/07/2020, 20:30:03,-2.5914268,2.201397,-0.971486,-0.83401895,-0.85966223,-3.0613258,3.536301260787491,3.287297118152133,jump
10/07/2020, 20:30:03,-2.5914268,2.201397,-0.971486,-0.77418447,-1.0159645,-3.3751512,3.536301260787491,3.608765828267077,jump
10/07/2020, 20:30:03,-2.2492533,2.1655045,-1.1030912,-0.77418447,-1.0159645,-3.3751512,3.3113985137451873,3.608765828267077,jump
10/07/2020, 20:30:03,-2.2492533,2.1655045,-1.1030912,-0.76075226,-1.1734878,-3.734158,3.3113985137451873,3.9874495405818258,jump
10/07/2020, 20:30:04,8.2456665,-2.2181466,2.455036,-0.67039,0.5421733,1.0428289,8.884728001425627,1.3530952782309522,jump
10/07/2020, 20:30:04,8.025527,-2.199004,2.4382863,-0.67039,0.5421733,1.0428289,8.671213412360602,1.3530952782309522,jump
10/07/2020, 20:30:04,8.025527,-2.199004,2.4382863,-0.5971234,0.4798967,0.9414767,8.671213412360602,1.2137691523979892,jump
10/07/2020, 20:30:04,7.891529,-2.210968,2.4119651,-0.5971234,0.4798967,0.9414767,8.54296123386903,1.2137691523979892,jump
10/07/2020, 20:30:04,7.891529,-2.210968,2.4119651,-0.5153089,0.42983112,0.8425667,8.54296123386903,1.0771335855424122,jump
10/07/2020, 20:30:04,7.783852,-2.160719,2.4071796,-0.5153089,0.42983112,0.8425667,8.429209533543059,1.0771335855424122,jump
10/07/2020, 20:30:04,7.783852,-2.160719,2.4071796,-0.4383789,0.37732336,0.73633003,8.429209533543059,0.9363390914588995,jump
10/07/2020, 20:30:04,7.728817,-2.0961127,2.3712873,-0.4383789,0.37732336,0.73633003,8.351724627292409,0.9363390914588995,jump
10/07/2020, 20:30:04,7.728817,-2.0961127,2.3712873,-0.3712178,0.3174889,0.62765115,8.351724627292409,0.7953287528685973,jump
10/07/2020, 20:30:04,7.690532,-2.0147567,2.3186452,-0.3712178,0.3174889,0.62765115,8.281282862933757,0.7953287528685973,jump
10/07/2020, 20:30:04,7.690532,-2.0147567,2.3186452,-0.30894113,0.25765446,0.5189722,8.281282862933757,0.6566297299249917,jump
10/07/2020, 20:30:04,7.702496,-1.9716859,2.2707887,-0.30894113,0.25765446,0.5189722,8.268764831841448,0.6566297299249917,jump
10/07/2020, 20:30:04,7.702496,-1.9716859,2.2707887,-0.2613178,0.2075889,0.41273558,8.268764831841448,0.5307831921761025,jump
10/07/2020, 20:30:04,7.7120676,-1.9453648,2.1894326,-0.2613178,0.2075889,0.41273558,8.249487636488427,0.5307831921761025,jump
10/07/2020, 20:30:04,7.7120676,-1.9453648,2.1894326,-0.21247335,0.15141778,0.29306668,8.249487636488427,0.39237781011589795,jump
10/07/2020, 20:30:04,7.7910304,-1.9716859,2.1415763,-0.21247335,0.15141778,0.29306668,8.317093785876224,0.39237781011589795,jump
10/07/2020, 20:30:04,7.7910304,-1.9716859,2.1415763,-0.16851334,0.09646778,0.1746189,8.317093785876224,0.26114084143406413,jump
10/07/2020, 20:30:04,7.867601,-1.9525433,2.1008983,-0.16851334,0.09646778,0.1746189,8.374087586262242,0.26114084143406413,jump
10/07/2020, 20:30:04,7.867601,-1.9525433,2.1008983,-0.12577444,0.04396,0.051286668,8.374087586262242,0.1427655929754066,jump
10/07/2020, 20:30:04,7.9369926,-1.9357935,2.0817556,-0.12577444,0.04396,0.051286668,8.43070906484768,0.1427655929754066,jump
10/07/2020, 20:30:05,7.6833534,-5.7140603,2.4598217,-0.72411895,-2.3994834,-6.711227,9.886107819917717,7.163967900751195,jump
10/07/2020, 20:30:05,8.480164,-5.087141,2.6536403,-0.72411895,-2.3994834,-6.711227,10.238846852039046,7.163967900751195,jump
10/07/2020, 20:30:05,8.480164,-5.087141,2.6536403,-0.3614489,-2.4776344,-7.1581535,10.238846852039046,7.583434558369511,jump
10/07/2020, 20:30:05,8.9826565,-4.328616,2.696711,-0.3614489,-2.4776344,-7.1581535,10.329437820333055,7.583434558369511,jump
10/07/2020, 20:30:05,8.9826565,-4.328616,2.696711,-0.08059334,-2.5655546,-7.513497,10.329437820333055,7.939848933751552,jump
10/07/2020, 20:30:05,9.410972,-3.830909,2.6368906,-0.08059334,-2.5655546,-7.513497,10.497401745597626,7.939848933751552,jump
10/07/2020, 20:30:05,9.410972,-3.830909,2.6368906,0.14287001,-2.6864445,-7.6551456,10.497401745597626,8.11410197445968,jump
10/07/2020, 20:30:05,10.18146,-3.7064822,2.5148566,0.14287001,-2.6864445,-7.6551456,11.123158237421404,8.11410197445968,jump
10/07/2020, 20:30:05,10.18146,-3.7064822,2.5148566,0.35656446,-2.8952546,-7.6832314,11.123158237421404,8.218374627578013,jump
10/07/2020, 20:30:05,11.382657,-3.830909,2.3377876,0.35656446,-2.8952546,-7.6832314,12.235440180422897,8.218374627578013,jump
10/07/2020, 20:30:05,11.382657,-3.830909,2.3377876,0.59346,-3.1834369,-7.7369604,12.235440180422897,8.38731312821965,jump
10/07/2020, 20:30:05,13.177275,-4.082155,2.1678972,0.59346,-3.1834369,-7.7369604,13.964395379053618,8.38731312821965,jump
10/07/2020, 20:30:05,13.177275,-4.082155,2.1678972,0.7986067,-3.480167,-7.8578506,13.964395379053618,8.631057274667153,jump
10/07/2020, 20:30:05,15.3906355,-4.304688,2.1678972,0.7986067,-3.480167,-7.8578506,16.127671181931373,8.631057274667153,jump
10/07/2020, 20:30:05,15.3906355,-4.304688,2.1678972,0.8853056,-3.7463691,-7.998278,16.127671181931373,8.87645767220728,jump
10/07/2020, 20:30:05,17.898314,-4.5415773,2.292324,0.8853056,-3.7463691,-7.998278,18.60726474514533,8.87645767220728,jump
10/07/2020, 20:30:05,17.898314,-4.5415773,2.292324,0.86576784,-3.7732334,-8.203424,18.60726474514533,9.070998683122916,jump
10/07/2020, 20:30:05,20.76013,-4.725825,2.845066,0.86576784,-3.7732334,-8.203424,21.480475226333606,9.070998683122916,jump
10/07/2020, 20:30:05,20.76013,-4.725825,2.845066,0.9182756,-3.4752824,-8.4537525,21.480475226333606,9.186226084260122,jump
10/07/2020, 20:30:05,23.538197,-5.3216376,3.9218364,0.9182756,-3.4752824,-8.4537525,24.44887165298059,9.186226084260122,jump
10/07/2020, 20:30:06,10.432707,-6.3864436,5.7858453,1.1527289,-0.6569578,-3.3812568,13.531594122961025,3.6322548347019703,jump
10/07/2020, 20:30:06,11.504691,-8.807981,6.788438,1.1527289,-0.6569578,-3.3812568,16.000666466054135,3.6322548347019703,jump
10/07/2020, 20:30:06,11.504691,-8.807981,6.788438,2.1918945,-0.59346,-3.162678,16.000666466054135,3.8934725616253667,jump
10/07/2020, 20:30:06,12.203396,-10.013963,7.355537,2.1918945,-0.59346,-3.162678,17.415689582297976,3.8934725616253667,jump
10/07/2020, 20:30:06,12.203396,-10.013963,7.355537,3.1822157,-0.5250778,-3.0149236,17.415689582297976,4.414970845511063,jump
10/07/2020, 20:30:06,12.35175,-10.023534,7.3579297,3.1822157,-0.5250778,-3.0149236,17.526439944478067,4.414970845511063,jump
10/07/2020, 20:30:06,12.35175,-10.023534,7.3579297,3.9564002,-0.49577114,-2.8488524,17.526439944478067,4.900494994583893,jump
10/07/2020, 20:30:06,12.19861,-9.288938,7.0372915,3.9564002,-0.49577114,-2.8488524,16.87050463323703,4.900494994583893,jump
10/07/2020, 20:30:06,12.19861,-9.288938,7.0372915,4.555966,-0.5800278,-2.6302733,16.87050463323703,5.292598172030059,jump
10/07/2020, 20:30:06,12.239287,-8.327023,6.4845495,4.555966,-0.5800278,-2.6302733,16.161337895741656,5.292598172030059,jump
10/07/2020, 20:30:06,12.239287,-8.327023,6.4845495,5.157974,-0.71923447,-2.3311012,16.161337895741656,5.705788665846487,jump
10/07/2020, 20:30:06,12.870993,-7.460821,6.04427,5.157974,-0.71923447,-2.3311012,16.058004378656474,5.705788665846487,jump
10/07/2020, 20:30:06,12.870993,-7.460821,6.04427,5.6061215,-0.78395337,-1.9647678,16.058004378656474,5.991952450408326,jump
10/07/2020, 20:30:06,13.880764,-6.34098,5.802595,5.6061215,-0.78395337,-1.9647678,16.326473832631816,5.991952450408326,jump
10/07/2020, 20:30:06,13.880764,-6.34098,5.802595,5.5841413,-0.6032289,-1.5972134,16.326473832631816,5.8393158240075165,jump
10/07/2020, 20:30:06,14.864214,-4.9770713,5.95095,5.5841413,-0.6032289,-1.5972134,16.76692882948122,5.8393158240075165,jump
10/07/2020, 20:30:06,14.864214,-4.9770713,5.95095,4.955269,-0.098910004,-1.1698245,16.76692882948122,5.092441651975375,jump
10/07/2020, 20:30:06,15.136996,-3.7974095,6.276374,4.955269,-0.098910004,-1.1698245,16.820875247674916,5.092441651975375,jump
10/07/2020, 20:30:06,15.136996,-3.7974095,6.276374,3.7585802,0.5653745,-0.6056711,16.820875247674916,3.848819427753141,jump
10/07/2020, 20:30:06,14.404793,-3.0867412,6.8745794,3.7585802,0.5653745,-0.6056711,16.256871434046744,3.848819427753141,jump
10/07/2020, 20:30:07,8.88455,2.5268207,4.792824,-1.9647678,-0.34313223,0.78273225,10.406306401692833,2.1425970362809497,jump
10/07/2020, 20:30:07,8.88455,2.5268207,4.792824,-2.68156,-0.26009667,0.92438114,10.406306401692833,2.848314415426288,jump
10/07/2020, 20:30:07,9.008977,1.3447664,4.2161536,-2.68156,-0.26009667,0.92438114,10.037231361961608,2.848314415426288,jump
10/07/2020, 20:30:07,9.008977,1.3447664,4.2161536,-3.185879,-0.1746189,1.1222012,10.037231361961608,3.38225549822724,jump
10/07/2020, 20:30:07,9.293723,0.1268196,3.8213377,-3.185879,-0.1746189,1.1222012,10.049477310019402,3.38225549822724,jump
10/07/2020, 20:30:07,9.293723,0.1268196,3.8213377,-3.5082524,-0.07204556,1.350549,10.049477310019402,3.759921261746224,jump
10/07/2020, 20:30:07,9.58804,-0.85902333,3.644269,-3.5082524,-0.07204556,1.350549,10.293159638482116,3.759921261746224,jump
10/07/2020, 20:30:07,9.58804,-0.85902333,3.644269,-3.69264,0.024422223,1.5092934,10.293159638482116,3.989254790316182,jump
10/07/2020, 20:30:07,9.77468,-1.5888343,3.682554,-3.69264,0.024422223,1.5092934,10.565508515539868,3.989254790316182,jump
10/07/2020, 20:30:07,9.77468,-1.5888343,3.682554,-3.7463691,0.09646778,1.56058,10.565508515539868,4.0595563335421145,jump
10/07/2020, 20:30:07,9.836894,-2.2564318,3.8811584,-3.7463691,0.09646778,1.56058,10.812925550669666,4.0595563335421145,jump
10/07/2020, 20:30:07,9.836894,-2.2564318,3.8811584,-3.6938612,0.17217667,1.4873134,10.812925550669666,3.985769289860104,jump
10/07/2020, 20:30:07,9.868001,-3.0197423,4.180261,-3.6938612,0.17217667,1.4873134,11.13422066607081,3.985769289860104,jump
10/07/2020, 20:30:07,9.868001,-3.0197423,4.180261,-3.5168002,0.2759711,1.3224634,11.13422066607081,3.7673535650748198,jump
10/07/2020, 20:30:07,9.80818,-3.952943,4.5008993,-3.5168002,0.2759711,1.3224634,11.492791034540245,3.7673535650748198,jump
10/07/2020, 20:30:07,9.80818,-3.952943,4.5008993,-3.1895423,0.36999667,1.1344123,11.492791034540245,3.4054322510562884,jump
10/07/2020, 20:30:07,9.597611,-4.9459643,4.735396,-3.1895423,0.36999667,1.1344123,11.789855076944002,3.4054322510562884,jump
10/07/2020, 20:30:07,9.597611,-4.9459643,4.735396,-2.6876657,0.42128336,0.97688895,11.789855076944002,2.890560261020413,jump
10/07/2020, 20:30:07,9.221938,-5.757131,4.816752,-2.6876657,0.42128336,0.97688895,11.890744335285634,2.890560261020413,jump
10/07/2020, 20:30:07,9.221938,-5.757131,4.816752,-2.0392556,0.42128336,0.85111445,11.890744335285634,2.2495419451665315,jump
10/07/2020, 20:30:08,16.431513,-6.71426,12.899707,-6.2337723,3.4032369,5.612227,21.942614685781052,9.052017977371655,jump
10/07/2020, 20:30:08,17.946169,-9.611969,12.4115715,-6.2337723,3.4032369,5.612227,23.84328067362532,9.052017977371655,jump
10/07/2020, 20:30:08,17.946169,-9.611969,12.4115715,-5.513317,3.5058103,5.4656935,23.84328067362532,8.518284819687585,jump
10/07/2020, 20:30:08,18.893728,-11.58844,11.602797,-5.513317,3.5058103,5.4656935,25.017789582261504,8.518284819687585,jump
10/07/2020, 20:30:08,18.893728,-11.58844,11.602797,-4.503458,3.4557445,5.1665215,25.017789582261504,7.6756920969717175,jump
10/07/2020, 20:30:08,19.135403,-12.212967,11.042876,-4.503458,3.4557445,5.1665215,25.24411441106568,7.6756920969717175,jump
10/07/2020, 20:30:08,19.135403,-12.212967,11.042876,-3.5509913,3.3739302,5.1921644,25.24411441106568,7.1380330390519156,jump
10/07/2020, 20:30:08,19.030119,-12.026326,10.526027,-3.5509913,3.3739302,5.1921644,24.851060077268897,7.1380330390519156,jump
10/07/2020, 20:30:08,19.030119,-12.026326,10.526027,-2.9367723,3.4093423,5.5438447,24.851060077268897,7.140200327348967,jump
10/07/2020, 20:30:08,19.085154,-11.650654,10.119247,-2.9367723,3.4093423,5.5438447,24.54343070399035,7.140200327348967,jump
10/07/2020, 20:30:08,19.085154,-11.650654,10.119247,-2.5899768,3.5204635,5.908957,24.54343070399035,7.349654118507902,jump
10/07/2020, 20:30:08,19.269402,-11.322837,9.41815,-2.5899768,3.5204635,5.908957,24.253206375040406,7.349654118507902,jump
10/07/2020, 20:30:08,19.269402,-11.322837,9.41815,-2.2553923,3.590067,6.0347314,24.253206375040406,7.375185274198076,jump
10/07/2020, 20:30:08,19.35315,-11.073983,8.575876,-2.2553923,3.590067,6.0347314,23.889812665738773,7.375185274198076,jump
10/07/2020, 20:30:08,19.35315,-11.073983,8.575876,-1.7840434,3.6828713,5.9785604,23.889812665738773,7.24496634298411,jump
10/07/2020, 20:30:08,18.91287,-10.719846,7.812566,-1.7840434,3.6828713,5.9785604,23.100821302311648,7.24496634298411,jump
10/07/2020, 20:30:08,18.91287,-10.719846,7.812566,-1.3493278,3.8611536,5.9346004,23.100821302311648,7.207542855549706,jump
10/07/2020, 20:30:08,18.013168,-10.466207,7.3100734,-1.3493278,3.8611536,5.9346004,22.078335213089975,7.207542855549706,jump
10/07/2020, 20:30:08,18.013168,-10.466207,7.3100734,-1.2076789,4.008908,6.009088,22.078335213089975,7.323862992516864,jump
10/07/2020, 20:30:08,16.902899,-10.41835,6.9009004,-1.2076789,4.008908,6.009088,21.020761988717585,7.323862992516864,jump
10/07/2020, 20:30:09,8.480164,-5.367101,5.245067,0.23689556,0.47501224,0.5519422,11.323854403199398,0.7657652134836798,jump
10/07/2020, 20:30:09,8.480164,-5.367101,5.245067,0.44692668,0.5653745,0.5104245,11.323854403199398,0.883133592946856,jump
10/07/2020, 20:30:09,8.295917,-4.613362,5.046463,0.44692668,0.5653745,0.5104245,10.750447799484744,0.883133592946856,jump
10/07/2020, 20:30:09,8.295917,-4.613362,5.046463,0.61544,0.63009334,0.46158,10.750447799484744,0.9944044063695551,jump
10/07/2020, 20:30:09,8.238488,-4.0103707,4.898108,0.61544,0.63009334,0.46158,10.389765310831846,0.9944044063695551,jump
10/07/2020, 20:30:09,8.238488,-4.0103707,4.898108,0.7436567,0.6569578,0.43349445,10.389765310831846,1.082837141323779,jump
10/07/2020, 20:30:09,8.312666,-3.505485,4.7425747,0.7436567,0.6569578,0.43349445,10.192195799563036,1.082837141323779,jump
10/07/2020, 20:30:09,8.312666,-3.505485,4.7425747,0.82791334,0.66306335,0.41762,10.192195799563036,1.1399561284083897,jump
10/07/2020, 20:30:09,8.41795,-3.0460632,4.6301117,0.82791334,0.66306335,0.41762,10.078606648925248,1.1399561284083897,jump
10/07/2020, 20:30:09,8.41795,-3.0460632,4.6301117,0.8498934,0.67283225,0.41273558,10.078606648925248,1.1599020104660847,jump
10/07/2020, 20:30:09,8.575876,-2.5316064,4.5152564,0.8498934,0.67283225,0.41273558,10.017096623372346,1.1599020104660847,jump
10/07/2020, 20:30:09,8.575876,-2.5316064,4.5152564,0.78029,0.7131289,0.4249467,10.017096623372346,1.1392914696390066,jump
10/07/2020, 20:30:09,8.743374,-2.036292,4.3405805,0.78029,0.7131289,0.4249467,9.971645341869067,1.1392914696390066,jump
10/07/2020, 20:30:09,8.743374,-2.036292,4.3405805,0.6142189,0.7778478,0.44692668,9.971645341869067,1.0872237796139883,jump
10/07/2020, 20:30:09,8.920443,-1.591227,4.168297,0.6142189,0.7778478,0.44692668,9.97401612755158,1.0872237796139883,jump
10/07/2020, 20:30:09,8.920443,-1.591227,4.168297,0.34435335,0.8498934,0.47623336,9.97401612755158,1.0332938695063605,jump
10/07/2020, 20:30:09,9.075976,-1.1916257,3.9146578,0.34435335,0.8498934,0.47623336,9.95579554225266,1.0332938695063605,jump
10/07/2020, 20:30:09,9.075976,-1.1916257,3.9146578,-0.01099,0.8999589,0.5140878,9.95579554225266,1.036500400102815,jump
10/07/2020, 20:30:09,9.23151,-0.9164511,3.7088752,-0.01099,0.8999589,0.5140878,9.990816662592458,1.036500400102815,jump
10/07/2020, 20:30:09,9.23151,-0.9164511,3.7088752,-0.41395667,0.9524667,0.56659555,9.990816662592458,1.1830399457247194,jump
10/07/2020, 20:30:10,12.792029,-7.487142,3.8117664,-0.9720045,3.955179,5.83569,15.304341713294292,7.116425468998206,jump
10/07/2020, 20:30:10,12.062219,-6.3194447,3.117848,-0.9720045,3.955179,5.83569,13.969734269559476,7.116425468998206,jump
10/07/2020, 20:30:10,12.062219,-6.3194447,3.117848,-0.9854367,3.93442,5.72579,13.969734269559476,7.016795453438626,jump
10/07/2020, 20:30:10,11.073983,-5.276174,2.4478576,-0.9854367,3.93442,5.72579,12.508522033667623,7.016795453438626,jump
10/07/2020, 20:30:10,11.073983,-5.276174,2.4478576,-0.9964267,3.867259,5.6427546,12.508522033667623,6.9129760239400575,jump
10/07/2020, 20:30:10,9.95175,-4.536792,1.8664017,-0.9964267,3.867259,5.6427546,11.0951908125406,6.9129760239400575,jump
10/07/2020, 20:30:10,9.95175,-4.536792,1.8664017,-0.9829945,3.7304945,5.6000156,11.0951908125406,6.800223714006501,jump
10/07/2020, 20:30:10,8.882157,-4.139583,1.3998013,-0.9829945,3.7304945,5.6000156,9.898904517270562,6.800223714006501,jump
10/07/2020, 20:30:10,8.882157,-4.139583,1.3998013,-0.8999589,3.5204635,5.5572767,9.898904517270562,6.639797712569572,jump
10/07/2020, 20:30:10,7.9633136,-3.735196,0.97866446,-0.8999589,3.5204635,5.5572767,8.850075553027905,6.639797712569572,jump
10/07/2020, 20:30:10,7.9633136,-3.735196,0.97866446,-0.75098336,3.2908945,5.4473767,8.850075553027905,6.408422261812062,jump
10/07/2020, 20:30:10,7.200003,-3.141776,0.715454,-0.75098336,3.2908945,5.4473767,7.888135184384675,6.408422261812062,jump
10/07/2020, 20:30:10,7.200003,-3.141776,0.715454,-0.56049,3.0955167,5.2690945,7.888135184384675,6.13675232383824,jump
10/07/2020, 20:30:10,6.5515485,-2.629712,0.5288138,-0.56049,3.0955167,5.2690945,7.07939384877567,6.13675232383824,jump
10/07/2020, 20:30:10,6.5515485,-2.629712,0.5288138,-0.41762,2.9245613,5.0700536,7.07939384877567,5.867956059906105,jump
10/07/2020, 20:30:10,5.8432727,-2.1128623,0.2727818,-0.41762,2.9245613,5.0700536,6.219520310404242,5.867956059906105,jump
10/07/2020, 20:30:10,5.8432727,-2.1128623,0.2727818,-0.36877558,2.7511635,4.8612437,6.219520310404242,5.597909117358062,jump
10/07/2020, 20:30:10,5.1014977,-1.4045869,0.0023928226,-0.36877558,2.7511635,4.8612437,5.291327658647574,5.597909117358062,jump
10/07/2020, 20:30:10,5.1014977,-1.4045869,0.0023928226,-0.35778558,2.5997458,4.65976,5.291327658647574,5.347901619504349,jump
10/07/2020, 20:30:10,4.261617,-0.65084773,-0.086141616,-0.35778558,2.5997458,4.65976,4.311891020177284,5.347901619504349,jump
10/07/2020, 20:30:11,10.865808,-2.0602202,6.058627,-2.3909357,-0.13310112,1.3896245,12.610203942721922,2.768636021804825,jump
10/07/2020, 20:30:11,10.844273,-3.17049,6.5778694,-2.3909357,-0.13310112,1.3896245,13.073584878255318,2.768636021804825,jump
10/07/2020, 20:30:11,10.844273,-3.17049,6.5778694,-2.2126534,-0.02198,1.2894934,13.073584878255318,2.5610762421813864,jump
10/07/2020, 20:30:11,10.782059,-4.2664027,6.975078,-2.2126534,-0.02198,1.2894934,13.531692315316086,2.5610762421813864,jump
10/07/2020, 20:30:11,10.782059,-4.2664027,6.975078,-1.845099,0.06105556,1.1661612,13.531692315316086,2.1835864754335765,jump
10/07/2020, 20:30:11,10.597812,-5.1661043,7.1186476,-1.845099,0.06105556,1.1661612,13.772341482813113,2.1835864754335765,jump
10/07/2020, 20:30:11,10.597812,-5.1661043,7.1186476,-1.3029256,0.10379445,1.0391656,13.772341482813113,1.6698064407232338,jump
10/07/2020, 20:30:11,10.236495,-5.6470613,7.0612197,-1.3029256,0.10379445,1.0391656,13.657816650666701,1.6698064407232338,jump
10/07/2020, 20:30:11,10.236495,-5.6470613,7.0612197,-0.67283225,0.106236674,0.9194967,13.657816650666701,1.1443179966000454,jump
10/07/2020, 20:30:11,9.707682,-5.7284174,6.814759,-0.67283225,0.106236674,0.9194967,13.171741957621014,1.1443179966000454,jump
10/07/2020, 20:30:11,9.707682,-5.7284174,6.814759,-0.054950003,0.106236674,0.8218078,13.171741957621014,0.8304660117288102,jump
10/07/2020, 20:30:11,9.135797,-5.424529,6.5084777,-0.054950003,0.106236674,0.8218078,12.45987865319474,0.8304660117288102,jump
10/07/2020, 20:30:11,9.135797,-5.424529,6.5084777,0.47867557,0.12699556,0.75831,12.45987865319474,0.9056998756448164,jump
10/07/2020, 20:30:11,8.504091,-4.900501,6.1591253,0.47867557,0.12699556,0.75831,11.587463089600748,0.9056998756448164,jump
10/07/2020, 20:30:11,8.504091,-4.900501,6.1591253,0.9048434,0.14409111,0.7106867,11.587463089600748,1.1595599906769256,jump
10/07/2020, 20:30:11,7.989635,-4.287938,5.761917,0.9048434,0.14409111,0.7106867,10.743387241447797,1.1595599906769256,jump
10/07/2020, 20:30:11,7.989635,-4.287938,5.761917,1.2076789,0.13554333,0.6667267,10.743387241447797,1.3861402735347177,jump
10/07/2020, 20:30:11,7.6666036,-3.6490545,5.410172,1.2076789,0.13554333,0.6667267,10.067888064699613,1.3861402735347177,jump
10/07/2020, 20:30:11,7.6666036,-3.6490545,5.410172,1.4128256,0.11966889,0.6105556,10.067888064699613,1.543753511265842,jump
10/07/2020, 20:30:11,7.597212,-3.141776,5.1852465,1.4128256,0.11966889,0.6105556,9.71983362024462,1.543753511265842,jump
10/07/2020, 20:30:12,2.7684958,-0.7393822,-0.6149554,0.06105556,2.7743645,3.82452,2.9307721180310273,4.72522804548264,jump
10/07/2020, 20:30:12,2.1080768,-0.31345975,-0.68195444,0.06105556,2.7743645,3.82452,2.2377012134570307,4.72522804548264,jump
10/07/2020, 20:30:12,2.1080768,-0.31345975,-0.68195444,0.19537778,2.5081623,3.515579,2.2377012134570307,4.323001966428086,jump
10/07/2020, 20:30:12,1.5553347,0.3278167,-0.80877405,0.19537778,2.5081623,3.515579,1.7834363586401236,4.323001966428086,jump
10/07/2020, 20:30:12,1.5553347,0.3278167,-0.80877405,0.22468445,2.2688246,3.2225122,1.7834363586401236,3.9474844184332696,jump
10/07/2020, 20:30:12,1.1006985,1.1174482,-0.9810573,0.22468445,2.2688246,3.2225122,1.8500543307633108,3.9474844184332696,jump
10/07/2020, 20:30:12,1.1006985,1.1174482,-0.9810573,0.10501556,2.0722256,2.9147923,1.8500543307633108,3.5778710473843223,jump
10/07/2020, 20:30:12,0.7537391,1.8951155,-1.146162,0.10501556,2.0722256,2.9147923,2.339502682902241,3.5778710473843223,jump
10/07/2020, 20:30:12,0.7537391,1.8951155,-1.146162,-0.15508112,1.9085968,2.5850923,2.339502682902241,3.217062939337295,jump
10/07/2020, 20:30:12,0.3900301,2.4789643,-1.2897314,-0.15508112,1.9085968,2.5850923,2.82148802096347,3.217062939337295,jump
10/07/2020, 20:30:12,0.3900301,2.4789643,-1.2897314,-0.50676113,1.7693901,2.2566135,2.82148802096347,2.9120186557020484,jump
10/07/2020, 20:30:12,0.038285162,2.7996025,-1.5457634,-0.50676113,1.7693901,2.2566135,3.1982220632674676,2.9120186557020484,jump
10/07/2020, 20:30:12,0.038285162,2.7996025,-1.5457634,-0.8535567,1.6045401,1.9061545,3.1982220632674676,2.633729868400972,jump
10/07/2020, 20:30:12,-0.4354937,2.8091738,-1.8903298,-0.8535567,1.6045401,1.9061545,3.413862801806219,2.633729868400972,jump
10/07/2020, 20:30:12,-0.4354937,2.8091738,-1.8903298,-1.0843467,1.39573,1.5666857,3.413862801806219,2.3618581574303126,jump
10/07/2020, 20:30:12,-1.012164,2.778067,-2.0602202,-1.0843467,1.39573,1.5666857,3.603698139202392,2.3618581574303126,jump
10/07/2020, 20:30:12,-1.012164,2.778067,-2.0602202,-1.16494,1.174709,1.1893623,3.603698139202392,2.0375497540031766,jump
10/07/2020, 20:30:12,-1.727618,2.7038896,-2.1894326,-1.16494,1.174709,1.1893623,3.8844945743000854,2.0375497540031766,jump
10/07/2020, 20:30:12,-1.727618,2.7038896,-2.1894326,-1.1173167,0.92560226,0.75953114,3.8844945743000854,1.6376885390578118,jump
10/07/2020, 20:30:12,-2.4526432,2.6416762,-2.2564318,-1.1173167,0.92560226,0.75953114,4.252692803381509,1.6376885390578118,jump
10/07/2020, 20:30:13,11.286944,-2.009971,3.3762727,-1.5215045,1.5740123,1.8328879,11.951331050530374,2.8551652621888755,jump
10/07/2020, 20:30:13,11.102697,-2.0267208,3.4193435,-1.5215045,1.5740123,1.8328879,11.792768791438696,2.8551652621888755,jump
10/07/2020, 20:30:13,11.102697,-2.0267208,3.4193435,-1.4726601,1.5202833,1.9891901,11.792768791438696,2.9046284383227396,jump
10/07/2020, 20:30:13,11.004591,-2.0434706,3.4121652,-1.4726601,1.5202833,1.9891901,11.701267713751836,2.9046284383227396,jump
10/07/2020, 20:30:13,11.004591,-2.0434706,3.4121652,-1.4238156,1.4665545,2.129618,11.701267713751836,2.9518308858458235,jump
10/07/2020, 20:30:13,11.083554,-2.0291135,3.37388,-1.4238156,1.4665545,2.129618,11.762038198164898,2.9518308858458235,jump
10/07/2020, 20:30:13,11.083554,-2.0291135,3.37388,-1.3798556,1.4372479,2.262719,11.762038198164898,3.0148930174140345,jump
10/07/2020, 20:30:13,11.181661,-1.9740787,3.2853456,-1.3798556,1.4372479,2.262719,11.820322199020739,3.0148930174140345,jump
10/07/2020, 20:30:13,11.181661,-1.9740787,3.2853456,-1.3615389,1.4409112,2.3677344,11.820322199020739,3.0880705129969828,jump
10/07/2020, 20:30:13,11.267802,-1.8975084,3.1944182,-1.3615389,1.4409112,2.3677344,11.864578076473363,3.0880705129969828,jump
10/07/2020, 20:30:13,11.267802,-1.8975084,3.1944182,-1.3700867,1.4567856,2.4446645,11.864578076473363,3.1584404476555066,jump
10/07/2020, 20:30:13,11.243874,-1.8329022,3.0987053,-1.3700867,1.4567856,2.4446645,11.806193221423934,3.1584404476555066,jump
10/07/2020, 20:30:13,11.243874,-1.8329022,3.0987053,-1.3822979,1.4653333,2.4910667,11.806193221423934,3.203648309524499,jump
10/07/2020, 20:30:13,11.131411,-1.8329022,3.0197423,-1.3822979,1.4653333,2.4910667,11.6784706030601,3.203648309524499,jump
10/07/2020, 20:30:13,11.131411,-1.8329022,3.0197423,-1.3896245,1.4421322,2.5008357,11.6784706030601,3.2039008335805708,jump
10/07/2020, 20:30:13,10.908878,-1.847259,2.9886355,-1.3896245,1.4421322,2.5008357,11.460712661505053,3.2039008335805708,jump
10/07/2020, 20:30:13,10.908878,-1.847259,2.9886355,-1.3847401,1.3993934,2.4776344,11.460712661505053,3.164566249934844,jump
10/07/2020, 20:30:13,10.667203,-1.8855443,2.9216363,-1.3847401,1.3993934,2.4776344,11.219645938916505,3.164566249934844,jump
10/07/2020, 20:30:13,10.667203,-1.8855443,2.9216363,-1.350549,1.3383378,2.426348,11.219645938916505,3.082579283890344,jump
10/07/2020, 20:30:13,10.389636,-1.9262222,2.8929226,-1.350549,1.3383378,2.426348,10.955540626638868,3.082579283890344,jump
10/07/2020, 20:30:14,6.8578296,-3.6514473,0.8111669,0.20270446,2.2822568,5.272758,7.811586617936655,5.749066218968031,jump
10/07/2020, 20:30:14,6.2524457,-2.9096723,0.74895346,0.20270446,2.2822568,5.272758,6.936872577302014,5.749066218968031,jump
10/07/2020, 20:30:14,6.2524457,-2.9096723,0.74895346,0.38220778,2.16503,5.0700536,6.936872577302014,5.526199505807607,jump
10/07/2020, 20:30:14,5.656633,-2.347359,0.6987042,0.38220778,2.16503,5.0700536,6.1640714877648906,5.526199505807607,jump
10/07/2020, 20:30:14,5.656633,-2.347359,0.6987042,0.46402225,2.0563512,4.847811,6.1640714877648906,5.28631918142056,jump
10/07/2020, 20:30:14,4.9866424,-1.7587247,0.53359944,0.46402225,2.0563512,4.847811,5.314550115033403,5.28631918142056,jump
10/07/2020, 20:30:14,4.9866424,-1.7587247,0.53359944,0.44692668,1.9379034,4.5974836,5.314550115033403,5.009198422693516,jump
10/07/2020, 20:30:14,4.362116,-1.1413764,0.45702913,0.44692668,1.9379034,4.5974836,4.53207131865007,5.009198422693516,jump
10/07/2020, 20:30:14,4.362116,-1.1413764,0.45702913,0.38709223,1.84632,4.350819,4.53207131865007,4.7421898946228325,jump
10/07/2020, 20:30:14,3.67059,-0.5886344,0.4642076,0.38709223,1.84632,4.350819,3.746359499435902,4.7421898946228325,jump
10/07/2020, 20:30:14,3.67059,-0.5886344,0.4642076,0.2625389,1.7510734,4.107818,3.746359499435902,4.473181681391845,jump
10/07/2020, 20:30:14,2.8689942,-0.1363909,0.3804588,0.2625389,1.7510734,4.107818,2.8973227818642,4.473181681391845,jump
10/07/2020, 20:30:14,2.8689942,-0.1363909,0.3804588,0.07326667,1.5996556,3.8294046,2.8973227818642,4.150735557339463,jump
10/07/2020, 20:30:14,2.0673988,0.4354937,0.25842485,0.07326667,1.5996556,3.8294046,2.128514955137469,4.150735557339463,jump
10/07/2020, 20:30:14,2.0673988,0.4354937,0.25842485,-0.10379445,1.4201523,3.5265691,2.128514955137469,3.8031954559409886,jump
10/07/2020, 20:30:14,1.2897314,1.1078769,0.22013968,-0.10379445,1.4201523,3.5265691,1.7144269419961324,3.8031954559409886,jump
10/07/2020, 20:30:14,1.2897314,1.1078769,0.22013968,-0.26498112,1.24187,3.2054167,1.7144269419961324,3.4477749771654667,jump
10/07/2020, 20:30:14,0.58624154,1.7611175,0.24646074,-0.26498112,1.24187,3.2054167,1.8724200232466222,3.4477749771654667,jump
10/07/2020, 20:30:14,0.58624154,1.7611175,0.24646074,-0.46646446,1.0232911,2.9086869,1.8724200232466222,3.1185209851024984,jump
10/07/2020, 20:30:14,0.0023928226,2.1702902,0.3589234,-0.46646446,1.0232911,2.9086869,2.1997707667808,3.1185209851024984,jump
10/07/2020, 20:30:15,10.152746,-2.0841484,2.6249263,0.12943779,0.5030978,1.0916734,10.69168687468125,1.2089715736867013,jump
10/07/2020, 20:30:15,10.152746,-2.0841484,2.6249263,-0.0061055557,0.53851,1.0318389,10.69168687468125,1.1639251811406972,jump
10/07/2020, 20:30:15,9.755538,-2.012364,2.5339992,-0.0061055557,0.53851,1.0318389,10.278194485857346,1.1639251811406972,jump
10/07/2020, 20:30:15,9.755538,-2.012364,2.5339992,-0.16729222,0.50676113,1.01108,10.278194485857346,1.1432744003569721,jump
10/07/2020, 20:30:15,9.339187,-2.0817556,2.4454648,-0.16729222,0.50676113,1.01108,9.875951219705568,1.1432744003569721,jump
10/07/2020, 20:30:15,9.339187,-2.0817556,2.4454648,-0.30772,0.4273889,0.99032116,9.875951219705568,1.12164561152591,jump
10/07/2020, 20:30:15,9.114262,-2.213361,2.3569303,-0.30772,0.4273889,0.99032116,9.670773095594987,1.12164561152591,jump
10/07/2020, 20:30:15,9.114262,-2.213361,2.3569303,-0.39197668,0.34557447,0.9304867,9.670773095594987,1.0671798790232097,jump
10/07/2020, 20:30:15,9.056833,-2.3976083,2.3186452,-0.39197668,0.34557447,0.9304867,9.651469838270081,1.0671798790232097,jump
10/07/2020, 20:30:15,9.056833,-2.3976083,2.3186452,-0.4249467,0.2942878,0.8401245,9.651469838270081,0.9864046628520056,jump
10/07/2020, 20:30:15,9.016156,-2.4526432,2.306681,-0.4249467,0.2942878,0.8401245,9.62430817610164,0.9864046628520056,jump
10/07/2020, 20:30:15,9.016156,-2.4526432,2.306681,-0.4249467,0.27841336,0.7338878,9.62430817610164,0.8925721154164437,jump
10/07/2020, 20:30:15,8.817552,-2.416751,2.3114667,-0.4249467,0.27841336,0.7338878,9.430417788893443,0.8925721154164437,jump
10/07/2020, 20:30:15,8.817552,-2.416751,2.3114667,-0.43960002,0.25643334,0.6337567,9.430417788893443,0.8128061184384769,jump
10/07/2020, 20:30:15,8.446664,-2.3282163,2.251646,-0.43960002,0.25643334,0.6337567,9.046360119347797,0.8128061184384769,jump
10/07/2020, 20:30:15,8.446664,-2.3282163,2.251646,-0.47867557,0.21735778,0.54095227,9.046360119347797,0.754323581088006,jump
10/07/2020, 20:30:15,7.982456,-2.28036,2.1918256,-0.47867557,0.21735778,0.54095227,8.58625345188173,0.754323581088006,jump
10/07/2020, 20:30:15,7.982456,-2.28036,2.1918256,-0.52752,0.1526389,0.4481478,8.58625345188173,0.7088105798992678,jump
10/07/2020, 20:30:15,7.496713,-2.2301106,2.115255,-0.52752,0.1526389,0.4481478,8.10237038941974,0.7088105798992678,jump
10/07/2020, 20:30:15,7.496713,-2.2301106,2.115255,-0.5836911,0.07448778,0.34801668,8.10237038941974,0.6836368645850364,jump
10/07/2020, 20:30:16,1.2179468,-0.73459655,-0.95473623,-0.38953447,-2.3579657,-4.8026304,1.713052157789185,5.364419668461046,jump
10/07/2020, 20:30:16,1.2179468,-0.73459655,-0.95473623,-0.36999667,-2.5277002,-4.999229,1.713052157789185,5.614130021682551,jump
10/07/2020, 20:30:16,1.861616,-0.8853444,-0.91405827,-0.36999667,-2.5277002,-4.999229,2.254983678067101,5.614130021682551,jump
10/07/2020, 20:30:16,1.861616,-0.8853444,-0.91405827,-0.29917222,-2.688887,-5.2263556,2.254983678067101,5.885100597261116,jump
10/07/2020, 20:30:16,2.4215364,-0.7082755,-0.8063812,-0.29917222,-2.688887,-5.2263556,2.6487249041804355,5.885100597261116,jump
10/07/2020, 20:30:16,2.4215364,-0.7082755,-0.8063812,-0.23079,-2.8500733,-5.463251,2.6487249041804355,6.166303170367768,jump
10/07/2020, 20:30:16,2.8378878,-0.4235296,-0.8039884,-0.23079,-2.8500733,-5.463251,2.979829126240825,6.166303170367768,jump
10/07/2020, 20:30:16,2.8378878,-0.4235296,-0.8039884,-0.24178001,-3.0173657,-5.6415334,2.979829126240825,6.402331772490879,jump
10/07/2020, 20:30:16,3.2327034,-0.23928227,-0.8279166,-0.24178001,-3.0173657,-5.6415334,3.345605104341811,6.402331772490879,jump
10/07/2020, 20:30:16,3.2327034,-0.23928227,-0.8279166,-0.31871,-3.17611,-5.764866,3.345605104341811,6.5896076924911355,jump
10/07/2020, 20:30:16,3.694518,-0.21296121,-0.78723866,-0.31871,-3.17611,-5.764866,3.7834588796070774,6.5896076924911355,jump
10/07/2020, 20:30:16,3.694518,-0.21296121,-0.78723866,-0.40663,-3.2982213,-5.8674393,3.7834588796070774,6.743178451119769,jump
10/07/2020, 20:30:16,4.2759743,-0.46660042,-0.5599205,-0.40663,-3.2982213,-5.8674393,4.337647161104077,6.743178451119769,jump
10/07/2020, 20:30:16,4.2759743,-0.46660042,-0.5599205,-0.4261678,-3.3763723,-5.974897,4.337647161104077,6.876110979413118,jump
10/07/2020, 20:30:16,4.979464,-1.1533405,-0.22492532,-0.4261678,-3.3763723,-5.974897,5.116233759489248,6.876110979413118,jump
10/07/2020, 20:30:16,4.979464,-1.1533405,-0.22492532,-0.35656446,-3.4435334,-6.0725856,5.116233759489248,6.990089863073602,jump
10/07/2020, 20:30:16,5.788238,-2.3425734,0.05503492,-0.35656446,-3.4435334,-6.0725856,6.244547918288007,6.990089863073602,jump
10/07/2020, 20:30:16,5.788238,-2.3425734,0.05503492,-0.15386,-3.5216846,-6.162948,6.244547918288007,7.0998496690357,jump
10/07/2020, 20:30:16,6.599405,-3.591627,0.31585258,-0.15386,-3.5216846,-6.162948,7.520085796592406,7.0998496690357,jump
10/07/2020, 20:30:16,6.599405,-3.591627,0.31585258,0.3052778,-3.5815191,-6.2875013,7.520085796592406,7.242454475356235,jump
10/07/2020, 20:30:17,8.961121,-4.1108694,1.3064811,0.81326,-0.5360678,0.09524667,9.945241209604674,0.9786891517383801,jump
10/07/2020, 20:30:17,8.894122,-4.063013,1.3639089,0.81326,-0.5360678,0.09524667,9.87287856025327,0.9786891517383801,jump
10/07/2020, 20:30:17,8.894122,-4.063013,1.3639089,0.6801589,-0.54095227,0.09280445,9.87287856025327,0.873989797285616,jump
10/07/2020, 20:30:17,8.886943,-3.8093736,1.4979069,0.6801589,-0.54095227,0.09280445,9.784314281774694,0.873989797285616,jump
10/07/2020, 20:30:17,8.886943,-3.8093736,1.4979069,0.52019334,-0.55438447,0.07937223,9.784314281774694,0.7643580315013958,jump
10/07/2020, 20:30:17,8.886943,-3.4313076,1.5314065,0.52019334,-0.55438447,0.07937223,9.648669904463606,0.7643580315013958,jump
10/07/2020, 20:30:17,8.886943,-3.4313076,1.5314065,0.30039334,-0.52752,0.068382226,9.648669904463606,0.6108924952158536,jump
10/07/2020, 20:30:17,8.891729,-3.2733815,1.6151553,0.30039334,-0.52752,0.068382226,9.611795043006563,0.6108924952158536,jump
10/07/2020, 20:30:17,8.891729,-3.2733815,1.6151553,0.068382226,-0.45547447,0.09402556,9.611795043006563,0.4700786359326932,jump
10/07/2020, 20:30:17,8.865408,-3.4480574,1.6677973,0.068382226,-0.45547447,0.09402556,9.657437851563014,0.4700786359326932,jump
10/07/2020, 20:30:17,8.865408,-3.4480574,1.6677973,-0.064718895,-0.42250445,0.09768889,9.657437851563014,0.43845372517370607,jump
10/07/2020, 20:30:17,8.829515,-3.65384,1.753939,-0.064718895,-0.42250445,0.09768889,9.715307126315931,0.43845372517370607,jump
10/07/2020, 20:30:17,8.829515,-3.65384,1.753939,-0.036633335,-0.44326335,0.06349778,9.715307126315931,0.4492842849218341,jump
10/07/2020, 20:30:17,8.781659,-3.9050865,1.8879371,-0.036633335,-0.44326335,0.06349778,9.794464972337478,0.4492842849218341,jump
10/07/2020, 20:30:17,8.781659,-3.9050865,1.8879371,0.085477784,-0.47257003,0.05250778,9.794464972337478,0.48310035567083526,jump
10/07/2020, 20:30:17,8.73141,-4.1778684,1.8640088,0.085477784,-0.47257003,0.05250778,9.857313725620672,0.48310035567083526,jump
10/07/2020, 20:30:17,8.73141,-4.1778684,1.8640088,0.18683001,-0.4798967,0.07937223,9.857313725620672,0.5210626084205241,jump
10/07/2020, 20:30:17,8.690732,-4.359723,1.8185452,0.18683001,-0.4798967,0.07937223,9.891567868232798,0.5210626084205241,jump
10/07/2020, 20:30:17,8.690732,-4.359723,1.8185452,0.23323223,-0.49455002,0.10867889,9.891567868232798,0.5574837185948441,jump
10/07/2020, 20:30:17,8.69791,-4.3525443,1.7300107,0.23323223,-0.49455002,0.10867889,9.87882699914513,0.5574837185948441,jump
10/07/2020, 20:30:18,9.712467,-3.2350962,2.4478576,-0.27841336,-0.16362889,0.15508112,10.525676863486414,0.3582437231686439,jump
10/07/2020, 20:30:18,10.238888,-2.737389,2.5004997,-0.27841336,-0.16362889,0.15508112,10.889472944352523,0.3582437231686439,jump
10/07/2020, 20:30:18,10.238888,-2.737389,2.5004997,-0.55316335,-0.018316668,0.08792,10.889472944352523,0.5604062085180282,jump
10/07/2020, 20:30:18,10.683953,-2.2277179,2.4478576,-0.55316335,-0.018316668,0.08792,11.184882281781773,0.5604062085180282,jump
10/07/2020, 20:30:18,10.683953,-2.2277179,2.4478576,-0.9646778,0.17095557,-0.015874445,11.184882281781773,0.979837273650043,jump
10/07/2020, 20:30:18,10.920842,-1.7324036,2.4382863,-0.9646778,0.17095557,-0.015874445,11.323040942176773,0.979837273650043,jump
10/07/2020, 20:30:18,10.920842,-1.7324036,2.4382863,-1.4482379,0.36511225,-0.12821667,11.323040942176773,1.4990461864199915,jump
10/07/2020, 20:30:18,10.966306,-1.3615161,2.4095724,-1.4482379,0.36511225,-0.12821667,11.310155902347303,1.4990461864199915,jump
10/07/2020, 20:30:18,10.966306,-1.3615161,2.4095724,-1.8878379,0.54461557,-0.1856089,11.310155902347303,1.9735725636006387,jump
10/07/2020, 20:30:18,10.951949,-1.282553,2.5914268,-1.8878379,0.54461557,-0.1856089,11.327207278146531,1.9735725636006387,jump
10/07/2020, 20:30:18,10.951949,-1.282553,2.5914268,-2.2688246,0.6838223,-0.22102112,11.327207278146531,2.3799218892701774,jump
10/07/2020, 20:30:18,11.002198,-1.4787644,2.7996025,-2.2688246,0.6838223,-0.22102112,11.448706654336343,2.3799218892701774,jump
10/07/2020, 20:30:18,11.002198,-1.4787644,2.7996025,-2.5399113,0.74732006,-0.25521225,11.448706654336343,2.6598439460696346,jump
10/07/2020, 20:30:18,11.272588,-1.7730815,3.1202407,-2.5399113,0.74732006,-0.25521225,11.830086866802793,2.6598439460696346,jump
10/07/2020, 20:30:18,11.272588,-1.7730815,3.1202407,-2.6192834,0.7485411,-0.30649891,11.830086866802793,2.741331996574445,jump
10/07/2020, 20:30:18,11.813365,-2.0051854,3.4097722,-2.6192834,0.7485411,-0.30649891,12.458045863223392,2.741331996574445,jump
10/07/2020, 20:30:18,11.813365,-2.0051854,3.4097722,-2.48374,0.6984756,-0.35412225,12.458045863223392,2.6042725611766437,jump
10/07/2020, 20:30:18,12.401999,-2.1918256,3.4432719,-2.48374,0.6984756,-0.35412225,13.056408837619,2.6042725611766437,jump
10/07/2020, 20:30:18,12.401999,-2.1918256,3.4432719,-2.2578344,0.6557367,-0.36755446,13.056408837619,2.3796855278732645,jump
10/07/2020, 20:30:18,12.815958,-2.1894326,3.3379877,-2.2578344,0.6557367,-0.36755446,13.423284131628773,2.3796855278732645,jump
10/07/2020, 20:30:19,18.15913,-5.7379885,1.524228,-0.3052778,3.7036302,8.292566,19.105019981386025,9.08717376785802,jump
10/07/2020, 20:30:19,18.15913,-5.7379885,1.524228,0.035412222,3.6560068,8.008047,19.105019981386025,8.803207271246693,jump
10/07/2020, 20:30:19,16.32862,-4.6612186,0.79441714,0.035412222,3.6560068,8.008047,16.99946818815307,8.803207271246693,jump
10/07/2020, 20:30:19,16.32862,-4.6612186,0.79441714,0.48966557,3.5949512,7.752835,16.99946818815307,8.559783498868427,jump
10/07/2020, 20:30:19,14.543576,-3.4911282,0.21535404,0.48966557,3.5949512,7.752835,14.958274077564587,8.559783498868427,jump
10/07/2020, 20:30:19,14.543576,-3.4911282,0.21535404,0.94880337,3.5363379,7.5122757,14.958274077564587,8.3570448941274,jump
10/07/2020, 20:30:19,12.873385,-2.2468605,-0.28235307,0.94880337,3.5363379,7.5122757,13.071042720325686,8.3570448941274,jump
10/07/2020, 20:30:19,12.873385,-2.2468605,-0.28235307,1.2931567,3.4679556,7.274159,13.071042720325686,8.16163946940177,jump
10/07/2020, 20:30:19,11.241481,-1.1964114,-0.66759753,1.2931567,3.4679556,7.274159,11.32466237137204,8.16163946940177,jump
10/07/2020, 20:30:19,11.241481,-1.1964114,-0.66759753,1.4311423,3.3592768,7.084887,11.32466237137204,7.970478843387853,jump
10/07/2020, 20:30:19,9.810573,-0.5288138,-0.9906286,1.4311423,3.3592768,7.084887,9.874630334926083,7.970478843387853,jump
10/07/2020, 20:30:19,9.810573,-0.5288138,-0.9906286,1.339559,3.2322812,6.973766,9.874630334926083,7.80227339588001,jump
10/07/2020, 20:30:19,8.736196,-0.14596218,-1.2323036,1.339559,3.2322812,6.973766,8.823887471241509,7.80227339588001,jump
10/07/2020, 20:30:19,8.736196,-0.14596218,-1.2323036,1.0990001,3.1052856,6.8431067,8.823887471241509,7.594650096759902,jump
10/07/2020, 20:30:19,8.032705,0.3900301,-1.402194,1.0990001,3.1052856,6.8431067,8.163493498235946,7.594650096759902,jump
10/07/2020, 20:30:19,8.032705,0.3900301,-1.402194,0.8669889,2.9953856,6.606211,8.163493498235946,7.305205756725344,jump
10/07/2020, 20:30:19,7.489535,0.9619147,-1.4739788,0.8669889,2.9953856,6.606211,7.693570409517876,7.305205756725344,jump
10/07/2020, 20:30:19,7.489535,0.9619147,-1.4739788,0.7106867,2.9123502,6.271627,7.693570409517876,6.951270654460715,jump
10/07/2020, 20:30:19,6.8889365,1.6917256,-1.5553347,0.7106867,2.9123502,6.271627,7.262124200668809,6.951270654460715,jump
10/07/2020, 20:30:19,6.8889365,1.6917256,-1.5553347,0.6032289,2.8207667,5.9113994,7.262124200668809,6.577632726820354,jump
10/07/2020, 20:30:20,6.6185474,-2.0937197,2.2468605,-0.31382558,-0.31260446,-0.39075556,7.296383666204413,0.5906758421438438,jump
10/07/2020, 20:30:20,6.6185474,-2.0937197,2.2468605,-0.29673,-0.3944189,-0.5519422,7.296383666204413,0.7404425630816756,jump
10/07/2020, 20:30:20,6.5659056,-2.050649,2.1367905,-0.29673,-0.3944189,-0.5519422,7.202926536651277,0.7404425630816756,jump
10/07/2020, 20:30:20,6.5659056,-2.050649,2.1367905,-0.29795113,-0.46402225,-0.7131289,7.202926536651277,0.9014679070381483,jump
10/07/2020, 20:30:20,6.4414787,-1.9190438,2.009971,-0.29795113,-0.46402225,-0.7131289,7.015366011763525,0.9014679070381483,jump
10/07/2020, 20:30:20,6.4414787,-1.9190438,2.009971,-0.30772,-0.5324045,-0.88896894,7.015366011763525,1.0809310426701544,jump
10/07/2020, 20:30:20,6.2668023,-1.6749759,1.9310079,-0.30772,-0.5324045,-0.88896894,6.768097719434986,1.0809310426701544,jump
10/07/2020, 20:30:20,6.2668023,-1.6749759,1.9310079,-0.3382478,-0.61299783,-1.075799,6.768097719434986,1.283558094107572,jump
10/07/2020, 20:30:20,6.0514483,-1.3639089,1.7730815,-0.3382478,-0.61299783,-1.075799,6.451673633831571,1.283558094107572,jump
10/07/2020, 20:30:20,6.0514483,-1.3639089,1.7730815,-0.38220778,-0.7167922,-1.28583,6.451673633831571,1.5209315321854948,jump
10/07/2020, 20:30:20,5.845666,-0.91166544,1.605584,-0.38220778,-0.7167922,-1.28583,6.130321698034613,1.5209315321854948,jump
10/07/2020, 20:30:20,5.845666,-0.91166544,1.605584,-0.43105224,-0.8181445,-1.5398211,6.130321698034613,1.7961669250224583,jump
10/07/2020, 20:30:20,5.6207404,-0.38285163,1.4931214,-0.43105224,-0.8181445,-1.5398211,5.828268151073077,1.7961669250224583,jump
10/07/2020, 20:30:20,5.6207404,-0.38285163,1.4931214,-0.47745445,-0.9072856,-1.8035812,5.828268151073077,2.0746168668470903,jump
10/07/2020, 20:30:20,5.4460645,-0.021535404,1.4524434,-0.47745445,-0.9072856,-1.8035812,5.636459325383474,2.0746168668470903,jump
10/07/2020, 20:30:20,5.4460645,-0.021535404,1.4524434,-0.5580478,-1.00009,-2.0563512,5.636459325383474,2.353758170408697,jump
10/07/2020, 20:30:20,5.3814583,0.0,1.5361922,-0.5580478,-1.00009,-2.0563512,5.596425614260594,2.353758170408697,jump
10/07/2020, 20:30:20,5.3814583,0.0,1.5361922,-0.6386411,-1.0928944,-2.2895834,5.596425614260594,2.616194387759705,jump
10/07/2020, 20:30:20,5.558527,-0.3493521,1.6893328,-0.6386411,-1.0928944,-2.2895834,5.820061397217962,2.616194387759705,jump
10/07/2020, 20:30:20,5.558527,-0.3493521,1.6893328,-0.67161113,-1.1930256,-2.5399113,5.820061397217962,2.885397862762515,jump
10/07/2020, 20:30:21,17.900705,-5.938986,8.274381,1.9379034,-3.98937,-5.5646033,20.59544075536078,7.1158522796499355,jump
10/07/2020, 20:30:21,17.900705,-5.938986,8.274381,2.0600145,-3.8916812,-5.4192915,20.59544075536078,6.9826615644428855,jump
10/07/2020, 20:30:21,19.401007,-6.6735826,8.5016985,2.0600145,-3.8916812,-5.4192915,22.208436286799643,6.9826615644428855,jump
10/07/2020, 20:30:21,19.401007,-6.6735826,8.5016985,2.20899,-3.7011878,-5.3887634,22.208436286799643,6.900521721062201,jump
10/07/2020, 20:30:21,20.578276,-7.135397,9.2793665,2.20899,-3.7011878,-5.3887634,23.67458473214708,6.900521721062201,jump
10/07/2020, 20:30:21,20.578276,-7.135397,9.2793665,2.3054578,-3.4069002,-5.3704467,23.67458473214708,6.764894834578855,jump
10/07/2020, 20:30:21,21.121445,-7.30768,10.174282,2.3054578,-3.4069002,-5.3704467,24.556743084317667,6.764894834578855,jump
10/07/2020, 20:30:21,21.121445,-7.30768,10.174282,2.361629,-3.0613258,-5.2654314,24.556743084317667,6.532516745639929,jump
10/07/2020, 20:30:21,21.025732,-7.530213,10.870593,2.361629,-3.0613258,-5.2654314,24.83858505542596,6.532516745639929,jump
10/07/2020, 20:30:21,21.025732,-7.530213,10.870593,2.4348958,-2.6925502,-5.019988,24.83858505542596,6.195064482240569,jump
10/07/2020, 20:30:21,20.50649,-7.8556366,10.983056,2.4348958,-2.6925502,-5.019988,24.553099765075245,6.195064482240569,jump
10/07/2020, 20:30:21,20.50649,-7.8556366,10.983056,2.5179312,-2.405589,-4.657318,24.553099765075245,5.815277173588361,jump
10/07/2020, 20:30:21,19.64986,-7.8197446,10.3848505,2.5179312,-2.405589,-4.657318,23.56078390863668,5.815277173588361,jump
10/07/2020, 20:30:21,19.64986,-7.8197446,10.3848505,2.5460167,-2.2041056,-4.19818,23.56078390863668,5.381914115527194,jump
10/07/2020, 20:30:21,18.647266,-7.2358956,9.504292,2.5460167,-2.2041056,-4.19818,22.145209119262333,5.381914115527194,jump
10/07/2020, 20:30:21,18.647266,-7.2358956,9.504292,2.4458857,-1.965989,-3.7182834,22.145209119262333,4.865501097473298,jump
10/07/2020, 20:30:21,17.479568,-6.314659,8.60459,2.4458857,-1.965989,-3.7182834,20.480459230902348,4.865501097473298,jump
10/07/2020, 20:30:21,17.479568,-6.314659,8.60459,2.1381657,-1.6228567,-3.2225122,20.480459230902348,4.194043606115217,jump
10/07/2020, 20:30:21,16.163517,-5.2905307,7.745567,2.1381657,-1.6228567,-3.2225122,18.688039019558396,4.194043606115217,jump
10/07/2020, 20:30:21,16.163517,-5.2905307,7.745567,1.6655957,-1.2101212,-2.7389524,18.688039019558396,3.4264358042947984,jump
10/07/2020, 20:30:22,7.9968133,-2.617748,4.2927237,-0.77906895,-1.4299212,-1.4311423,9.446115815653286,2.167900202717402,jump
10/07/2020, 20:30:22,7.905886,-3.3786657,4.9770713,-0.77906895,-1.4299212,-1.4311423,9.934266786140304,2.167900202717402,jump
10/07/2020, 20:30:22,7.905886,-3.3786657,4.9770713,-0.03297,-1.4470167,-1.4812078,9.934266786140304,2.070971048825844,jump
10/07/2020, 20:30:22,7.594819,-4.0390844,5.5872407,-0.03297,-1.4470167,-1.4812078,10.257326082028966,2.070971048825844,jump
10/07/2020, 20:30:22,7.594819,-4.0390844,5.5872407,0.85966223,-1.57157,-1.4970822,10.257326082028966,2.3345463710109993,jump
10/07/2020, 20:30:22,7.075577,-4.4171505,6.056234,0.85966223,-1.57157,-1.4970822,10.30790833111269,2.3345463710109993,jump
10/07/2020, 20:30:22,7.075577,-4.4171505,6.056234,1.8060234,-1.7852645,-1.4812078,10.30790833111269,2.9398752301128197,jump
10/07/2020, 20:30:22,6.71426,-4.5678983,6.9248285,1.8060234,-1.7852645,-1.4812078,10.672405235274612,2.9398752301128197,jump
10/07/2020, 20:30:22,6.71426,-4.5678983,6.9248285,2.75849,-1.9611045,-1.4323634,10.672405235274612,3.675168478294199,jump
10/07/2020, 20:30:22,6.8458657,-4.8263235,8.346166,2.75849,-1.9611045,-1.4323634,11.82445590017973,3.675168478294199,jump
10/07/2020, 20:30:22,6.8458657,-4.8263235,8.346166,3.6401324,-2.041698,-1.3529912,11.82445590017973,4.387445723360306,jump
10/07/2020, 20:30:22,7.7240314,-5.5250273,10.078569,3.6401324,-2.041698,-1.3529912,13.847893327251098,4.387445723360306,jump
10/07/2020, 20:30:22,7.7240314,-5.5250273,10.078569,4.4204226,-2.0062857,-1.2443123,13.847893327251098,5.011350197439371,jump
10/07/2020, 20:30:22,9.090333,-6.4845495,11.91865,4.4204226,-2.0062857,-1.2443123,16.332107834690955,5.011350197439371,jump
10/07/2020, 20:30:22,9.090333,-6.4845495,11.91865,5.067611,-1.7986968,-1.1014422,16.332107834690955,5.4890043206652015,jump
10/07/2020, 20:30:22,10.631311,-7.367501,13.825729,5.067611,-1.7986968,-1.1014422,18.932924835480758,5.4890043206652015,jump
10/07/2020, 20:30:22,10.631311,-7.367501,13.825729,5.460809,-1.4238156,-0.87065226,18.932924835480758,5.710142178259993,jump
10/07/2020, 20:30:22,11.739188,-7.8436728,14.641682,5.460809,-1.4238156,-0.87065226,20.33987669250013,5.710142178259993,jump
10/07/2020, 20:30:22,11.739188,-7.8436728,14.641682,5.426618,-0.96956223,-0.6423045,20.33987669250013,5.549845940429987,jump
10/07/2020, 20:30:22,12.212967,-7.2933235,14.13201,5.426618,-0.96956223,-0.6423045,20.051504894230444,5.549845940429987,jump
10/07/2020, 20:30:23,23.454447,-6.1854467,8.329415,6.2691846,-4.803851,-4.415538,25.646636919994116,9.048570905791614,jump
10/07/2020, 20:30:23,22.99024,-6.2931237,9.559326,6.2691846,-4.803851,-4.415538,25.681418628289837,9.048570905791614,jump
10/07/2020, 20:30:23,22.99024,-6.2931237,9.559326,6.2557526,-4.59382,-3.9405258,25.681418628289837,8.704330333044133,jump
10/07/2020, 20:30:23,21.872791,-5.8480587,9.858429,6.2557526,-4.59382,-3.9405258,24.69427890941189,8.704330333044133,jump
10/07/2020, 20:30:23,21.872791,-5.8480587,9.858429,5.9272738,-4.4558344,-3.5009258,24.69427890941189,8.200214358377318,jump
10/07/2020, 20:30:23,20.580667,-4.833502,9.525827,5.9272738,-4.4558344,-3.5009258,23.187669183790234,8.200214358377318,jump
10/07/2020, 20:30:23,20.580667,-4.833502,9.525827,5.31916,-4.1994014,-3.0466723,23.187669183790234,7.43038674992508,jump
10/07/2020, 20:30:23,19.491934,-3.3236306,8.946764,5.31916,-4.1994014,-3.0466723,21.703147012699805,7.43038674992508,jump
10/07/2020, 20:30:23,19.491934,-3.3236306,8.946764,4.425307,-3.76957,-2.6510324,21.703147012699805,6.389129214391569,jump
10/07/2020, 20:30:23,18.7693,-1.4668003,8.408379,4.425307,-3.76957,-2.6510324,20.61889845994514,6.389129214391569,jump
10/07/2020, 20:30:23,18.7693,-1.4668003,8.408379,3.3556135,-3.2383869,-2.3152268,20.61889845994514,5.206492714009108,jump
10/07/2020, 20:30:23,18.281164,0.41156548,8.200203,3.3556135,-3.2383869,-2.3152268,20.040301340550158,5.206492714009108,jump
10/07/2020, 20:30:23,18.281164,0.41156548,8.200203,2.2761512,-2.6766756,-1.95622,20.040301340550158,4.021473989416423,jump
10/07/2020, 20:30:23,17.860027,1.9214365,8.384451,2.2761512,-2.6766756,-1.95622,19.823509052183635,4.021473989416423,jump
10/07/2020, 20:30:23,17.860027,1.9214365,8.384451,1.2772822,-2.0697834,-1.5532534,19.823509052183635,2.885836032184353,jump
10/07/2020, 20:30:23,17.22593,3.1609187,8.721839,1.2772822,-2.0697834,-1.5532534,19.565135334981758,2.885836032184353,jump
10/07/2020, 20:30:23,17.22593,3.1609187,8.721839,0.44692668,-1.5959923,-1.0892311,19.565135334981758,1.9832698831090352,jump
10/07/2020, 20:30:23,16.130018,3.9338005,8.898908,0.44692668,-1.5959923,-1.0892311,18.837272410161646,1.9832698831090352,jump
10/07/2020, 20:30:23,16.130018,3.9338005,8.898908,-0.26009667,-1.2565234,-0.59956557,18.837272410161646,1.4163262780824295,jump
10/07/2020, 20:30:23,14.7254305,4.369294,9.102298,-0.26009667,-1.2565234,-0.59956557,17.854435289773743,1.4163262780824295,jump
10/07/2020, 20:30:24,8.051848,0.8877372,3.0388846,-3.93442,-1.2723979,-3.2347236,8.651887658685473,5.249961381565492,jump
10/07/2020, 20:30:24,9.82493,-2.0434706,4.752146,-3.93442,-1.2723979,-3.2347236,11.103509122389003,5.249961381565492,jump
10/07/2020, 20:30:24,9.82493,-2.0434706,4.752146,-2.4092524,-1.1014422,-3.4471967,11.103509122389003,4.347509327349543,jump
10/07/2020, 20:30:24,11.112268,-5.237889,4.5008993,-2.4092524,-1.1014422,-3.4471967,13.083427835162238,4.347509327349543,jump
10/07/2020, 20:30:24,11.112268,-5.237889,4.5008993,-0.6288723,-1.1063267,-3.5009258,13.083427835162238,3.7250396530321144,jump
10/07/2020, 20:30:24,11.578869,-7.6402826,3.9960139,-0.6288723,-1.1063267,-3.5009258,14.436490218296196,3.7250396530321144,jump
10/07/2020, 20:30:24,11.578869,-7.6402826,3.9960139,1.0159645,-1.3285689,-3.5436647,14.436490218296196,3.9185250745707547,jump
10/07/2020, 20:30:24,11.090733,-8.463413,3.6346977,1.0159645,-1.3285689,-3.5436647,14.416821420759643,3.9185250745707547,jump
10/07/2020, 20:30:24,11.090733,-8.463413,3.6346977,2.3030157,-1.6423945,-3.5619812,14.416821420759643,4.548521877150955,jump
10/07/2020, 20:30:24,10.298709,-8.243274,3.5533416,2.3030157,-1.6423945,-3.5619812,13.661669148404606,4.548521877150955,jump
10/07/2020, 20:30:24,10.298709,-8.243274,3.5533416,3.273799,-1.911039,-3.4838302,13.661669148404606,5.1484854581489845,jump
10/07/2020, 20:30:24,9.84168,-7.580462,4.0271206,3.273799,-1.911039,-3.4838302,13.05908729125421,5.1484854581489845,jump
10/07/2020, 20:30:24,9.84168,-7.580462,4.0271206,4.049205,-2.053909,-3.2457135,13.05908729125421,5.58115204155413,jump
10/07/2020, 20:30:24,9.896714,-7.092326,5.070391,4.049205,-2.053909,-3.2457135,13.189196688344143,5.58115204155413,jump
10/07/2020, 20:30:24,9.896714,-7.092326,5.070391,4.698836,-2.0832157,-2.843968,13.189196688344143,5.874265873379712,jump
10/07/2020, 20:30:24,10.301102,-6.73101,6.32423,4.698836,-2.0832157,-2.843968,13.835283826061858,5.874265873379712,jump
10/07/2020, 20:30:24,10.301102,-6.73101,6.32423,5.272758,-2.0343711,-2.3530812,13.835283826061858,6.121897923379488,jump
10/07/2020, 20:30:24,10.973485,-6.4151573,7.9633136,5.272758,-2.0343711,-2.3530812,14.999532641843867,6.121897923379488,jump
10/07/2020, 20:30:24,10.973485,-6.4151573,7.9633136,5.8381324,-1.9134812,-1.8951645,14.999532641843867,6.429373887481589,jump
10/07/2020, 20:30:24,11.760723,-6.1208405,9.276974,5.8381324,-1.9134812,-1.8951645,16.18151842934038,6.429373887481589,jump
10/07/2020, 20:30:25,1.8233309,-0.8446664,1.3686945,-0.91583335,-3.0369034,-6.0689225,2.431320960482706,6.847872182646119,jump
10/07/2020, 20:30:25,2.9982069,-3.2614172,2.158326,-0.91583335,-3.0369034,-6.0689225,4.92792622756891,6.847872182646119,jump
10/07/2020, 20:30:25,2.9982069,-3.2614172,2.158326,-1.2394278,-3.0356824,-6.0127516,4.92792622756891,6.848702848948887,jump
10/07/2020, 20:30:25,4.3501515,-6.448657,3.117848,-1.2394278,-3.0356824,-6.0127516,8.380332429300477,6.848702848948887,jump
10/07/2020, 20:30:25,4.3501515,-6.448657,3.117848,-1.5031879,-2.9941645,-5.8161526,8.380332429300477,6.712095458935557,jump
10/07/2020, 20:30:25,5.6063833,-9.281759,3.5820556,-1.5031879,-2.9941645,-5.8161526,11.419882270340532,6.712095458935557,jump
10/07/2020, 20:30:25,5.6063833,-9.281759,3.5820556,-1.471439,-2.9624157,-5.76975,11.419882270340532,6.650643271184387,jump
10/07/2020, 20:30:25,6.5108705,-9.631111,3.7280176,-1.471439,-2.9624157,-5.76975,12.208515511039543,6.650643271184387,jump
10/07/2020, 20:30:25,6.5108705,-9.631111,3.7280176,-0.9646778,-3.0393457,-6.1165457,12.208515511039543,6.897851610065001,jump
10/07/2020, 20:30:25,6.836294,-8.377272,3.4695928,-0.9646778,-3.0393457,-6.1165457,11.355688998744355,6.897851610065001,jump
10/07/2020, 20:30:25,6.836294,-8.377272,3.4695928,-0.40907225,-3.2261758,-6.5940003,11.355688998744355,7.352305133724715,jump
10/07/2020, 20:30:25,6.7405815,-7.051648,3.1800613,-0.40907225,-3.2261758,-6.5940003,10.260310460409283,7.352305133724715,jump
10/07/2020, 20:30:25,6.7405815,-7.051648,3.1800613,-0.14409111,-3.3812568,-6.8064737,10.260310460409283,7.601430430390735,jump
10/07/2020, 20:30:25,6.573084,-6.0346985,2.900101,-0.14409111,-3.3812568,-6.8064737,9.382622393650887,7.601430430390735,jump
10/07/2020, 20:30:25,6.573084,-6.0346985,2.900101,-0.12821667,-3.4423125,-6.6562767,9.382622393650887,7.49479647907304,jump
10/07/2020, 20:30:25,6.798009,-5.395815,2.5986054,-0.12821667,-3.4423125,-6.6562767,9.059828565877304,7.49479647907304,jump
10/07/2020, 20:30:25,6.798009,-5.395815,2.5986054,-0.26742333,-3.492378,-6.3766427,9.059828565877304,7.275286350585302,jump
10/07/2020, 20:30:25,7.5110703,-5.156533,2.3928227,-0.26742333,-3.492378,-6.3766427,9.419745599004997,7.275286350585302,jump
10/07/2020, 20:30:25,7.5110703,-5.156533,2.3928227,-0.5238567,-3.548549,-6.2459836,9.419745599004997,7.202703418711728,jump
10/07/2020, 20:30:25,8.736196,-5.2833524,2.5459633,-0.5238567,-3.548549,-6.2459836,10.522207673129422,7.202703418711728,jump
10/07/2020, 20:30:26,6.8650084,-2.0482562,3.359523,0.31382558,0.4163989,1.0843467,7.912653674466731,1.2031966627836157,jump
10/07/2020, 20:30:26,6.7740808,-2.4502504,3.591627,0.31382558,0.4163989,1.0843467,8.04932796424639,1.2031966627836157,jump
10/07/2020, 20:30:26,6.7740808,-2.4502504,3.591627,0.34191114,0.36511225,0.99398446,8.04932796424639,1.1127512235707007,jump
10/07/2020, 20:30:26,6.759724,-2.9623144,3.818945,0.34191114,0.36511225,0.99398446,8.309844598311077,1.1127512235707007,jump
10/07/2020, 20:30:26,6.759724,-2.9623144,3.818945,0.40174556,0.28574002,0.8877478,8.309844598311077,1.0154521408623998,jump
10/07/2020, 20:30:26,6.8745794,-3.4025939,3.9984066,0.40174556,0.28574002,0.8877478,8.650129650911062,1.0154521408623998,jump
10/07/2020, 20:30:26,6.8745794,-3.4025939,3.9984066,0.50676113,0.20270446,0.7436567,8.650129650911062,0.9224539144721385,jump
10/07/2020, 20:30:26,7.0348988,-3.5198421,4.101298,0.50676113,0.20270446,0.7436567,8.871287019284823,0.9224539144721385,jump
10/07/2020, 20:30:26,7.0348988,-3.5198421,4.101298,0.6142189,0.1526389,0.57270116,8.871287019284823,0.8535514588262485,jump
10/07/2020, 20:30:26,7.1545396,-3.4049866,4.15394,0.6142189,0.1526389,0.57270116,8.946317105315453,0.8535514588262485,jump
10/07/2020, 20:30:26,7.1545396,-3.4049866,4.15394,0.6569578,0.13920668,0.39686114,8.946317105315453,0.7800453948975425,jump
10/07/2020, 20:30:26,7.123433,-3.1393833,4.0869412,0.6569578,0.13920668,0.39686114,8.792162170885852,0.7800453948975425,jump
10/07/2020, 20:30:26,7.123433,-3.1393833,4.0869412,0.59346,0.12577444,0.2735289,8.792162170885852,0.6654562878950416,jump
10/07/2020, 20:30:26,6.9296145,-2.940779,3.9361932,0.59346,0.12577444,0.2735289,8.494784035405559,0.6654562878950416,jump
10/07/2020, 20:30:26,6.9296145,-2.940779,3.9361932,0.4359367,0.10379445,0.1856089,8.494784035405559,0.48504097351894576,jump
10/07/2020, 20:30:26,6.690332,-2.8307092,3.8213377,0.4359367,0.10379445,0.1856089,8.208293239846142,0.48504097351894576,jump
10/07/2020, 20:30:26,6.690332,-2.8307092,3.8213377,0.24910668,0.06716111,0.102573335,8.208293239846142,0.27764372838715407,jump
10/07/2020, 20:30:26,6.4534426,-2.766103,3.694518,0.24910668,0.06716111,0.102573335,7.933959347679411,0.27764372838715407,jump
10/07/2020, 20:30:26,6.4534426,-2.766103,3.694518,0.091583334,0.01099,0.0061055557,7.933959347679411,0.09244222502450287,jump
10/07/2020, 20:30:26,6.290731,-2.7852457,3.5844483,0.091583334,0.01099,0.0061055557,7.757522747630947,0.09244222502450287,jump
10/07/2020, 20:30:27,16.962719,-8.02792,4.7712884,2.0404768,-4.702499,-7.1593747,19.36353592215384,8.805321566319552,jump
10/07/2020, 20:30:27,16.962719,-8.02792,4.7712884,2.493509,-5.041968,-7.314456,19.36353592215384,9.227149818054635,jump
10/07/2020, 20:30:27,20.020746,-8.71466,5.5393844,2.493509,-5.041968,-7.314456,22.526880661130765,9.227149818054635,jump
10/07/2020, 20:30:27,20.020746,-8.71466,5.5393844,3.2054167,-5.148205,-7.7894683,22.526880661130765,9.871905844528058,jump
10/07/2020, 20:30:27,22.332214,-8.070991,6.7764735,3.2054167,-5.148205,-7.7894683,24.693911801787806,9.871905844528058,jump
10/07/2020, 20:30:27,22.332214,-8.070991,6.7764735,3.7805603,-4.9357314,-8.095967,24.693911801787806,10.20777971986369,jump
10/07/2020, 20:30:27,23.815763,-7.688139,7.9011,3.7805603,-4.9357314,-8.095967,26.243579295509708,10.20777971986369,jump
10/07/2020, 20:30:27,23.815763,-7.688139,7.9011,4.0992703,-4.737911,-7.9897304,26.243579295509708,10.153206947407762,jump
10/07/2020, 20:30:27,24.739393,-7.975278,8.709874,4.0992703,-4.737911,-7.9897304,27.413583183447837,10.153206947407762,jump
10/07/2020, 20:30:27,24.739393,-7.975278,8.709874,4.4961314,-4.680519,-7.645377,27.413583183447837,10.028671334491342,jump
10/07/2020, 20:30:27,25.68695,-8.573483,9.619147,4.4961314,-4.680519,-7.645377,28.737641673857002,10.028671334491342,jump
10/07/2020, 20:30:27,25.68695,-8.573483,9.619147,5.3118334,-4.62679,-7.281486,28.737641673857002,10.131278245101818,jump
10/07/2020, 20:30:27,26.904898,-9.583255,10.7844515,5.3118334,-4.62679,-7.281486,30.52894833363829,10.131278245101818,jump
10/07/2020, 20:30:27,26.904898,-9.583255,10.7844515,6.4083915,-4.459498,-6.8614235,30.52894833363829,10.39392781499801,jump
10/07/2020, 20:30:27,27.718458,-10.461421,11.131411,6.4083915,-4.459498,-6.8614235,31.649052989979555,10.39392781499801,jump
10/07/2020, 20:30:27,27.718458,-10.461421,11.131411,7.232641,-4.22016,-6.315587,31.649052989979555,10.488445509923231,jump
10/07/2020, 20:30:27,27.464819,-10.080962,10.700703,7.232641,-4.22016,-6.315587,31.152000196951786,10.488445509923231,jump
10/07/2020, 20:30:27,27.464819,-10.080962,10.700703,7.3926067,-4.006466,-5.720906,31.152000196951786,10.170111425023848,jump
10/07/2020, 20:30:27,26.179873,-8.571091,9.461221,7.3926067,-4.006466,-5.720906,29.126689109130474,10.170111425023848,jump
10/07/2020, 20:30:27,26.179873,-8.571091,9.461221,6.764956,-3.7610223,-5.20926,29.126689109130474,9.3298611040181,jump
10/07/2020, 20:30:28,7.826923,-1.6797615,3.4672,-0.16729222,-0.41151446,-1.6094245,8.723749016244083,1.669604135692283,jump
10/07/2020, 20:30:28,7.826923,-1.6797615,3.4672,-0.19537778,-0.46035892,-1.7620634,8.723749016244083,1.831657768319037,jump
10/07/2020, 20:30:28,8.10449,-1.6821543,3.5102708,-0.19537778,-0.46035892,-1.7620634,8.990795688401873,1.831657768319037,jump
10/07/2020, 20:30:28,8.10449,-1.6821543,3.5102708,-0.2295689,-0.5104245,-1.9232501,8.990795688401873,2.003029183772354,jump
10/07/2020, 20:30:28,8.484949,-1.7060826,3.507878,-0.2295689,-0.5104245,-1.9232501,9.338644855121137,2.003029183772354,jump
10/07/2020, 20:30:28,8.484949,-1.7060826,3.507878,-0.27475002,-0.54950005,-2.074668,9.338644855121137,2.1637201531004906,jump
10/07/2020, 20:30:28,8.930014,-1.7419748,3.400201,-0.27475002,-0.54950005,-2.074668,9.712928889757558,2.1637201531004906,jump
10/07/2020, 20:30:28,8.930014,-1.7419748,3.400201,-0.33580557,-0.5653745,-2.20899,9.712928889757558,2.3047886984328634,jump
10/07/2020, 20:30:28,9.367901,-1.7778672,3.306881,-0.33580557,-0.5653745,-2.20899,10.092266331332135,2.3047886984328634,jump
10/07/2020, 20:30:28,9.367901,-1.7778672,3.306881,-0.4163989,-0.54950005,-2.3262167,10.092266331332135,2.4262362791007925,jump
10/07/2020, 20:30:28,9.626326,-1.7371893,3.1944182,-0.4163989,-0.54950005,-2.3262167,10.290203055428663,2.4262362791007925,jump
10/07/2020, 20:30:28,9.626326,-1.7371893,3.1944182,-0.5153089,-0.52996224,-2.460539,10.290203055428663,2.569174173205933,jump
10/07/2020, 20:30:28,9.669396,-1.5840486,3.048456,-0.5153089,-0.52996224,-2.460539,10.261555462429675,2.569174173205933,jump
10/07/2020, 20:30:28,9.669396,-1.5840486,3.048456,-0.6239878,-0.5470578,-2.6229467,10.261555462429675,2.7510875319252,jump
10/07/2020, 20:30:28,9.466006,-1.2394822,2.7182465,-0.6239878,-0.5470578,-2.6229467,9.926250789035297,2.7510875319252,jump
10/07/2020, 20:30:28,9.466006,-1.2394822,2.7182465,-0.7570889,-0.62643003,-2.8183246,9.926250789035297,2.9847196767698176,jump
10/07/2020, 20:30:28,9.140582,-0.77766734,2.4119651,-0.7570889,-0.62643003,-2.8183246,9.485387875067719,2.9847196767698176,jump
10/07/2020, 20:30:28,9.140582,-0.77766734,2.4119651,-0.91094893,-0.7656367,-3.030798,9.485387875067719,3.2560349738774135,jump
10/07/2020, 20:30:28,8.95155,-0.27756742,2.143969,-0.91094893,-0.7656367,-3.030798,9.208902539669946,3.2560349738774135,jump
10/07/2020, 20:30:28,8.95155,-0.27756742,2.143969,-1.0819045,-0.9426978,-3.228618,9.208902539669946,3.5331530090525347,jump
10/07/2020, 20:30:29,1.7970098,2.2612174,0.8327023,-0.23933779,0.7387723,3.6059413,3.0059509858171327,3.6886148721754597,jump
10/07/2020, 20:30:29,1.7970098,2.2612174,0.8327023,-0.5702589,0.64108336,3.2371657,3.0059509858171327,3.34894383437525,jump
10/07/2020, 20:30:29,1.3112668,2.1966112,0.86141616,-0.5702589,0.64108336,3.2371657,2.699362699824103,3.34894383437525,jump
10/07/2020, 20:30:29,1.3112668,2.1966112,0.86141616,-0.8071545,0.53851,2.8488524,2.699362699824103,3.009559996072858,jump
10/07/2020, 20:30:29,0.8757731,2.0889342,0.90448695,-0.8071545,0.53851,2.8488524,2.4390000298925347,3.009559996072858,jump
10/07/2020, 20:30:29,0.8757731,2.0889342,0.90448695,-0.93537116,0.44448447,2.4519913,2.4390000298925347,2.6617188216774847,jump
10/07/2020, 20:30:29,0.4546363,1.9286151,1.1653047,-0.93537116,0.44448447,2.4519913,2.298735587373539,2.6617188216774847,jump
10/07/2020, 20:30:29,0.4546363,1.9286151,1.1653047,-0.9463611,0.32115224,2.0685623,2.298735587373539,2.297321919296091,jump
10/07/2020, 20:30:29,0.031106694,1.9381863,0.97866446,-0.9463611,0.32115224,2.0685623,2.1714782600509697,2.297321919296091,jump
10/07/2020, 20:30:29,0.031106694,1.9381863,0.97866446,-0.8767578,0.16118668,1.6680379,2.1714782600509697,1.89130531481708,jump
10/07/2020, 20:30:29,-0.43070808,2.065006,0.86859465,-0.8767578,0.16118668,1.6680379,2.281275074066537,1.89130531481708,jump
10/07/2020, 20:30:29,-0.43070808,2.065006,0.86859465,-0.7863956,-0.0061055557,1.3261267,2.281275074066537,1.541774089353387,jump
10/07/2020, 20:30:29,-0.8781659,2.2564318,0.81834537,-0.7863956,-0.0061055557,1.3261267,2.5558460516359403,1.541774089353387,jump
10/07/2020, 20:30:29,-0.8781659,2.2564318,0.81834537,-0.6996967,-0.10013112,0.9463611,2.5558460516359403,1.1811863180850948,jump
10/07/2020, 20:30:29,-1.3328022,2.6392834,0.7920243,-0.6996967,-0.10013112,0.9463611,3.0609608165106583,1.1811863180850948,jump
10/07/2020, 20:30:29,-1.3328022,2.6392834,0.7920243,-0.6252089,-0.16973445,0.46280113,3.0609608165106583,0.7961663482315552,jump
10/07/2020, 20:30:29,-1.7108682,3.048456,0.80159557,-0.6252089,-0.16973445,0.46280113,3.5864619458896785,0.7961663482315552,jump
10/07/2020, 20:30:29,-1.7108682,3.048456,0.80159557,-0.58491224,-0.24544334,-0.089141116,3.5864619458896785,0.6405551519928702,jump
10/07/2020, 20:30:29,-2.024328,3.2542388,0.81595254,-0.58491224,-0.24544334,-0.089141116,3.918386507827314,0.6405551519928702,jump
10/07/2020, 20:30:29,-2.024328,3.2542388,0.81595254,-0.56049,-0.32237336,-0.6386411,3.918386507827314,0.9088102750934877,jump
10/07/2020, 20:30:30,11.557333,-2.440679,3.546163,-0.8071545,1.3456645,3.1492457,12.333050427399964,3.5185309467775308,jump
10/07/2020, 20:30:30,11.033305,-2.4670002,3.5030923,-0.8071545,1.3456645,3.1492457,11.836028418883377,3.5185309467775308,jump
10/07/2020, 20:30:30,11.033305,-2.4670002,3.5030923,-0.6325356,1.2699556,3.0344613,11.836028418883377,3.3497527831875846,jump
10/07/2020, 20:30:30,10.526027,-2.4311078,3.4983068,-0.6325356,1.2699556,3.0344613,11.3554248575576,3.3497527831875846,jump
10/07/2020, 20:30:30,10.526027,-2.4311078,3.4983068,-0.45059,1.1905833,2.90136,11.3554248575576,3.1683450132015536,jump
10/07/2020, 20:30:30,10.01157,-2.3282163,3.5006995,-0.45059,1.1905833,2.90136,10.858499976370968,3.1683450132015536,jump
10/07/2020, 20:30:30,10.01157,-2.3282163,3.5006995,-0.26009667,1.1112112,2.7511635,10.858499976370968,2.9784796581084962,jump
10/07/2020, 20:30:30,9.592826,-2.2157538,3.4695928,-0.26009667,1.1112112,2.7511635,10.438867164940374,2.9784796581084962,jump
10/07/2020, 20:30:30,9.592826,-2.2157538,3.4695928,-0.070824444,1.0379444,2.5960822,10.438867164940374,2.796781650070548,jump
10/07/2020, 20:30:30,9.169296,-2.0865414,3.4193435,-0.070824444,1.0379444,2.5960822,10.006076095982706,2.796781650070548,jump
10/07/2020, 20:30:30,9.169296,-2.0865414,3.4193435,0.07326667,0.9829945,2.4373379,10.006076095982706,2.6291181229504326,jump
10/07/2020, 20:30:30,8.822337,-1.9453648,3.3044882,0.07326667,0.9829945,2.4373379,9.619652762798589,2.6291181229504326,jump
10/07/2020, 20:30:30,8.822337,-1.9453648,3.3044882,0.14897557,0.9182756,2.284699,9.619652762798589,2.466834639655594,jump
10/07/2020, 20:30:30,8.496913,-1.7682959,3.211168,0.14897557,0.9182756,2.284699,9.253972140112669,2.466834639655594,jump
10/07/2020, 20:30:30,8.496913,-1.7682959,3.211168,0.14653334,0.86088336,2.1271756,9.253972140112669,2.2994495155529355,jump
10/07/2020, 20:30:30,8.193025,-1.5768701,3.1082766,0.14653334,0.86088336,2.1271756,8.903569811769158,2.2994495155529355,jump
10/07/2020, 20:30:30,8.193025,-1.5768701,3.1082766,0.09402556,0.7998278,1.9647678,8.903569811769158,2.1234118535450643,jump
10/07/2020, 20:30:30,7.9034934,-1.430908,3.0197423,0.09402556,0.7998278,1.9647678,8.580882755042119,2.1234118535450643,jump
10/07/2020, 20:30:30,7.9034934,-1.430908,3.0197423,0.03297,0.72900337,1.8072445,8.580882755042119,1.9490166132652056,jump
10/07/2020, 20:30:30,7.6833534,-1.3304094,2.9671001,0.03297,0.72900337,1.8072445,8.343116461624705,1.9490166132652056,jump
10/07/2020, 20:30:31,-1.1294123,1.9190438,0.6556334,-0.59590226,-0.49699223,-3.7048512,2.3212402498940286,3.7852374869920187,jump
10/07/2020, 20:30:31,-1.1294123,1.9190438,0.6556334,-0.5580478,-0.54339445,-4.149336,2.3212402498940286,4.221810385209669,jump
10/07/2020, 20:30:31,-0.7513463,1.8233309,0.5072784,-0.5580478,-0.54339445,-4.149336,2.0362681798781614,4.221810385209669,jump
10/07/2020, 20:30:31,-0.7513463,1.8233309,0.5072784,-0.5287411,-0.59346,-4.570619,2.0362681798781614,4.639215557347065,jump
10/07/2020, 20:30:31,-0.3493521,1.6486548,0.4546363,-0.5287411,-0.59346,-4.570619,1.7455096003436952,4.639215557347065,jump
10/07/2020, 20:30:31,-0.3493521,1.6486548,0.4546363,-0.48478112,-0.6557367,-4.9735856,1.7455096003436952,5.039995744730849,jump
10/07/2020, 20:30:31,0.10767702,1.3830515,0.36131623,-0.48478112,-0.6557367,-4.9735856,1.433518487370527,5.039995744730849,jump
10/07/2020, 20:30:31,0.10767702,1.3830515,0.36131623,-0.41395667,-0.74976224,-5.3667836,1.433518487370527,5.434691339052934,jump
10/07/2020, 20:30:31,0.5694918,1.1174482,0.2847459,-0.41395667,-0.74976224,-5.3667836,1.2861149430194938,5.434691339052934,jump
10/07/2020, 20:30:31,0.5694918,1.1174482,0.2847459,-0.3162678,-0.86821,-5.764866,1.2861149430194938,5.838449495229201,jump
10/07/2020, 20:30:31,1.1030912,0.782453,0.30867413,-0.3162678,-0.86821,-5.764866,1.3871995884753314,5.838449495229201,jump
10/07/2020, 20:30:31,1.1030912,0.782453,0.30867413,-0.20392556,-1.0025322,-6.1641693,1.3871995884753314,6.248491004783205,jump
10/07/2020, 20:30:31,1.7204394,0.3900301,0.38524446,-0.20392556,-1.0025322,-6.1641693,1.8056712345773356,6.248491004783205,jump
10/07/2020, 20:30:31,1.7204394,0.3900301,0.38524446,-0.11844778,-1.1710457,-6.545156,1.8056712345773356,6.650146232070047,jump
10/07/2020, 20:30:31,2.4023938,-0.011964113,0.4953143,-0.11844778,-1.1710457,-6.545156,2.452952395002145,6.650146232070047,jump
10/07/2020, 20:30:31,2.4023938,-0.011964113,0.4953143,-0.07326667,-1.3603178,-6.907826,2.452952395002145,7.040872950480745,jump
10/07/2020, 20:30:31,3.2757742,-0.43070808,0.6412765,-0.07326667,-1.3603178,-6.907826,3.3656265163468233,7.040872950480745,jump
10/07/2020, 20:30:31,3.2757742,-0.43070808,0.6412765,-0.039075557,-1.51662,-7.226536,3.3656265163468233,7.3840695332423305,jump
10/07/2020, 20:30:31,4.3262234,-0.930808,0.9667004,-0.039075557,-1.51662,-7.226536,4.529582965249236,7.3840695332423305,jump
10/07/2020, 20:30:31,4.3262234,-0.930808,0.9667004,0.024422223,-1.570349,-7.5318136,4.529582965249236,7.6938162693901555,jump
10/07/2020, 20:30:32,12.818351,-2.37368,3.8572302,-0.41029334,1.4201523,3.6840923,13.594951232847428,3.9695981094716912,jump
10/07/2020, 20:30:32,12.818351,-2.37368,3.8572302,-0.29306668,1.4177101,3.5864034,13.594951232847428,3.8675675872082067,jump
10/07/2020, 20:30:32,12.485748,-2.2325034,3.8548372,-0.29306668,1.4177101,3.5864034,13.256611616805708,3.8675675872082067,jump
10/07/2020, 20:30:32,12.485748,-2.2325034,3.8548372,-0.19293556,1.394509,3.4850512,13.256611616805708,3.7586514757279783,jump
10/07/2020, 20:30:32,12.083755,-2.091327,3.8644085,-0.19293556,1.394509,3.4850512,12.85785461077448,3.7586514757279783,jump
10/07/2020, 20:30:32,12.083755,-2.091327,3.8644085,-0.123332225,1.3676445,3.3531713,12.85785461077448,3.6234542278557607,jump
10/07/2020, 20:30:32,11.60519,-1.9645073,3.830909,-0.123332225,1.3676445,3.3531713,12.378028693360644,3.6234542278557607,jump
10/07/2020, 20:30:32,11.60519,-1.9645073,3.830909,-0.08059334,1.3322322,3.2066379,12.378028693360644,3.473307412306672,jump
10/07/2020, 20:30:32,11.114661,-1.8329022,3.778267,-0.08059334,1.3322322,3.2066379,11.881520324887902,3.473307412306672,jump
10/07/2020, 20:30:32,11.114661,-1.8329022,3.778267,-0.05006556,1.28583,3.0601046,11.881520324887902,3.319654442555654,jump
10/07/2020, 20:30:32,10.619347,-1.7252251,3.7184465,-0.05006556,1.28583,3.0601046,11.383047419036888,3.319654442555654,jump
10/07/2020, 20:30:32,10.619347,-1.7252251,3.7184465,-0.05372889,1.2369856,2.9074657,11.383047419036888,3.1601229177149848,jump
10/07/2020, 20:30:32,10.133604,-1.6438692,3.6203406,-0.05372889,1.2369856,2.9074657,10.885729319285485,3.1601229177149848,jump
10/07/2020, 20:30:32,10.133604,-1.6438692,3.6203406,-0.10013112,1.1820356,2.7633746,10.885729319285485,3.0072368240772223,jump
10/07/2020, 20:30:32,9.623933,-1.5098711,3.5653057,-0.10013112,1.1820356,2.7633746,10.373581777678778,3.0072368240772223,jump
10/07/2020, 20:30:32,9.623933,-1.5098711,3.5653057,-0.16485001,1.1185378,2.6192834,10.373581777678778,2.8528841593786245,jump
10/07/2020, 20:30:32,9.176475,-1.4500505,3.5198421,-0.16485001,1.1185378,2.6192834,9.93476827494637,2.8528841593786245,jump
10/07/2020, 20:30:32,9.176475,-1.4500505,3.5198421,-0.22712667,1.0464922,2.4776344,9.93476827494637,2.6991489136904456,jump
10/07/2020, 20:30:32,8.772088,-1.4356936,3.4719856,-0.22712667,1.0464922,2.4776344,9.542820799140236,2.6991489136904456,jump
10/07/2020, 20:30:32,8.772088,-1.4356936,3.4719856,-0.26742333,0.9732256,2.3347645,9.542820799140236,2.5435818198280455,jump
10/07/2020, 20:30:33,3.9625144,0.82313097,0.53359944,0.3492378,2.0307078,5.067611,4.0821309776090535,5.470504986582641,jump
10/07/2020, 20:30:33,3.9625144,0.82313097,0.53359944,0.53973114,1.8072445,4.635338,4.0821309776090535,5.00437801608706,jump
10/07/2020, 20:30:33,3.5318062,1.2562319,0.4331009,0.53973114,1.8072445,4.635338,3.773506359368069,5.00437801608706,jump
10/07/2020, 20:30:33,3.5318062,1.2562319,0.4331009,0.64108336,1.6326256,4.269005,3.773506359368069,4.615285075311621,jump
10/07/2020, 20:30:33,3.0867412,1.8137596,0.33020952,0.64108336,1.6326256,4.269005,3.5953766675837917,4.615285075311621,jump
10/07/2020, 20:30:33,3.0867412,1.8137596,0.33020952,0.59346,1.51662,3.9527369,3.5953766675837917,4.27509763470593,jump
10/07/2020, 20:30:33,2.5914268,2.4933212,0.19860429,0.59346,1.51662,3.9527369,3.60160898575433,4.27509763470593,jump
10/07/2020, 20:30:33,2.5914268,2.4933212,0.19860429,0.41151446,1.4140468,3.658449,3.60160898575433,3.9437445417050547,jump
10/07/2020, 20:30:33,1.9908284,3.2087753,0.033499517,0.41151446,1.4140468,3.658449,3.776341976738897,3.9437445417050547,jump
10/07/2020, 20:30:33,1.9908284,3.2087753,0.033499517,0.15386,1.3004833,3.338518,3.776341976738897,3.5861722812551045,jump
10/07/2020, 20:30:33,1.3328022,3.7710886,-0.11246266,0.15386,1.3004833,3.338518,4.001264640366211,3.5861722812551045,jump
10/07/2020, 20:30:33,1.3328022,3.7710886,-0.11246266,-0.14531223,1.1551712,3.0601046,4.001264640366211,3.274106940868645,jump
10/07/2020, 20:30:33,0.634098,4.1347976,-0.0047856453,-0.14531223,1.1551712,3.0601046,4.183139268304275,3.274106940868645,jump
10/07/2020, 20:30:33,0.634098,4.1347976,-0.0047856453,-0.40663,1.0745778,2.6290524,4.183139268304275,2.869143069953255,jump
10/07/2020, 20:30:33,-0.0071784677,4.5152564,-0.13878371,-0.40663,1.0745778,2.6290524,4.517394475784076,2.869143069953255,jump
10/07/2020, 20:30:33,-0.0071784677,4.5152564,-0.13878371,-0.5678167,0.9597934,2.0331502,4.517394475784076,2.3189046649544065,jump
10/07/2020, 20:30:33,-0.7369894,4.618148,-0.25124636,-0.5678167,0.9597934,2.0331502,4.68332869274996,2.3189046649544065,jump
10/07/2020, 20:30:33,-0.7369894,4.618148,-0.25124636,-0.64841,0.7937223,1.4079412,4.68332869274996,1.7414732518906353,jump
10/07/2020, 20:30:33,-1.4141582,4.362116,-0.36370903,-0.64841,0.7937223,1.4079412,4.6000198392819085,1.7414732518906353,jump
10/07/2020, 20:30:33,-1.4141582,4.362116,-0.36370903,-0.6337567,0.5788067,0.85599893,4.6000198392819085,1.2121876583588342,jump
10/07/2020, 20:30:34,11.629118,-1.6797615,0.99302137,-0.7326667,1.9745368,2.3335435,11.791695166242254,3.143409197312276,jump
10/07/2020, 20:30:34,11.629118,-1.6797615,0.99302137,-0.9744467,2.052688,2.3665135,11.791695166242254,3.2807712578594694,jump
10/07/2020, 20:30:34,11.215159,-1.7754744,1.0671989,-0.9744467,2.052688,2.3665135,11.40486841716528,3.2807712578594694,jump
10/07/2020, 20:30:34,11.215159,-1.7754744,1.0671989,-1.1734878,2.052688,2.4019256,11.40486841716528,3.3704372915519127,jump
10/07/2020, 20:30:34,10.736595,-1.9190438,1.1796615,-1.1734878,2.052688,2.4019256,10.97036033171726,3.3704372915519127,jump
10/07/2020, 20:30:34,10.736595,-1.9190438,1.1796615,-1.3322322,1.9965167,2.426348,10.97036033171726,3.4129292639480835,jump
10/07/2020, 20:30:34,10.332209,-2.0697916,1.2729816,-1.3322322,1.9965167,2.426348,10.61409697489806,3.4129292639480835,jump
10/07/2020, 20:30:34,10.332209,-2.0697916,1.2729816,-1.4580067,1.911039,2.43978,10.61409697489806,3.424964251712408,jump
10/07/2020, 20:30:34,10.284351,-2.2205393,1.1700903,-1.4580067,1.911039,2.43978,10.586207486217083,3.424964251712408,jump
10/07/2020, 20:30:34,10.284351,-2.2205393,1.1700903,-1.5740123,1.7620634,2.4422224,10.586207486217083,3.3980629872791557,jump
10/07/2020, 20:30:34,10.700703,-2.3952155,0.9762716,-1.5740123,1.7620634,2.4422224,11.00886920680402,3.3980629872791557,jump
10/07/2020, 20:30:34,10.700703,-2.3952155,0.9762716,-1.6741434,1.6216357,2.4239056,11.00886920680402,3.362703809617972,jump
10/07/2020, 20:30:34,11.387443,-2.548356,0.81834537,-1.6741434,1.6216357,2.4239056,11.697762882011792,3.362703809617972,jump
10/07/2020, 20:30:34,11.387443,-2.548356,0.81834537,-1.7669479,1.6460578,2.4129157,11.697762882011792,3.413762351570013,jump
10/07/2020, 20:30:34,11.949757,-2.5914268,0.7537391,-1.7669479,1.6460578,2.4129157,12.250726472623203,3.413762351570013,jump
10/07/2020, 20:30:34,11.949757,-2.5914268,0.7537391,-1.834109,1.7974756,2.3872724,12.250726472623203,3.5062720080555763,jump
10/07/2020, 20:30:34,12.162718,-2.510071,0.65084773,-1.834109,1.7974756,2.3872724,12.436067068942275,3.5062720080555763,jump
10/07/2020, 20:30:34,12.162718,-2.510071,0.65084773,-1.8829534,1.9379034,2.3274379,12.436067068942275,3.566223521503564,jump
10/07/2020, 20:30:34,11.921042,-2.4047868,0.59581286,-1.8829534,1.9379034,2.3274379,12.17576468017279,3.566223521503564,jump
10/07/2020, 20:30:34,11.921042,-2.4047868,0.59581286,-1.8988279,1.9598835,2.2602768,12.17576468017279,3.5433799915012254,jump
10/07/2020, 20:30:35,6.3888364,-2.5172493,3.842873,-0.45181113,1.5984346,5.5523925,7.869018251572838,5.795531783240392,jump
10/07/2020, 20:30:35,6.3888364,-2.5172493,3.842873,0.007326667,1.5300523,5.3313713,7.869018251572838,5.5465875771440105,jump
10/07/2020, 20:30:35,5.3503513,-1.4979069,3.6514473,0.007326667,1.5300523,5.3313713,6.648537576077081,5.5465875771440105,jump
10/07/2020, 20:30:35,5.3503513,-1.4979069,3.6514473,0.32359445,1.4751023,5.09936,6.648537576077081,5.318280970316293,jump
10/07/2020, 20:30:35,4.3525443,-0.60059845,3.3523445,0.32359445,1.4751023,5.09936,5.526624122149186,5.318280970316293,jump
10/07/2020, 20:30:35,4.3525443,-0.60059845,3.3523445,0.4908867,1.4335845,4.880781,5.526624122149186,5.110592821422261,jump
10/07/2020, 20:30:35,3.3547373,0.18185452,2.9312077,0.4908867,1.4335845,4.880781,4.458622166389299,5.110592821422261,jump
10/07/2020, 20:30:35,3.3547373,0.18185452,2.9312077,0.48966557,1.3822979,4.6548758,4.458622166389299,4.88040859732154,jump
10/07/2020, 20:30:35,2.4765713,0.85184485,2.5603201,0.48966557,1.3822979,4.6548758,3.6625516198322927,4.88040859732154,jump
10/07/2020, 20:30:35,2.4765713,0.85184485,2.5603201,0.33214223,1.3188001,4.370357,3.6625516198322927,4.57707032639496,jump
10/07/2020, 20:30:35,1.7874385,1.1581261,2.0554347,0.33214223,1.3188001,4.370357,2.95989938265316,4.57707032639496,jump
10/07/2020, 20:30:35,1.7874385,1.1581261,2.0554347,0.085477784,1.2162267,4.074848,2.95989938265316,4.2533400381019835,jump
10/07/2020, 20:30:35,1.1964114,1.605584,1.902294,0.085477784,1.2162267,4.074848,2.7618875511783854,4.2533400381019835,jump
10/07/2020, 20:30:35,1.1964114,1.605584,1.902294,-0.21491556,1.1356333,3.669439,2.7618875511783854,3.847159334400518,jump
10/07/2020, 20:30:35,0.7680961,1.9525433,1.6630118,-0.21491556,1.1356333,3.669439,2.6773130169788564,3.847159334400518,jump
10/07/2020, 20:30:35,0.7680961,1.9525433,1.6630118,-0.49577114,1.0562612,3.1919847,2.6773130169788564,3.398564805233016,jump
10/07/2020, 20:30:35,0.39960137,2.2588246,1.4213367,-0.49577114,1.0562612,3.1919847,2.698549173957807,3.398564805233016,jump
10/07/2020, 20:30:35,0.39960137,2.2588246,1.4213367,-0.7338878,0.9549089,2.7206357,2.698549173957807,2.9752816112176204,jump
10/07/2020, 20:30:35,0.0023928226,2.4430718,1.2801601,-0.7338878,0.9549089,2.7206357,2.7581543747900907,2.9752816112176204,jump
10/07/2020, 20:30:35,0.0023928226,2.4430718,1.2801601,-0.9414767,0.8413456,2.29691,2.7581543747900907,2.6210754626017616,jump
10/07/2020, 20:30:36,12.234502,-2.6751757,6.24766,-2.6302733,-0.27963445,1.0452712,13.995458462112316,2.8441387223328984,jump
10/07/2020, 20:30:36,12.023933,-4.3118663,7.149754,-2.6302733,-0.27963445,1.0452712,14.638515923682428,2.8441387223328984,jump
10/07/2020, 20:30:36,12.023933,-4.3118663,7.149754,-2.3970413,-0.07937223,0.8230289,14.638515923682428,2.5356426504256397,jump
10/07/2020, 20:30:36,11.4496565,-5.7260246,7.7240314,-2.3970413,-0.07937223,0.8230289,14.951342866488286,2.5356426504256397,jump
10/07/2020, 20:30:36,11.4496565,-5.7260246,7.7240314,-2.1027534,0.05617111,0.5702589,14.951342866488286,2.1794316435723653,jump
10/07/2020, 20:30:36,10.557134,-6.8578296,8.085348,-2.1027534,0.05617111,0.5702589,14.961809790833785,2.1794316435723653,jump
10/07/2020, 20:30:36,10.557134,-6.8578296,8.085348,-1.72543,0.15630223,0.38465002,14.961809790833785,1.7746815915440128,jump
10/07/2020, 20:30:36,9.499506,-7.54457,8.1738825,-1.72543,0.15630223,0.38465002,14.62783323225277,1.7746815915440128,jump
10/07/2020, 20:30:36,9.499506,-7.54457,8.1738825,-1.2357645,0.19537778,0.30405667,14.62783323225277,1.28753129938812,jump
10/07/2020, 20:30:36,8.449057,-7.704889,8.114061,-1.2357645,0.19537778,0.30405667,14.021050648203454,1.28753129938812,jump
10/07/2020, 20:30:36,8.449057,-7.704889,8.114061,-0.65940005,0.18072446,0.29795113,14.021050648203454,0.7458180923757664,jump
10/07/2020, 20:30:36,7.530213,-7.4440713,7.9369926,-0.65940005,0.18072446,0.29795113,13.233070530689014,0.7458180923757664,jump
10/07/2020, 20:30:36,7.530213,-7.4440713,7.9369926,-0.07326667,0.11966889,0.28085557,13.233070530689014,0.31395620415126746,jump
10/07/2020, 20:30:36,6.836294,-6.7836523,7.6594253,-0.07326667,0.11966889,0.28085557,12.305269275073792,0.31395620415126746,jump
10/07/2020, 20:30:36,6.836294,-6.7836523,7.6594253,0.45303226,0.02075889,0.21735778,12.305269275073792,0.5029051224753098,jump
10/07/2020, 20:30:36,6.3361945,-5.881558,7.475178,0.45303226,0.02075889,0.21735778,11.428839283585676,0.5029051224753098,jump
10/07/2020, 20:30:36,6.3361945,-5.881558,7.475178,0.8816423,-0.04151778,0.12821667,11.428839283585676,0.8918835986935826,jump
10/07/2020, 20:30:36,6.0921264,-4.974678,7.331609,0.8816423,-0.04151778,0.12821667,10.752391012635226,0.8918835986935826,jump
10/07/2020, 20:30:36,6.0921264,-4.974678,7.331609,1.1942468,-0.039075557,0.05372889,10.752391012635226,1.1960932396358106,jump
10/07/2020, 20:30:36,6.0394845,-4.139583,7.1066833,1.1942468,-0.039075557,0.05372889,10.20374775481298,1.1960932396358106,jump
10/07/2020, 20:30:37,17.800207,-4.938786,9.255438,-3.0613258,3.9136612,3.9698324,20.661609603780548,6.359876519433556,jump
10/07/2020, 20:30:37,18.697515,-5.302495,9.138189,-3.0613258,3.9136612,3.9698324,21.47603414593048,6.359876519433556,jump
10/07/2020, 20:30:37,18.697515,-5.302495,9.138189,-3.3885834,4.0369935,4.3666935,21.47603414593048,6.844547190859109,jump
10/07/2020, 20:30:37,19.453648,-5.761917,8.7673025,-3.3885834,4.0369935,4.3666935,22.10225526183707,6.844547190859109,jump
10/07/2020, 20:30:37,19.453648,-5.761917,8.7673025,-3.6731024,4.0809536,4.7940826,22.10225526183707,7.288970553459265,jump
10/07/2020, 20:30:37,20.092531,-6.135197,8.250452,-3.6731024,4.0809536,4.7940826,22.570343668366935,7.288970553459265,jump
10/07/2020, 20:30:37,20.092531,-6.135197,8.250452,-3.96739,4.0895014,5.259326,22.570343668366935,7.75401284574659,jump
10/07/2020, 20:30:37,20.745771,-6.532406,7.8221374,-3.96739,4.0895014,5.259326,23.113744620058437,7.75401284574659,jump
10/07/2020, 20:30:37,20.745771,-6.532406,7.8221374,-4.3288393,4.076069,5.788067,23.113744620058437,8.297885587605766,jump
10/07/2020, 20:30:37,21.54019,-6.920043,7.2287173,-4.3288393,4.076069,5.788067,23.751234144097587,8.297885587605766,jump
10/07/2020, 20:30:37,21.54019,-6.920043,7.2287173,-4.6744137,3.9966967,6.327798,23.751234144097587,8.824100746865257,jump
10/07/2020, 20:30:37,22.375284,-7.381858,6.3864436,-4.6744137,3.9966967,6.327798,24.41171502566377,8.824100746865257,jump
10/07/2020, 20:30:37,22.375284,-7.381858,6.3864436,-4.8685703,3.9087768,6.810137,24.41171502566377,9.23901921005974,jump
10/07/2020, 20:30:37,23.038095,-7.960921,5.6183476,-4.8685703,3.9087768,6.810137,25.013914797417602,9.23901921005974,jump
10/07/2020, 20:30:37,23.038095,-7.960921,5.6183476,-4.8588014,3.889239,7.237526,25.013914797417602,9.545465572734406,jump
10/07/2020, 20:30:37,23.181665,-8.803194,5.0177493,-4.8588014,3.889239,7.237526,25.299479149080867,9.545465572734406,jump
10/07/2020, 20:30:37,23.181665,-8.803194,5.0177493,-4.6499915,3.8599324,7.591648,25.299479149080867,9.703330370210264,jump
10/07/2020, 20:30:37,22.602602,-9.676575,4.412365,-4.6499915,3.8599324,7.591648,24.979645313637747,9.703330370210264,jump
10/07/2020, 20:30:37,22.602602,-9.676575,4.412365,-4.2018437,3.690198,7.787026,24.979645313637747,9.58701332454297,jump
10/07/2020, 20:30:37,21.43012,-10.133604,4.0103707,-4.2018437,3.690198,7.787026,24.04211030083717,9.58701332454297,jump
10/07/2020, 20:30:38,14.344972,0.29910284,2.5292134,-2.3787246,2.2102113,4.459498,14.56930317180072,5.516383441013357,jump
10/07/2020, 20:30:38,14.344972,0.29910284,2.5292134,-2.6962135,2.1345024,4.7745447,14.56930317180072,5.884041547807187,jump
10/07/2020, 20:30:38,14.66561,0.0023928226,2.7230322,-2.6962135,2.1345024,4.7745447,14.916267500597987,5.884041547807187,jump
10/07/2020, 20:30:38,14.66561,0.0023928226,2.7230322,-2.878159,2.0453613,5.028536,14.916267500597987,6.144385647555113,jump
10/07/2020, 20:30:38,15.481563,-0.10289137,3.1752756,-2.878159,2.0453613,5.028536,15.80416851743791,6.144385647555113,jump
10/07/2020, 20:30:38,15.481563,-0.10289137,3.1752756,-2.9416568,1.9427879,5.1225615,15.80416851743791,6.218392518963651,jump
10/07/2020, 20:30:38,16.316658,0.29671,3.0987053,-2.9416568,1.9427879,5.1225615,16.610940378557338,6.218392518963651,jump
10/07/2020, 20:30:38,16.316658,0.29671,3.0987053,-2.988059,1.889059,5.032199,16.610940378557338,6.1498021420285855,jump
10/07/2020, 20:30:38,16.721045,1.1294123,2.806781,-2.988059,1.889059,5.032199,16.99255491482389,6.1498021420285855,jump
10/07/2020, 20:30:38,16.721045,1.1294123,2.806781,-3.0698736,2.0184968,4.889329,16.99255491482389,6.115880192352445,jump
10/07/2020, 20:30:38,16.235302,1.9645073,2.565106,-3.0698736,2.0184968,4.889329,16.553672932421343,6.115880192352445,jump
10/07/2020, 20:30:38,16.235302,1.9645073,2.565106,-3.2249546,2.2224224,4.8148413,16.553672932421343,6.206624671824804,jump
10/07/2020, 20:30:38,14.9814625,2.4071796,2.3928227,-3.2249546,2.2224224,4.8148413,15.361130566258312,6.206624671824804,jump
10/07/2020, 20:30:38,14.9814625,2.4071796,2.3928227,-3.4239957,2.2932467,4.7867556,15.361130566258312,6.316308750244643,jump
10/07/2020, 20:30:38,13.4763775,2.306681,2.4598217,-3.4239957,2.2932467,4.7867556,13.891877117015659,6.316308750244643,jump
10/07/2020, 20:30:38,13.4763775,2.306681,2.4598217,-3.5961723,2.1357234,4.7525644,13.891877117015659,6.330927131835554,jump
10/07/2020, 20:30:38,12.021541,1.524228,2.4837499,-3.5961723,2.1357234,4.7525644,12.369709928959715,6.330927131835554,jump
10/07/2020, 20:30:38,12.021541,1.524228,2.4837499,-3.6718812,1.8084656,4.665866,12.369709928959715,6.206735369298265,jump
10/07/2020, 20:30:38,10.985449,0.124426775,2.7182465,-3.6718812,1.8084656,4.665866,11.31743928615701,6.206735369298265,jump
10/07/2020, 20:30:38,10.985449,0.124426775,2.7182465,-3.5632024,1.4457957,4.474151,11.31743928615701,5.899556310429405,jump
10/07/2020, 20:30:39,8.932407,-4.4482574,5.252246,1.1222012,0.9133912,0.9915423,11.276567869760095,1.754073849674243,jump
10/07/2020, 20:30:39,9.131011,-4.0438704,5.1254263,1.1222012,0.9133912,0.9915423,11.2248939833873,1.754073849674243,jump
10/07/2020, 20:30:39,9.131011,-4.0438704,5.1254263,1.1954678,0.9964267,1.0806834,11.2248939833873,1.894699450465779,jump
10/07/2020, 20:30:39,9.336794,-3.6275191,5.0775695,1.1954678,0.9964267,1.0806834,11.230152591934095,1.894699450465779,jump
10/07/2020, 20:30:39,9.336794,-3.6275191,5.0775695,1.2052367,1.0867889,1.1563922,11.230152591934095,1.9927238882995815,jump
10/07/2020, 20:30:39,9.590433,-3.2853456,4.979464,1.2052367,1.0867889,1.1563922,11.294466128188498,1.9927238882995815,jump
10/07/2020, 20:30:39,9.590433,-3.2853456,4.979464,1.1490656,1.1783723,1.240649,11.294466128188498,2.0610974942489744,jump
10/07/2020, 20:30:39,9.844072,-2.940779,4.95075,1.1490656,1.1783723,1.240649,11.404554596458496,2.0610974942489744,jump
10/07/2020, 20:30:39,9.844072,-2.940779,4.95075,1.0391656,1.2699556,1.32979,11.404554596458496,2.11210651399296,jump
10/07/2020, 20:30:39,10.155139,-2.6368906,4.9340005,1.0391656,1.2699556,1.32979,11.594153726910948,2.11210651399296,jump
10/07/2020, 20:30:39,10.155139,-2.6368906,4.9340005,0.8743156,1.3542123,1.4201523,11.594153726910948,2.1482903171220693,jump
10/07/2020, 20:30:39,10.497313,-2.3808584,4.9770713,0.8743156,1.3542123,1.4201523,11.85889101411045,2.1482903171220693,jump
10/07/2020, 20:30:39,10.497313,-2.3808584,4.9770713,0.6618422,1.4409112,1.5386001,11.85889101411045,2.2094230858946218,jump
10/07/2020, 20:30:39,10.944771,-2.158326,5.063213,0.6618422,1.4409112,1.5386001,12.250816440862842,2.2094230858946218,jump
10/07/2020, 20:30:39,10.944771,-2.158326,5.063213,0.40785113,1.5569167,1.680249,12.250816440862842,2.3267077207978666,jump
10/07/2020, 20:30:39,11.492727,-2.1272194,5.326423,0.40785113,1.5569167,1.680249,12.844400594462131,2.3267077207978666,jump
10/07/2020, 20:30:39,11.492727,-2.1272194,5.326423,0.11966889,1.7058923,1.8780689,12.844400594462131,2.539986643624755,jump
10/07/2020, 20:30:39,12.196217,-2.2660031,5.666204,0.11966889,1.7058923,1.8780689,13.637754090509254,2.539986643624755,jump
10/07/2020, 20:30:39,12.196217,-2.2660031,5.666204,-0.19537778,1.8487623,2.13206,13.637754090509254,2.8287407946992618,jump
10/07/2020, 20:30:39,12.952349,-2.4358935,5.9246287,-0.19537778,1.8487623,2.13206,14.449849135608673,2.8287407946992618,jump
10/07/2020, 20:30:40,7.429714,-4.883751,2.6895328,0.93903446,-0.12821667,0.38220778,9.288986090598538,1.0219139018979577,jump
10/07/2020, 20:30:40,8.16431,-4.8885365,2.7637103,0.93903446,-0.12821667,0.38220778,9.909179999828527,1.0219139018979577,jump
10/07/2020, 20:30:40,8.16431,-4.8885365,2.7637103,0.9597934,-0.091583334,0.59956557,9.909179999828527,1.1353720640187994,jump
10/07/2020, 20:30:40,8.941978,-4.790431,2.7565317,0.9597934,-0.091583334,0.59956557,10.512167957325799,1.1353720640187994,jump
10/07/2020, 20:30:40,8.941978,-4.790431,2.7565317,0.9536878,-0.008547778,0.82425004,10.512167957325799,1.2605481316286402,jump
10/07/2020, 20:30:40,9.556933,-4.5942197,2.6632116,0.9536878,-0.008547778,0.82425004,10.93318464682993,1.2605481316286402,jump
10/07/2020, 20:30:40,9.556933,-4.5942197,2.6632116,0.90240115,0.09524667,1.0501556,10.93318464682993,1.3878856690454184,jump
10/07/2020, 20:30:40,9.997213,-4.2759743,2.5028925,0.90240115,0.09524667,1.0501556,11.15762976016903,1.3878856690454184,jump
10/07/2020, 20:30:40,9.997213,-4.2759743,2.5028925,0.80593336,0.2075889,1.2894934,11.15762976016903,1.534736153370423,jump
10/07/2020, 20:30:40,10.219746,-3.9098723,2.2995026,0.80593336,0.2075889,1.2894934,11.181145490255316,1.534736153370423,jump
10/07/2020, 20:30:40,10.219746,-3.9098723,2.2995026,0.67039,0.30649891,1.5569167,11.181145490255316,1.722600941501168,jump
10/07/2020, 20:30:40,10.363315,-3.5150564,2.0219352,0.67039,0.30649891,1.5569167,11.12843805031663,1.722600941501168,jump
10/07/2020, 20:30:40,10.363315,-3.5150564,2.0219352,0.52019334,0.35656446,1.856089,11.12843805031663,1.9603075487862682,jump
10/07/2020, 20:30:40,10.559526,-3.2135608,1.7228323,0.52019334,0.35656446,1.856089,11.17133488273277,1.9603075487862682,jump
10/07/2020, 20:30:40,10.559526,-3.2135608,1.7228323,0.36389112,0.33580557,2.1686933,11.17133488273277,2.224502815305366,jump
10/07/2020, 20:30:40,10.997413,-2.9766715,1.4883357,0.36389112,0.33580557,2.1686933,11.489943511383276,2.224502815305366,jump
10/07/2020, 20:30:40,10.997413,-2.9766715,1.4883357,0.22712667,0.3284789,2.4886246,11.489943511383276,2.5204636833487393,jump
10/07/2020, 20:30:40,11.626725,-2.7278178,1.4237294,0.22712667,0.3284789,2.4886246,12.027000210796619,2.5204636833487393,jump
10/07/2020, 20:30:40,11.626725,-2.7278178,1.4237294,0.098910004,0.40907225,2.7816913,12.027000210796619,2.8133485127774533,jump
10/07/2020, 20:30:40,12.236895,-2.4741786,1.4787644,0.098910004,0.40907225,2.7816913,12.571789583860426,2.8133485127774533,jump
10/07/2020, 20:30:41,-2.2851455,-4.7401814,3.3667014,0.38220778,2.1369445,2.3420913,6.247070375180314,3.193431772055996,jump
10/07/2020, 20:30:41,-2.2851455,-4.7401814,3.3667014,0.41762,2.07711,2.1894524,6.247070375180314,3.046718643097613,jump
10/07/2020, 20:30:41,-2.0985055,-5.278567,2.6608188,0.41762,2.07711,2.1894524,6.272714718867449,3.046718643097613,jump
10/07/2020, 20:30:41,-2.0985055,-5.278567,2.6608188,0.6752745,1.9061545,2.0465822,6.272714718867449,2.877137372243076,jump
10/07/2020, 20:30:41,-1.7060826,-5.9724855,2.210968,0.6752745,1.9061545,2.0465822,6.593154093901089,2.877137372243076,jump
10/07/2020, 20:30:41,-1.7060826,-5.9724855,2.210968,1.119759,1.669259,1.8988279,6.593154093901089,2.765109947042503,jump
10/07/2020, 20:30:41,-1.3375878,-6.1734824,2.1224337,1.119759,1.669259,1.8988279,6.663764028649422,2.765109947042503,jump
10/07/2020, 20:30:41,-1.3375878,-6.1734824,2.1224337,1.5935501,1.3932878,1.72543,6.663764028649422,2.7308902274077993,jump
10/07/2020, 20:30:41,-1.2586247,-5.6207404,2.2085752,1.5935501,1.3932878,1.72543,6.168846204459415,2.7308902274077993,jump
10/07/2020, 20:30:41,-1.2586247,-5.6207404,2.2085752,1.922029,1.1344123,1.5447056,6.168846204459415,2.7142590645694424,jump
10/07/2020, 20:30:41,-1.4955142,-4.558327,2.5124638,1.922029,1.1344123,1.5447056,5.415476324129744,2.7142590645694424,jump
10/07/2020, 20:30:41,-1.4955142,-4.558327,2.5124638,1.9952956,0.9854367,1.4274789,5.415476324129744,2.643858201465051,jump
10/07/2020, 20:30:41,-1.9549361,-3.3379877,2.7732813,1.9952956,0.9854367,1.4274789,4.759729649138208,2.643858201465051,jump
10/07/2020, 20:30:41,-1.9549361,-3.3379877,2.7732813,1.8621945,0.9365923,1.4384689,4.759729649138208,2.5326204748986205,jump
10/07/2020, 20:30:41,-2.565106,-2.1966112,3.0987053,1.8621945,0.9365923,1.4384689,4.583322316314857,2.5326204748986205,jump
10/07/2020, 20:30:41,-2.565106,-2.1966112,3.0987053,1.67048,0.94514006,1.5068512,4.583322316314857,2.4401626464980426,jump
10/07/2020, 20:30:41,-3.3619158,-1.0552348,3.507878,1.67048,0.94514006,1.5068512,4.972042538821676,2.4401626464980426,jump
10/07/2020, 20:30:41,-3.3619158,-1.0552348,3.507878,1.4995245,0.9426978,1.5239468,4.972042538821676,2.3365929401170367,jump
10/07/2020, 20:30:41,-4.180261,-0.14117654,3.6634114,1.4995245,0.9426978,1.5239468,5.560134611941667,2.3365929401170367,jump
10/07/2020, 20:30:41,-4.180261,-0.14117654,3.6634114,1.3236845,0.86821,1.5654645,5.560134611941667,2.226344146492816,jump
10/07/2020, 20:30:42,17.977276,-10.54517,11.942577,6.1580634,-3.2933369,-3.0137024,24.020995144418947,7.605932869919234,jump
10/07/2020, 20:30:42,15.4217415,-8.523234,11.332408,6.1580634,-3.2933369,-3.0137024,20.949918961790868,7.605932869919234,jump
10/07/2020, 20:30:42,15.4217415,-8.523234,11.332408,5.4278393,-3.0686524,-2.0600145,20.949918961790868,6.566713517721295,jump
10/07/2020, 20:30:42,13.526627,-5.326423,11.148161,5.4278393,-3.0686524,-2.0600145,18.319986430363922,6.566713517721295,jump
10/07/2020, 20:30:42,13.526627,-5.326423,11.148161,4.3618093,-3.0075967,-1.394509,18.319986430363922,5.4786561579093975,jump
10/07/2020, 20:30:42,12.933207,-2.1750758,10.521241,4.3618093,-3.0075967,-1.394509,16.81354521264396,5.4786561579093975,jump
10/07/2020, 20:30:42,12.933207,-2.1750758,10.521241,3.2017534,-2.790239,-0.69481224,16.81354521264396,4.303419913332509,jump
10/07/2020, 20:30:42,13.351951,0.7848458,10.030712,3.2017534,-2.790239,-0.69481224,16.718425607761603,4.303419913332509,jump
10/07/2020, 20:30:42,13.351951,0.7848458,10.030712,2.0954268,-2.2541711,0.078151114,16.718425607761603,3.0786699334159637,jump
10/07/2020, 20:30:42,14.038691,2.804388,9.3200445,2.0954268,-2.2541711,0.078151114,17.08252484145635,3.0786699334159637,jump
10/07/2020, 20:30:42,14.038691,2.804388,9.3200445,0.9744467,-1.5825601,0.60933447,17.08252484145635,1.9558454039945803,jump
10/07/2020, 20:30:42,14.266008,3.3212378,8.475378,0.9744467,-1.5825601,0.60933447,16.922814435463778,1.9558454039945803,jump
10/07/2020, 20:30:42,14.266008,3.3212378,8.475378,-0.025643334,-0.98910004,0.78395337,16.922814435463778,1.2623626071646568,jump
10/07/2020, 20:30:42,13.720445,2.7278178,7.690532,-0.025643334,-0.98910004,0.78395337,15.96357972505633,1.2623626071646568,jump
10/07/2020, 20:30:42,13.720445,2.7278178,7.690532,-0.70946556,-0.54339445,0.7949434,15.96357972505633,1.1960576519458448,jump
10/07/2020, 20:30:42,12.610175,1.8544376,7.1162543,-0.70946556,-0.54339445,0.7949434,14.5978262538387,1.1960576519458448,jump
10/07/2020, 20:30:42,12.610175,1.8544376,7.1162543,-1.1136534,-0.25643334,0.8169234,14.5978262538387,1.404758274018962,jump
10/07/2020, 20:30:42,11.353944,1.1581261,6.812366,-1.1136534,-0.25643334,0.8169234,13.291411780295324,1.404758274018962,jump
10/07/2020, 20:30:42,11.353944,1.1581261,6.812366,-1.4030567,-0.098910004,0.8547778,13.291411780295324,1.6459029485941108,jump
10/07/2020, 20:30:42,10.18146,0.8709874,6.73101,-1.4030567,-0.098910004,0.8547778,12.236308660801217,1.6459029485941108,jump
10/07/2020, 20:30:43,7.999206,-4.883751,5.1326046,0.11112112,0.23567446,-0.23933779,10.685595475359179,0.3537978635901368,jump
10/07/2020, 20:30:43,7.743174,-4.7425747,5.003392,0.11112112,0.23567446,-0.23933779,10.367386034199315,0.3537978635901368,jump
10/07/2020, 20:30:43,7.743174,-4.7425747,5.003392,0.32481557,0.21735778,-0.16973445,10.367386034199315,0.42609781125355567,jump
10/07/2020, 20:30:43,7.5732837,-4.536792,4.855037,0.32481557,0.21735778,-0.16973445,10.075142270204678,0.42609781125355567,jump
10/07/2020, 20:30:43,7.5732837,-4.536792,4.855037,0.47867557,0.20514667,-0.10501556,10.075142270204678,0.5312661570313483,jump
10/07/2020, 20:30:43,7.5469627,-4.2592244,4.7018967,0.47867557,0.20514667,-0.10501556,9.859283516403696,0.5312661570313483,jump
10/07/2020, 20:30:43,7.5469627,-4.2592244,4.7018967,0.5592689,0.2185789,-0.03297,9.859283516403696,0.601369646643978,jump
10/07/2020, 20:30:43,7.690532,-3.991228,4.5678983,0.5592689,0.2185789,-0.03297,9.79489060921281,0.601369646643978,jump
10/07/2020, 20:30:43,7.690532,-3.991228,4.5678983,0.5702589,0.2735289,0.06227667,9.79489060921281,0.6355247243619708,jump
10/07/2020, 20:30:43,7.884351,-3.7040894,4.3669014,0.5702589,0.2735289,0.06227667,9.744387784434641,0.6355247243619708,jump
10/07/2020, 20:30:43,7.884351,-3.7040894,4.3669014,0.5250778,0.36389112,0.15630223,9.744387784434641,0.657688265199534,jump
10/07/2020, 20:30:43,8.059027,-3.438486,4.1347976,0.5250778,0.36389112,0.15630223,9.68853184279253,0.657688265199534,jump
10/07/2020, 20:30:43,8.059027,-3.438486,4.1347976,0.4249467,0.4591378,0.26009667,9.68853184279253,0.6775230537484533,jump
10/07/2020, 20:30:43,8.154739,-3.196811,3.8907297,0.4249467,0.4591378,0.26009667,9.584213687345668,0.6775230537484533,jump
10/07/2020, 20:30:43,8.154739,-3.196811,3.8907297,0.28574002,0.53851,0.3712178,9.584213687345668,0.7137527933010428,jump
10/07/2020, 20:30:43,8.255239,-2.9718857,3.6275191,0.28574002,0.53851,0.3712178,9.494206801125651,0.7137527933010428,jump
10/07/2020, 20:30:43,8.255239,-2.9718857,3.6275191,0.117226675,0.5788067,0.5018767,9.494206801125651,0.7750093685129756,jump
10/07/2020, 20:30:43,8.374879,-2.78046,3.359523,0.117226675,0.5788067,0.5018767,9.442242775775945,0.7750093685129756,jump
10/07/2020, 20:30:43,8.374879,-2.78046,3.359523,-0.057392225,0.58247,0.6557367,9.442242775775945,0.8789515162393959,jump
10/07/2020, 20:30:43,8.659625,-2.6273193,3.1250265,-0.057392225,0.58247,0.6557367,9.57380297280832,0.8789515162393959,jump
10/07/2020, 20:30:44,12.9547415,-2.9623144,6.2213387,0.25521225,1.7022289,2.3249958,14.673298504446107,2.89280517804989,jump
