DATE,TIME,ax,ay,az,gx,gy,gz,ma,mg,label
10/07/2020, 09:35:47,-1.7300107,-0.50488555,9.77468,-0.07204556,-0.04029667,0.06716111,9.939427468617053,0.10641897872114697,jump
10/07/2020, 09:35:47,-1.7300107,-0.50488555,9.77468,-0.10745778,-0.06960334,0.08425667,9.939427468617053,0.1532676932361243,jump
10/07/2020, 09:35:47,-1.9669002,-0.34217364,9.568898,-0.10745778,-0.06960334,0.08425667,9.774947165619785,0.1532676932361243,jump
10/07/2020, 09:35:47,-1.9669002,-0.34217364,9.568898,-0.13676445,-0.11356334,0.037854444,9.774947165619785,0.18175286964141893,jump
10/07/2020, 09:35:47,-1.902294,-0.49052864,9.62154,-0.13676445,-0.11356334,0.037854444,9.82004960648597,0.18175286964141893,jump
10/07/2020, 09:35:47,-1.902294,-0.49052864,9.62154,-0.15019667,-0.08303556,-0.0036633336,9.82004960648597,0.17166060732625196,jump
10/07/2020, 09:35:47,-1.7180467,-0.74177504,9.631111,-0.15019667,-0.08303556,-0.0036633336,9.811229099114847,0.17166060732625196,jump
10/07/2020, 09:35:47,-1.7180467,-0.74177504,9.631111,-0.08425667,-0.05006556,-0.009768889,9.811229099114847,0.0984945582575431,jump
10/07/2020, 09:35:47,-1.5433706,-0.86141616,9.643075,-0.08425667,-0.05006556,-0.009768889,9.803720001868875,0.0984945582575431,jump
10/07/2020, 09:35:47,-1.5433706,-0.86141616,9.643075,0.025643334,-0.0061055557,-0.0012211112,9.803720001868875,0.02638843479098759,jump
10/07/2020, 09:35:47,-1.5266209,-0.89491564,9.640682,0.025643334,-0.0061055557,-0.0012211112,9.801744688792668,0.02638843479098759,jump
10/07/2020, 09:35:47,-1.5266209,-0.89491564,9.640682,0.10501556,0.024422223,0.0024422223,9.801744688792668,0.10784561865348188,jump
10/07/2020, 09:35:47,-1.6199409,-0.81834537,9.623933,0.10501556,0.024422223,0.0024422223,9.79356834176534,0.10784561865348188,jump
10/07/2020, 09:35:47,-1.6199409,-0.81834537,9.623933,0.12211112,0.04151778,-0.018316668,9.79356834176534,0.1302703027001221,jump
10/07/2020, 09:35:47,-1.7300107,-0.6963114,9.638289,0.12211112,0.04151778,-0.018316668,9.817046924930777,0.1302703027001221,jump
10/07/2020, 09:35:47,-1.7300107,-0.6963114,9.638289,0.106236674,0.035412222,-0.018316668,9.817046924930777,0.11347139139985535,jump
10/07/2020, 09:35:47,-1.8424734,-0.5694918,9.686146,0.106236674,0.035412222,-0.018316668,9.876256842455286,0.11347139139985535,jump
10/07/2020, 09:35:47,-1.8424734,-0.5694918,9.686146,0.06349778,0.015874445,-0.012211111,9.876256842455286,0.06658136035400274,jump
10/07/2020, 09:35:47,-1.8281165,-0.48095736,9.786645,0.06349778,0.015874445,-0.012211111,9.967534757733178,0.06658136035400274,jump
10/07/2020, 09:35:47,-1.8281165,-0.48095736,9.786645,0.02075889,-0.0024422223,-0.012211111,9.967534757733178,0.024207585359351164,jump
10/07/2020, 09:35:48,1.1389836,-6.3888364,9.58804,-1.3236845,-1.3774134,-1.3004833,11.577781816304018,2.3109879098553074,jump
10/07/2020, 09:35:48,1.1389836,-6.3888364,9.58804,-1.3481067,-1.295599,-1.4580067,11.577781816304018,2.371023442960677,jump
10/07/2020, 09:35:48,1.282553,-6.276374,9.322437,-1.3481067,-1.295599,-1.4580067,11.31130619858849,2.371023442960677,jump
10/07/2020, 09:35:48,1.282553,-6.276374,9.322437,-1.5141778,-1.2479756,-1.5984346,11.31130619858849,2.5308438398972597,jump
10/07/2020, 09:35:48,1.3304094,-6.0729837,9.013762,-1.5141778,-1.2479756,-1.5984346,10.94984176407723,2.5308438398972597,jump
10/07/2020, 09:35:48,1.3304094,-6.0729837,9.013762,-1.7889278,-1.2003523,-1.7193245,10.94984176407723,2.7562991406706865,jump
10/07/2020, 09:35:48,1.4333007,-5.845666,8.602198,-1.7889278,-1.2003523,-1.7193245,10.498760190497787,2.7562991406706865,jump
10/07/2020, 09:35:48,1.4333007,-5.845666,8.602198,-2.1137433,-1.1588345,-1.8096868,10.498760190497787,3.014261817025128,jump
10/07/2020, 09:35:48,1.5672989,-5.5800624,8.085348,-2.1137433,-1.1588345,-1.8096868,9.948184580555196,3.014261817025128,jump
10/07/2020, 09:35:48,1.5672989,-5.5800624,8.085348,-2.404368,-1.1246433,-1.9049335,9.948184580555196,3.267197450695431,jump
10/07/2020, 09:35:48,1.7922242,-5.3910294,7.585248,-2.404368,-1.1246433,-1.9049335,9.476879873219264,3.267197450695431,jump
10/07/2020, 09:35:48,1.7922242,-5.3910294,7.585248,-2.592419,-1.0794623,-2.009949,9.476879873219264,3.4533707436028465,jump
10/07/2020, 09:35:48,2.1248264,-5.393422,7.109076,-2.592419,-1.0794623,-2.009949,9.172941267816762,3.4533707436028465,jump
10/07/2020, 09:35:48,2.1248264,-5.393422,7.109076,-2.60463,-0.95857227,-2.1186278,9.172941267816762,3.4916388551708324,jump
10/07/2020, 09:35:48,2.495714,-5.6039906,6.687939,-2.60463,-0.95857227,-2.1186278,9.075341787306973,3.4916388551708324,jump
10/07/2020, 09:35:48,2.495714,-5.6039906,6.687939,-2.4141366,-0.7522045,-2.1980002,9.075341787306973,3.3503838853681582,jump
10/07/2020, 09:35:48,2.8833513,-5.8265233,6.4008007,-2.4141366,-0.7522045,-2.1980002,9.123175891406147,3.3503838853681582,jump
10/07/2020, 09:35:48,2.8833513,-5.8265233,6.4008007,-2.0294867,-0.4908867,-2.2370756,9.123175891406147,3.060113220438022,jump
10/07/2020, 09:35:48,3.2303107,-5.855237,6.4462643,-2.0294867,-0.4908867,-2.2370756,9.288327647585199,3.060113220438022,jump
10/07/2020, 09:35:48,3.2303107,-5.855237,6.4462643,-1.4860923,-0.25399113,-2.262719,9.288327647585199,2.718984883286285,jump
10/07/2020, 09:35:49,2.2636101,-3.4528432,8.999406,0.018316668,-0.17217667,0.17095557,9.901280863344503,0.243323064670863,jump
10/07/2020, 09:35:49,2.2636101,-3.4528432,8.999406,0.04151778,-0.20148334,0.20514667,9.901280863344503,0.29052438497962707,jump
10/07/2020, 09:35:49,2.2444677,-3.5030923,9.075976,0.04151778,-0.20148334,0.20514667,9.98411929519309,0.29052438497962707,jump
10/07/2020, 09:35:49,2.2444677,-3.5030923,9.075976,0.109900005,-0.21980001,0.23811668,9.98411929519309,0.34218359066068016,jump
10/07/2020, 09:35:49,2.2420747,-3.5246277,9.109476,0.109900005,-0.21980001,0.23811668,10.021599374973887,0.34218359066068016,jump
10/07/2020, 09:35:49,2.2420747,-3.5246277,9.109476,0.19415668,-0.23445335,0.28574002,10.021599374973887,0.4175075404532353,jump
10/07/2020, 09:35:49,2.2420747,-3.5437703,9.2075815,0.19415668,-0.23445335,0.28574002,10.11754735932001,0.4175075404532353,jump
10/07/2020, 09:35:49,2.2420747,-3.5437703,9.2075815,0.27108666,-0.24055889,0.3284789,10.11754735932001,0.4891369430487065,jump
10/07/2020, 09:35:49,2.2157538,-3.5006995,9.23151,0.27108666,-0.24055889,0.3284789,10.118559278974006,0.4891369430487065,jump
10/07/2020, 09:35:49,2.2157538,-3.5006995,9.23151,0.31138334,-0.25887558,0.37610224,10.118559278974006,0.5526563504960929,jump
10/07/2020, 09:35:49,2.1702902,-3.3523445,9.262616,0.31138334,-0.25887558,0.37610224,10.086844477091741,0.5526563504960929,jump
10/07/2020, 09:35:49,2.1702902,-3.3523445,9.262616,0.32115224,-0.29673,0.4261678,10.086844477091741,0.610578777106921,jump
10/07/2020, 09:35:49,2.0817556,-3.1872396,9.253045,0.32115224,-0.29673,0.4261678,10.00555077918915,0.610578777106921,jump
10/07/2020, 09:35:49,2.0817556,-3.1872396,9.253045,0.2942878,-0.34679556,0.4689067,10.00555077918915,0.6532579607355287,jump
10/07/2020, 09:35:49,2.0434706,-3.0652058,9.164511,0.2942878,-0.34679556,0.4689067,9.877222064732077,0.6532579607355287,jump
10/07/2020, 09:35:49,2.0434706,-3.0652058,9.164511,0.26620224,-0.3944189,0.5250778,9.877222064732077,0.7086159855717469,jump
10/07/2020, 09:35:49,1.9788643,-3.0412776,9.099904,0.26620224,-0.3944189,0.5250778,9.796607963987674,0.7086159855717469,jump
10/07/2020, 09:35:49,1.9788643,-3.0412776,9.099904,0.24666445,-0.4383789,0.58247,9.796607963987674,0.7696042564575536,jump
10/07/2020, 09:35:49,1.9932213,-3.0388846,9.078369,0.24666445,-0.4383789,0.58247,9.778779943834538,0.7696042564575536,jump
10/07/2020, 09:35:49,1.9932213,-3.0388846,9.078369,0.25521225,-0.47623336,0.64841,9.778779943834538,0.8440184028519404,jump
10/07/2020, 09:35:50,-9.475577,-2.7062824,4.9986067,1.3456645,-0.30161446,-1.2565234,11.049732995179458,1.8656460584676033,jump
10/07/2020, 09:35:50,-9.475577,-2.7062824,4.9986067,0.9878789,-0.40174556,-1.339559,11.049732995179458,1.712227337641036,jump
10/07/2020, 09:35:50,-9.3104725,-2.2636101,5.1062837,0.9878789,-0.40174556,-1.339559,10.857392026535145,1.712227337641036,jump
10/07/2020, 09:35:50,-9.3104725,-2.2636101,5.1062837,0.6447467,-0.46402225,-1.3981723,10.857392026535145,1.6080735829818922,jump
10/07/2020, 09:35:50,-9.250652,-1.9046868,5.168497,0.6447467,-0.46402225,-1.3981723,10.766418261551669,1.6080735829818922,jump
10/07/2020, 09:35:50,-9.250652,-1.9046868,5.168497,0.34191114,-0.53973114,-1.46167,10.766418261551669,1.5952091535155137,jump
10/07/2020, 09:35:50,-9.305687,-1.6773686,5.218746,0.34191114,-0.53973114,-1.46167,10.800216985237302,1.5952091535155137,jump
10/07/2020, 09:35:50,-9.305687,-1.6773686,5.218746,0.064718895,-0.61544,-1.5434844,10.800216985237302,1.6629188759509963,jump
10/07/2020, 09:35:50,-9.468399,-1.5816557,5.24746,0.064718895,-0.61544,-1.5434844,10.94020341184495,1.6629188759509963,jump
10/07/2020, 09:35:50,-9.468399,-1.5816557,5.24746,-0.16485001,-0.70336,-1.6228567,10.94020341184495,1.7763881422026087,jump
10/07/2020, 09:35:50,-9.657433,-1.6582261,5.3359947,-0.16485001,-0.70336,-1.6228567,11.15744402359017,1.7763881422026087,jump
10/07/2020, 09:35:50,-9.657433,-1.6582261,5.3359947,-0.3162678,-0.8230289,-1.6863545,11.15744402359017,1.902943372970729,jump
10/07/2020, 09:35:50,-9.731609,-1.8807586,5.4173503,-0.3162678,-0.8230289,-1.6863545,11.29553706982827,1.902943372970729,jump
10/07/2020, 09:35:50,-9.731609,-1.8807586,5.4173503,-0.41151446,-0.9133912,-1.746189,11.29553706982827,2.013157620223538,jump
10/07/2020, 09:35:50,-9.645468,-2.1774685,5.4460645,-0.41151446,-0.9133912,-1.746189,11.288757050473963,2.013157620223538,jump
10/07/2020, 09:35:50,-9.645468,-2.1774685,5.4460645,-0.45547447,-0.9500245,-1.7816012,11.288757050473963,2.0698082796970607,jump
10/07/2020, 09:35:50,-9.437292,-2.376073,5.4867425,-0.45547447,-0.9500245,-1.7816012,11.171953622031891,2.0698082796970607,jump
10/07/2020, 09:35:50,-9.437292,-2.376073,5.4867425,-0.45547447,-0.9317078,-1.7938123,11.171953622031891,2.0720277243519205,jump
10/07/2020, 09:35:50,-9.152547,-2.495714,5.424529,-0.45547447,-0.9317078,-1.7938123,10.92809307460604,2.0720277243519205,jump
10/07/2020, 09:35:50,-9.152547,-2.495714,5.424529,-0.4151778,-0.9072856,-1.7938123,10.92809307460604,2.0526329882497323,jump
10/07/2020, 09:35:51,-8.520842,-0.5623133,4.610969,2.6376002,0.74609894,-0.3809867,9.704739746542442,2.7674445266335916,jump
10/07/2020, 09:35:51,-8.520842,-0.5623133,4.610969,2.29691,0.65329444,-0.30283555,9.704739746542442,2.4071349712505166,jump
10/07/2020, 09:35:51,-8.738588,-0.23449662,4.486542,2.29691,0.65329444,-0.30283555,9.825832069494659,2.4071349712505166,jump
10/07/2020, 09:35:51,-8.738588,-0.23449662,4.486542,1.8915012,0.56171113,-0.21613668,9.825832069494659,1.9849461467994833,jump
10/07/2020, 09:35:51,-8.891729,-0.0526421,4.23051,1.8915012,0.56171113,-0.21613668,9.846971054985453,1.9849461467994833,jump
10/07/2020, 09:35:51,-8.891729,-0.0526421,4.23051,1.4812078,0.41395667,-0.12943779,9.846971054985453,1.5434023957920089,jump
10/07/2020, 09:35:51,-8.932407,-0.09810573,3.830909,1.4812078,0.41395667,-0.12943779,9.71974229044714,1.5434023957920089,jump
10/07/2020, 09:35:51,-8.932407,-0.09810573,3.830909,1.1295278,0.24178001,-0.07570889,9.71974229044714,1.1575933991363594,jump
10/07/2020, 09:35:51,-8.898908,-0.34456646,3.4337006,1.1295278,0.24178001,-0.07570889,9.544610162883126,1.1575933991363594,jump
10/07/2020, 09:35:51,-8.898908,-0.34456646,3.4337006,0.94758224,0.15141778,-0.057392225,9.544610162883126,0.9613185327586722,jump
10/07/2020, 09:35:51,-8.73141,-0.63170516,3.2422748,0.94758224,0.15141778,-0.057392225,9.335358487719171,0.9613185327586722,jump
10/07/2020, 09:35:51,-8.73141,-0.63170516,3.2422748,0.97078335,0.19293556,-0.05372889,9.335358487719171,0.9912271387506595,jump
10/07/2020, 09:35:51,-8.472985,-0.8470592,3.2853456,0.97078335,0.19293556,-0.05372889,9.127019449357816,0.9912271387506595,jump
10/07/2020, 09:35:51,-8.472985,-0.8470592,3.2853456,1.1270856,0.31993112,-0.05372889,9.127019449357816,1.1728446568854802,jump
10/07/2020, 09:35:51,-8.303095,-1.0648061,3.3762727,1.1270856,0.31993112,-0.05372889,9.02631782932645,1.1728446568854802,jump
10/07/2020, 09:35:51,-8.303095,-1.0648061,3.3762727,1.2919356,0.46402225,-0.046402223,9.02631782932645,1.373523684928274,jump
10/07/2020, 09:35:51,-8.310273,-1.2394822,3.3499517,1.2919356,0.46402225,-0.046402223,9.045392909726951,1.373523684928274,jump
10/07/2020, 09:35:51,-8.310273,-1.2394822,3.3499517,1.416489,0.56659555,-0.03052778,9.045392909726951,1.525910734312531,jump
10/07/2020, 09:35:51,-8.437093,-1.3160524,3.17049,1.416489,0.56659555,-0.03052778,9.108706583307244,1.525910734312531,jump
10/07/2020, 09:35:51,-8.437093,-1.3160524,3.17049,1.4372479,0.61544,-0.009768889,9.108706583307244,1.5635035289214274,jump
10/07/2020, 09:35:52,-3.3044882,-10.009177,-0.7322037,-2.7987869,0.6142189,0.38831335,10.565954420496915,2.8915843576769964,jump
10/07/2020, 09:35:52,-3.3044882,-10.009177,-0.7322037,-3.2750201,0.7351089,0.44204223,10.565954420496915,3.3854901048348833,jump
10/07/2020, 09:35:52,-4.469793,-11.212767,-1.2514462,-3.2750201,0.7351089,0.44204223,12.135538787181423,3.3854901048348833,jump
10/07/2020, 09:35:52,-4.469793,-11.212767,-1.2514462,-3.590067,0.7302245,0.44692668,12.135538787181423,3.690738636499764,jump
10/07/2020, 09:35:52,-5.709275,-12.701102,-1.6677973,-3.590067,0.7302245,0.44692668,14.024812471014759,3.690738636499764,jump
10/07/2020, 09:35:52,-5.709275,-12.701102,-1.6677973,-3.6120467,0.6007867,0.44448447,14.024812471014759,3.6885488454717286,jump
10/07/2020, 09:35:52,-6.759724,-14.246866,-1.7754744,-3.6120467,0.6007867,0.44448447,15.868817762101518,3.6885488454717286,jump
10/07/2020, 09:35:52,-6.759724,-14.246866,-1.7754744,-3.1663413,0.40663,0.47501224,15.868817762101518,3.227491572988094,jump
10/07/2020, 09:35:52,-7.200003,-15.608382,-1.8137596,-3.1663413,0.40663,0.47501224,17.2844254970295,3.227491572988094,jump
10/07/2020, 09:35:52,-7.200003,-15.608382,-1.8137596,-2.3274379,0.22468445,0.50676113,17.2844254970295,2.3925419581877505,jump
10/07/2020, 09:35:52,-7.0229344,-16.546368,-1.9118652,-2.3274379,0.22468445,0.50676113,18.076479718966436,2.3925419581877505,jump
10/07/2020, 09:35:52,-7.0229344,-16.546368,-1.9118652,-1.3481067,0.068382226,0.5030978,18.076479718966436,1.4405468701805089,jump
10/07/2020, 09:35:52,-6.407979,-16.855043,-1.6701902,-1.3481067,0.068382226,0.5030978,18.109230208990656,1.4405468701805089,jump
10/07/2020, 09:35:52,-6.407979,-16.855043,-1.6701902,-0.45547447,-0.03052778,0.46646446,18.109230208990656,0.6526699218927285,jump
10/07/2020, 09:35:52,-5.5776696,-16.244873,-1.0504491,-0.45547447,-0.03052778,0.46646446,17.207839553108943,0.6526699218927285,jump
10/07/2020, 09:35:52,-5.5776696,-16.244873,-1.0504491,0.17828223,-0.05250778,0.3834289,17.207839553108943,0.42609780965216504,jump
10/07/2020, 09:35:52,-4.8263235,-15.0221405,-0.4331009,0.17828223,-0.05250778,0.3834289,15.784349220121388,0.42609780965216504,jump
10/07/2020, 09:35:52,-4.8263235,-15.0221405,-0.4331009,0.45425335,-0.035412222,0.25521225,15.784349220121388,0.5222388522418623,jump
10/07/2020, 09:35:52,-4.2257247,-13.529019,0.040677983,0.45425335,-0.035412222,0.25521225,14.173664615864984,0.5222388522418623,jump
10/07/2020, 09:35:52,-4.2257247,-13.529019,0.040677983,0.38709223,-0.054950003,0.12943779,14.173664615864984,0.41184225221293885,jump
10/07/2020, 09:35:53,-8.944371,-2.1966112,3.711268,-0.7216767,-0.9426978,-0.35778558,9.92977275573026,1.239962490749947,jump
10/07/2020, 09:35:53,-8.944371,-2.1966112,3.711268,-0.6996967,-0.8315767,-0.41762,9.92977275573026,1.1642601869169849,jump
10/07/2020, 09:35:53,-8.898908,-2.2779672,3.6897326,-0.6996967,-0.8315767,-0.41762,9.899182718773854,1.1642601869169849,jump
10/07/2020, 09:35:53,-8.898908,-2.2779672,3.6897326,-0.66428447,-0.7558678,-0.47501224,9.899182718773854,1.1127652872657616,jump
10/07/2020, 09:35:53,-8.803194,-2.309074,3.5365918,-0.66428447,-0.7558678,-0.47501224,9.763991455262982,1.1127652872657616,jump
10/07/2020, 09:35:53,-8.803194,-2.309074,3.5365918,-0.6752745,-0.74976224,-0.5250778,9.763991455262982,1.1374734140298366,jump
10/07/2020, 09:35:53,-8.676374,-2.359323,3.3499517,-0.6752745,-0.74976224,-0.5250778,9.595210011587517,1.1374734140298366,jump
10/07/2020, 09:35:53,-8.676374,-2.359323,3.3499517,-0.7228978,-0.7717422,-0.56049,9.595210011587517,1.1967942113416905,jump
10/07/2020, 09:35:53,-8.516056,-2.469393,3.2183464,-0.7228978,-0.7717422,-0.56049,9.43286096412168,1.1967942113416905,jump
10/07/2020, 09:35:53,-8.516056,-2.469393,3.2183464,-0.7949434,-0.7863956,-0.5702589,9.43286096412168,1.255208461569519,jump
10/07/2020, 09:35:53,-8.255239,-2.589034,3.1489546,-0.7949434,-0.7863956,-0.5702589,9.206952588573122,1.255208461569519,jump
10/07/2020, 09:35:53,-8.255239,-2.589034,3.1489546,-0.85722005,-0.7619734,-0.5470578,9.206952588573122,1.2707092108437703,jump
10/07/2020, 09:35:53,-7.9920278,-2.696711,3.0963125,-0.85722005,-0.7619734,-0.5470578,8.98509373953478,1.2707092108437703,jump
10/07/2020, 09:35:53,-7.9920278,-2.696711,3.0963125,-0.90118,-0.7106867,-0.5128667,8.98509373953478,1.2570732810944083,jump
10/07/2020, 09:35:53,-7.692925,-2.737389,3.022135,-0.90118,-0.7106867,-0.5128667,8.706761383198648,1.2570732810944083,jump
10/07/2020, 09:35:53,-7.692925,-2.737389,3.022135,-0.9426978,-0.64841,-0.47745445,8.706761383198648,1.2397892957711654,jump
10/07/2020, 09:35:53,-7.4129643,-2.7732813,2.9240294,-0.9426978,-0.64841,-0.47745445,8.43759902903374,1.2397892957711654,jump
10/07/2020, 09:35:53,-7.4129643,-2.7732813,2.9240294,-0.9854367,-0.5800278,-0.45303226,8.43759902903374,1.2299414379898177,jump
10/07/2020, 09:35:53,-7.149754,-2.8283165,2.8642087,-0.9854367,-0.5800278,-0.45303226,8.20500142276032,1.2299414379898177,jump
10/07/2020, 09:35:53,-7.149754,-2.8283165,2.8642087,-1.0232911,-0.5226356,-0.43105224,8.20500142276032,1.2272239722460736,jump
10/07/2020, 09:35:54,1.0959128,-1.1389836,4.302295,-0.97078335,1.6594901,2.012391,4.583454222577296,2.7831718666018146,jump
10/07/2020, 09:35:54,1.0959128,-1.1389836,4.302295,-0.9866578,1.7559578,2.2309701,4.583454222577296,3.00567951352023,jump
10/07/2020, 09:35:54,0.9403793,-1.2323036,4.101298,-0.9866578,1.7559578,2.2309701,4.384464571337823,3.00567951352023,jump
10/07/2020, 09:35:54,0.9403793,-1.2323036,4.101298,-0.9610145,1.8499835,2.4361167,4.384464571337823,3.206345617626449,jump
10/07/2020, 09:35:54,0.71306115,-1.3208381,3.9242291,-0.9610145,1.8499835,2.4361167,4.201504952034046,3.206345617626449,jump
10/07/2020, 09:35:54,0.71306115,-1.3208381,3.9242291,-0.9060645,1.9256923,2.6070724,4.201504952034046,3.3654227168936335,jump
10/07/2020, 09:35:54,0.2943172,-1.5290136,3.7567315,-0.9060645,1.9256923,2.6070724,4.066637055046404,3.3654227168936335,jump
10/07/2020, 09:35:54,0.2943172,-1.5290136,3.7567315,-0.8535567,2.0392556,2.7084246,4.066637055046404,3.4960958437672596,jump
10/07/2020, 09:35:54,-0.35174492,-1.9334008,3.5892339,-0.8535567,2.0392556,2.7084246,4.091987629611779,3.4960958437672596,jump
10/07/2020, 09:35:54,-0.35174492,-1.9334008,3.5892339,-0.79250115,2.1796834,2.7743645,4.091987629611779,3.6160995871534447,jump
10/07/2020, 09:35:54,-1.2179468,-2.428715,3.4791641,-0.79250115,2.1796834,2.7743645,4.414366753380127,3.6160995871534447,jump
10/07/2020, 09:35:54,-1.2179468,-2.428715,3.4791641,-0.6801589,2.2883623,2.84641,4.414366753380127,3.715005800110115,jump
10/07/2020, 09:35:54,-2.0841484,-2.969493,3.306881,-0.6801589,2.2883623,2.84641,4.908872005063013,3.715005800110115,jump
10/07/2020, 09:35:54,-2.0841484,-2.969493,3.306881,-0.5458367,2.4092524,2.9673002,4.908872005063013,3.8609979511706998,jump
10/07/2020, 09:35:54,-2.8259234,-3.4025939,3.1944182,-0.5458367,2.4092524,2.9673002,5.45598715220922,3.8609979511706998,jump
10/07/2020, 09:35:54,-2.8259234,-3.4025939,3.1944182,-0.40540892,2.5460167,3.1553512,5.45598715220922,4.0746531568187185,jump
10/07/2020, 09:35:54,-3.4360933,-3.6466618,3.2709885,-0.40540892,2.5460167,3.1553512,5.983664837655498,4.0746531568187185,jump
10/07/2020, 09:35:54,-3.4360933,-3.6466618,3.2709885,-0.2613178,2.6669068,3.372709,5.983664837655498,4.307649624465981,jump
10/07/2020, 09:35:54,-3.9218364,-3.7543387,3.3164523,-0.2613178,2.6669068,3.372709,6.361974188147573,4.307649624465981,jump
10/07/2020, 09:35:54,-3.9218364,-3.7543387,3.3164523,-0.109900005,2.7450578,3.5619812,6.361974188147573,4.498347533347426,jump
10/07/2020, 09:35:55,-8.4682,2.0338993,3.3762727,0.13310112,-0.32481557,-0.35778558,9.340576548403568,0.5012300736608616,jump
10/07/2020, 09:35:55,-8.4682,2.0338993,3.3762727,0.09646778,-0.30772,-0.32481557,9.340576548403568,0.4577147467207713,jump
10/07/2020, 09:35:55,-8.4705925,1.969293,3.397808,0.09646778,-0.30772,-0.32481557,9.336709908087947,0.4577147467207713,jump
10/07/2020, 09:35:55,-8.4705925,1.969293,3.397808,0.05250778,-0.2869611,-0.31871,9.336709908087947,0.4320645882750078,jump
10/07/2020, 09:35:55,-8.472985,1.9549361,3.5270207,0.05250778,-0.2869611,-0.31871,9.383662912267459,0.4320645882750078,jump
10/07/2020, 09:35:55,-8.472985,1.9549361,3.5270207,-0.009768889,-0.27963445,-0.29062447,9.383662912267459,0.40342711462897224,jump
10/07/2020, 09:35:55,-8.556734,1.9046868,3.6275191,-0.009768889,-0.27963445,-0.29062447,9.487066200109865,0.40342711462897224,jump
10/07/2020, 09:35:55,-8.556734,1.9046868,3.6275191,-0.06227667,-0.2759711,-0.25521225,9.487066200109865,0.3810140821600596,jump
10/07/2020, 09:35:55,-8.690732,2.053042,3.6849468,-0.06227667,-0.2759711,-0.25521225,9.660364209469998,0.3810140821600596,jump
10/07/2020, 09:35:55,-8.690732,2.053042,3.6849468,-0.13432223,-0.2955089,-0.24666445,9.660364209469998,0.4076902205801571,jump
10/07/2020, 09:35:55,-8.76491,2.0985055,3.7878382,-0.13432223,-0.2955089,-0.24666445,9.776251149153824,0.4076902205801571,jump
10/07/2020, 09:35:55,-8.76491,2.0985055,3.7878382,-0.21003112,-0.33214223,-0.24300112,9.776251149153824,0.4620401272592678,jump
10/07/2020, 09:35:55,-8.815159,2.062613,3.871587,-0.21003112,-0.33214223,-0.24300112,9.846348768384495,0.4620401272592678,jump
10/07/2020, 09:35:55,-8.815159,2.062613,3.871587,-0.24055889,-0.34801668,-0.2295689,9.846348768384495,0.481337791013083,jump
10/07/2020, 09:35:55,-8.786445,1.9094725,3.9840498,-0.24055889,-0.34801668,-0.2295689,9.834650360615724,0.481337791013083,jump
10/07/2020, 09:35:55,-8.786445,1.9094725,3.9840498,-0.24055889,-0.34069002,-0.23079,9.834650360615724,0.4766574181467048,jump
10/07/2020, 09:35:55,-8.836694,1.7395821,4.0534415,-0.24055889,-0.34069002,-0.23079,9.876420941626883,0.4766574181467048,jump
10/07/2020, 09:35:55,-8.836694,1.7395821,4.0534415,-0.22224224,-0.31871,-0.23933779,9.876420941626883,0.4563444439161945,jump
10/07/2020, 09:35:55,-8.882157,1.7084754,4.1204405,-0.22224224,-0.31871,-0.23933779,9.939297588869515,0.4563444439161945,jump
10/07/2020, 09:35:55,-8.882157,1.7084754,4.1204405,-0.21491556,-0.31016225,-0.24300112,9.939297588869515,0.4488194067221888,jump
10/07/2020, 09:35:56,-7.9800634,-1.3232309,3.1106694,-3.1993113,1.7632846,4.8160625,8.66652273718589,6.044768192025837,jump
10/07/2020, 09:35:56,-7.9800634,-1.3232309,3.1106694,-2.7279623,1.9501145,4.899098,8.66652273718589,5.936824488770398,jump
10/07/2020, 09:35:56,-9.355937,-1.7228323,2.9766715,-2.7279623,1.9501145,4.899098,9.968063071594251,5.936824488770398,jump
10/07/2020, 09:35:56,-9.355937,-1.7228323,2.9766715,-1.96721,2.4336746,4.8820024,9.968063071594251,5.7988476709587795,jump
10/07/2020, 09:35:56,-11.52862,-2.4717858,3.0604203,-1.96721,2.4336746,4.8820024,12.18133699284584,5.7988476709587795,jump
10/07/2020, 09:35:56,-11.52862,-2.4717858,3.0604203,-0.9329289,3.0051546,4.7977457,12.18133699284584,5.737566944617079,jump
10/07/2020, 09:35:56,-14.6536455,-3.790231,2.6536403,-0.9329289,3.0051546,4.7977457,15.366749315631703,5.737566944617079,jump
10/07/2020, 09:35:56,-14.6536455,-3.790231,2.6536403,0.32481557,3.1541302,4.6402225,15.366749315631703,5.620116360984478,jump
10/07/2020, 09:35:56,-18.343378,-5.209175,2.103291,0.32481557,3.1541302,4.6402225,19.184338857812325,5.620116360984478,jump
10/07/2020, 09:35:56,-18.343378,-5.209175,2.103291,1.5544745,2.7475002,4.349598,19.184338857812325,5.37439766796726,jump
10/07/2020, 09:35:56,-21.22673,-6.178268,1.9046868,1.5544745,2.7475002,4.349598,22.18947741572281,5.37439766796726,jump
10/07/2020, 09:35:56,-21.22673,-6.178268,1.9046868,2.4116945,2.0453613,3.9234302,22.18947741572281,5.039154475330282,jump
10/07/2020, 09:35:56,-22.061825,-6.4414787,2.4071796,2.4116945,2.0453613,3.9234302,23.108683979420647,5.039154475330282,jump
10/07/2020, 09:35:56,-22.061825,-6.4414787,2.4071796,2.7426157,1.3908457,3.4655135,23.108683979420647,4.633160488473482,jump
10/07/2020, 09:35:56,-20.908484,-6.128019,3.574877,2.7426157,1.3908457,3.4655135,22.07933521018949,4.633160488473482,jump
10/07/2020, 09:35:56,-20.908484,-6.128019,3.574877,2.6070724,1.0464922,3.0405667,22.07933521018949,4.139688149207043,jump
10/07/2020, 09:35:56,-18.809978,-5.505885,4.558327,2.6070724,1.0464922,3.0405667,20.12233605860537,4.139688149207043,jump
10/07/2020, 09:35:56,-18.809978,-5.505885,4.558327,2.1857889,0.95613,2.6608012,20.12233605860537,3.573754397252413,jump
10/07/2020, 09:35:56,-16.694723,-4.735396,5.087141,2.1857889,0.95613,2.6608012,18.08360469326116,3.573754397252413,jump
10/07/2020, 09:35:56,-16.694723,-4.735396,5.087141,1.6765857,0.9304867,2.31889,18.08360469326116,3.008985918000147,jump
10/07/2020, 09:35:57,3.2159536,-1.3854443,2.7182465,-0.13920668,0.13554333,0.70336,4.432908431608614,0.7297025511306136,jump
10/07/2020, 09:35:57,3.2159536,-1.3854443,2.7182465,-0.1526389,0.2503278,0.9744467,4.432908431608614,1.0175996445405169,jump
10/07/2020, 09:35:57,3.117848,-1.3998013,2.656033,-0.1526389,0.2503278,0.9744467,4.32838661687275,1.0175996445405169,jump
10/07/2020, 09:35:57,3.117848,-1.3998013,2.656033,-0.20026223,0.35778558,1.2259957,4.32838661687275,1.29274159954927,jump
10/07/2020, 09:35:57,2.928815,-1.5696917,2.6201408,-0.20026223,0.35778558,1.2259957,4.231669447602817,1.29274159954927,jump
10/07/2020, 09:35:57,2.928815,-1.5696917,2.6201408,-0.2283478,0.48111778,1.4873134,4.231669447602817,1.5797842121959522,jump
10/07/2020, 09:35:57,2.725425,-1.7635103,2.6344976,-0.2283478,0.48111778,1.4873134,4.180728169588277,1.5797842121959522,jump
10/07/2020, 09:35:57,2.725425,-1.7635103,2.6344976,-0.17706113,0.6068922,1.7584001,4.180728169588277,1.8685929650991613,jump
10/07/2020, 09:35:57,2.5698915,-2.036292,2.7302105,-0.17706113,0.6068922,1.7584001,4.266717368856997,1.8685929650991613,jump
10/07/2020, 09:35:57,2.5698915,-2.036292,2.7302105,-0.08059334,0.74732006,2.0233812,4.266717368856997,2.1584842291382973,jump
10/07/2020, 09:35:57,2.4143581,-2.4478576,2.806781,-0.08059334,0.74732006,2.0233812,4.438372677648135,2.1584842291382973,jump
10/07/2020, 09:35:57,2.4143581,-2.4478576,2.806781,-0.007326667,0.9268234,2.2712667,4.438372677648135,2.453101642937454,jump
10/07/2020, 09:35:57,2.268396,-2.7948167,2.8522446,-0.007326667,0.9268234,2.2712667,4.5925940248549475,2.453101642937454,jump
10/07/2020, 09:35:57,2.268396,-2.7948167,2.8522446,0.07570889,1.1112112,2.5032778,4.5925940248549475,2.7398762309340507,jump
10/07/2020, 09:35:57,2.0865414,-2.9216363,2.8833513,0.07570889,1.1112112,2.5032778,4.604707250549039,2.7398762309340507,jump
10/07/2020, 09:35:57,2.0865414,-2.9216363,2.8833513,0.17706113,1.2870512,2.7328467,4.604707250549039,3.0259383211315485,jump
10/07/2020, 09:35:57,1.8951155,-2.7684958,2.9048867,0.17706113,1.2870512,2.7328467,4.437837152650963,3.0259383211315485,jump
10/07/2020, 09:35:57,1.8951155,-2.7684958,2.9048867,0.2820767,1.4580067,2.9917223,4.437837152650963,3.340022979199582,jump
10/07/2020, 09:35:57,1.6677973,-2.5411777,3.1202407,0.2820767,1.4580067,2.9917223,4.356034232233892,3.340022979199582,jump
10/07/2020, 09:35:57,1.6677973,-2.5411777,3.1202407,0.3284789,1.6387311,3.2457135,4.356034232233892,3.650752528507813,jump
10/07/2020, 09:35:58,-6.0251274,-2.507678,3.7710886,0.25765446,0.3504589,0.6471889,7.53735488480342,0.7797824878374315,jump
10/07/2020, 09:35:58,-6.0251274,-2.507678,3.7710886,0.3174889,0.41762,0.79128003,7.53735488480342,0.949383885509645,jump
10/07/2020, 09:35:58,-6.2380886,-2.6512475,3.830909,0.3174889,0.41762,0.79128003,7.785802891402439,0.949383885509645,jump
10/07/2020, 09:35:58,-6.2380886,-2.6512475,3.830909,0.40663,0.46280113,0.94391894,7.785802891402439,1.1271716022556202,jump
10/07/2020, 09:35:58,-6.4701924,-2.754139,3.9481573,0.40663,0.46280113,0.94391894,8.064528355551003,1.1271716022556202,jump
10/07/2020, 09:35:58,-6.4701924,-2.754139,3.9481573,0.5189722,0.5030978,1.1173167,8.064528355551003,1.330727692314206,jump
10/07/2020, 09:35:58,-6.599405,-2.7900312,4.065406,0.5189722,0.5030978,1.1173167,8.237957430570777,1.330727692314206,jump
10/07/2020, 09:35:58,-6.599405,-2.7900312,4.065406,0.6471889,0.56659555,1.2992623,8.237957430570777,1.5581933393462646,jump
10/07/2020, 09:35:58,-6.587441,-2.6919255,4.2041893,0.6471889,0.56659555,1.2992623,8.26535233438747,1.5581933393462646,jump
10/07/2020, 09:35:58,-6.587441,-2.6919255,4.2041893,0.76930004,0.6423045,1.4641123,8.26535233438747,1.7742610788431807,jump
10/07/2020, 09:35:58,-6.6424756,-2.6153553,4.338187,0.76930004,0.6423045,1.4641123,8.353588067389529,1.7742610788431807,jump
10/07/2020, 09:35:58,-6.6424756,-2.6153553,4.338187,0.82547116,0.7106867,1.5923289,8.353588067389529,1.9292458495494935,jump
10/07/2020, 09:35:58,-6.7932234,-2.6225336,4.4004006,0.82547116,0.7106867,1.5923289,8.5081779457786,1.9292458495494935,jump
10/07/2020, 09:35:58,-6.7932234,-2.6225336,4.4004006,0.8437878,0.7717422,1.6961234,8.5081779457786,2.045580199489839,jump
10/07/2020, 09:35:58,-7.0731835,-2.7158537,4.3908296,0.8437878,0.7717422,1.6961234,8.757006958170795,2.045580199489839,jump
10/07/2020, 09:35:58,-7.0731835,-2.7158537,4.3908296,0.85111445,0.80104893,1.7962545,8.757006958170795,2.1430365117263666,jump
10/07/2020, 09:35:58,-7.420143,-2.8163524,4.3334017,0.85111445,0.80104893,1.7962545,9.042606637980288,2.1430365117263666,jump
10/07/2020, 09:35:58,-7.420143,-2.8163524,4.3334017,0.86088336,0.78761667,1.9159234,9.042606637980288,2.2432615719446636,jump
10/07/2020, 09:35:58,-7.652247,-2.8689942,4.28076,0.86088336,0.78761667,1.9159234,9.225666149624685,2.2432615719446636,jump
10/07/2020, 09:35:58,-7.652247,-2.8689942,4.28076,0.8718734,0.76930004,2.031929,9.225666149624685,2.341094033173185,jump
10/07/2020, 09:35:59,3.251846,0.019142581,2.4430718,-0.3052778,0.2869611,0.8230289,4.0673663912170905,0.9235354980822251,jump
10/07/2020, 09:35:59,3.251846,0.019142581,2.4430718,-0.26986557,0.46402225,1.1380756,4.0673663912170905,1.2583163845411975,jump
10/07/2020, 09:35:59,3.426522,-0.038285162,2.4598217,-0.26986557,0.46402225,1.1380756,4.218203608687029,1.2583163845411975,jump
10/07/2020, 09:35:59,3.426522,-0.038285162,2.4598217,-0.27475002,0.63131446,1.4543434,4.218203608687029,1.609086807713215,jump
10/07/2020, 09:35:59,3.455236,-0.15314065,2.4311078,-0.27475002,0.63131446,1.4543434,4.227575253353047,1.609086807713215,jump
10/07/2020, 09:35:59,3.455236,-0.15314065,2.4311078,-0.29917222,0.7766267,1.7706112,4.227575253353047,1.9564552036758547,jump
10/07/2020, 09:35:59,3.306881,-0.2727818,2.5028925,-0.29917222,0.7766267,1.7706112,4.156241374813905,1.9564552036758547,jump
10/07/2020, 09:35:59,3.306881,-0.2727818,2.5028925,-0.32970002,0.9133912,2.0856578,4.156241374813905,2.3006421157048034,jump
10/07/2020, 09:35:59,3.07717,-0.4953143,2.6416762,-0.32970002,0.9133912,2.0856578,4.085677899600376,2.3006421157048034,jump
10/07/2020, 09:35:59,3.07717,-0.4953143,2.6416762,-0.35412225,1.0306178,2.3921568,4.085677899600376,2.628685989420437,jump
10/07/2020, 09:35:59,2.7493532,-0.86859465,2.8761728,-0.35412225,1.0306178,2.3921568,4.072562999085463,2.628685989420437,jump
10/07/2020, 09:35:59,2.7493532,-0.86859465,2.8761728,-0.35778558,1.1234223,2.6546957,4.072562999085463,2.904737101693015,jump
10/07/2020, 09:35:59,2.3377876,-1.4117653,3.1154552,-0.35778558,1.1234223,2.6546957,4.14299326050582,2.904737101693015,jump
10/07/2020, 09:35:59,2.3377876,-1.4117653,3.1154552,-0.3174889,1.2150056,2.8903701,4.14299326050582,3.151392929283323,jump
10/07/2020, 09:35:59,1.9501505,-2.012364,3.4097722,-0.3174889,1.2150056,2.8903701,4.413529382376142,3.151392929283323,jump
10/07/2020, 09:35:59,1.9501505,-2.012364,3.4097722,-0.21735778,1.35177,3.1162758,4.413529382376142,3.4037775249704048,jump
10/07/2020, 09:35:59,1.6438692,-2.440679,3.7663028,-0.21735778,1.35177,3.1162758,4.779566624884713,3.4037775249704048,jump
10/07/2020, 09:35:59,1.6438692,-2.440679,3.7663028,-0.07937223,1.5410423,3.350729,4.779566624884713,3.688969525779835,jump
10/07/2020, 09:35:59,1.3878372,-2.5962126,4.132405,-0.07937223,1.5410423,3.350729,5.073773889088236,3.688969525779835,jump
10/07/2020, 09:35:59,1.3878372,-2.5962126,4.132405,0.047623336,1.7315357,3.5693078,5.073773889088236,3.967422585254461,jump
10/07/2020, 09:36:00,-7.372287,-2.6081767,5.1589255,0.44692668,0.27108666,0.72534,9.368442293693565,0.8940635141187,jump
10/07/2020, 09:36:00,-7.372287,-2.6081767,5.1589255,0.4798967,0.27230778,0.78761667,9.368442293693565,0.9616612632666227,jump
10/07/2020, 09:36:00,-7.331609,-2.644069,5.2019963,0.4798967,0.27230778,0.78761667,9.370397729881647,0.9616612632666227,jump
10/07/2020, 09:36:00,-7.331609,-2.644069,5.2019963,0.5043189,0.28574002,0.85111445,9.370397729881647,1.0297478884777267,jump
10/07/2020, 09:36:00,-7.3627152,-2.6871397,5.2163534,0.5043189,0.28574002,0.85111445,9.414915759966776,1.0297478884777267,jump
10/07/2020, 09:36:00,-7.3627152,-2.6871397,5.2163534,0.5372889,0.29184556,0.91461223,9.414915759966776,1.100167594242926,jump
10/07/2020, 09:36:00,-7.4153576,-2.7613173,5.2331033,0.5372889,0.29184556,0.91461223,9.486715503572729,1.100167594242926,jump
10/07/2020, 09:36:00,-7.4153576,-2.7613173,5.2331033,0.5653745,0.29917222,0.9744467,9.486715503572729,1.1656323327165843,jump
10/07/2020, 09:36:00,-7.52782,-2.8594232,5.285745,0.5653745,0.29917222,0.9744467,9.632418084293345,1.1656323327165843,jump
10/07/2020, 09:36:00,-7.52782,-2.8594232,5.285745,0.58613336,0.31016225,1.0367234,9.632418084293345,1.2306698552563877,jump
10/07/2020, 09:36:00,-7.678568,-2.8666015,5.319245,0.58613336,0.31016225,1.0367234,9.770986370596303,1.2306698552563877,jump
10/07/2020, 09:36:00,-7.678568,-2.8666015,5.319245,0.6007867,0.32359445,1.0916734,9.770986370596303,1.2874038863456958,jump
10/07/2020, 09:36:00,-7.8891363,-2.861816,5.35753,0.6007867,0.32359445,1.0916734,9.95648487950628,1.2874038863456958,jump
10/07/2020, 09:36:00,-7.8891363,-2.861816,5.35753,0.6020078,0.32481557,1.1502867,9.95648487950628,1.3383116183246933,jump
10/07/2020, 09:36:00,-8.063812,-2.792424,5.2953167,0.6020078,0.32481557,1.1502867,10.043061216712907,1.3383116183246933,jump
10/07/2020, 09:36:00,-8.063812,-2.792424,5.2953167,0.5690378,0.30405667,1.2064579,10.043061216712907,1.3681356019037492,jump
10/07/2020, 09:36:00,-8.195417,-2.7110682,5.221139,0.5690378,0.30405667,1.2064579,10.088362054347769,1.3681356019037492,jump
10/07/2020, 09:36:00,-8.195417,-2.7110682,5.221139,0.51164556,0.2820767,1.2467545,10.088362054347769,1.3768606619474235,jump
10/07/2020, 09:36:00,-8.193025,-2.629712,5.1469617,0.51164556,0.2820767,1.2467545,10.026577335111982,1.3768606619474235,jump
10/07/2020, 09:36:00,-8.193025,-2.629712,5.1469617,0.46035892,0.25643334,1.2931567,10.026577335111982,1.3964035061589668,jump
10/07/2020, 09:36:01,-1.8400806,-4.8861437,5.328816,1.1600556,3.4032369,5.95658,7.460333509921014,6.957628724986759,jump
10/07/2020, 09:36:01,-1.8400806,-4.8861437,5.328816,1.7559578,3.3116534,6.031068,7.460333509921014,7.101001014813848,jump
10/07/2020, 09:36:01,-3.1944182,-5.8241305,5.558527,1.7559578,3.3116534,6.031068,8.661525639553952,7.101001014813848,jump
10/07/2020, 09:36:01,-3.1944182,-5.8241305,5.558527,2.3958201,3.0259135,5.7538757,8.661525639553952,6.928433622497405,jump
10/07/2020, 09:36:01,-5.24746,-8.441878,6.206982,2.3958201,3.0259135,5.7538757,11.718693274592496,6.928433622497405,jump
10/07/2020, 09:36:01,-5.24746,-8.441878,6.206982,3.0833056,3.043009,5.149426,11.718693274592496,6.729284166936632,jump
10/07/2020, 09:36:01,-7.3435726,-11.770294,6.8985076,3.0833056,3.043009,5.149426,15.493782337452252,6.729284166936632,jump
10/07/2020, 09:36:01,-7.3435726,-11.770294,6.8985076,4.14323,3.7182834,4.7110467,15.493782337452252,7.292869602237218,jump
10/07/2020, 09:36:01,-8.664411,-13.562519,7.1066833,4.14323,3.7182834,4.7110467,17.59314870585737,7.292869602237218,jump
10/07/2020, 09:36:01,-8.664411,-13.562519,7.1066833,5.5755935,4.7012777,4.8026304,17.59314870585737,8.732383058217668,jump
10/07/2020, 09:36:01,-9.037691,-13.10549,6.2141604,5.5755935,4.7012777,4.8026304,17.089456158771153,8.732383058217668,jump
10/07/2020, 09:36:01,-9.037691,-13.10549,6.2141604,6.720996,5.502327,5.186059,17.089456158771153,10.116451744244237,jump
10/07/2020, 09:36:01,-8.810373,-10.887343,4.7784667,6.720996,5.502327,5.186059,14.798333293592487,10.116451744244237,jump
10/07/2020, 09:36:01,-8.810373,-10.887343,4.7784667,7.1129727,6.0017614,5.3789945,14.798333293592487,10.749376862941247,jump
10/07/2020, 09:36:01,-8.595019,-7.597212,3.5174494,7.1129727,6.0017614,5.3789945,11.998518046215427,10.749376862941247,jump
10/07/2020, 09:36:01,-8.595019,-7.597212,3.5174494,6.702679,6.318029,5.186059,11.998518046215427,10.570648293150702,jump
10/07/2020, 09:36:01,-9.059227,-4.304688,2.5842485,6.702679,6.318029,5.186059,10.357522520398408,10.570648293150702,jump
10/07/2020, 09:36:01,-9.059227,-4.304688,2.5842485,5.7245693,6.4401402,4.7183733,10.357522520398408,9.823906906017317,jump
10/07/2020, 09:36:01,-10.406385,-1.6390835,1.9932213,5.7245693,6.4401402,4.7183733,10.72158492780877,9.823906906017317,jump
10/07/2020, 09:36:01,-10.406385,-1.6390835,1.9932213,4.4961314,6.337567,4.2885423,10.72158492780877,8.875333580500476,jump
10/07/2020, 09:36:02,-8.233703,-3.9290147,5.3790655,0.79128003,0.37732336,1.680249,10.590814966939806,1.8951869632679184,jump
10/07/2020, 09:36:02,-8.233703,-3.9290147,5.3790655,0.8413456,0.40663,1.5923289,10.590814966939806,1.8462723910957028,jump
10/07/2020, 09:36:02,-8.267202,-4.048656,5.3407803,0.8413456,0.40663,1.5923289,10.64247077576646,1.8462723910957028,jump
10/07/2020, 09:36:02,-8.267202,-4.048656,5.3407803,0.85722005,0.43227336,1.5080723,10.64247077576646,1.7877271629102396,jump
10/07/2020, 09:36:02,-8.386844,-4.091727,5.218746,0.85722005,0.43227336,1.5080723,10.69189818149368,1.7877271629102396,jump
10/07/2020, 09:36:02,-8.386844,-4.091727,5.218746,0.8437878,0.43471557,1.4311423,10.69189818149368,1.7173013214339083,jump
10/07/2020, 09:36:02,-8.5112705,-4.106084,5.111069,0.8437878,0.43471557,1.4311423,10.743587811145442,1.7173013214339083,jump
10/07/2020, 09:36:02,-8.5112705,-4.106084,5.111069,0.7949434,0.40052447,1.3420012,10.743587811145442,1.6103794788279886,jump
10/07/2020, 09:36:02,-8.628518,-4.132405,4.9866424,0.7949434,0.40052447,1.3420012,10.788637364376667,1.6103794788279886,jump
10/07/2020, 09:36:02,-8.628518,-4.132405,4.9866424,0.71557117,0.33580557,1.2394278,10.788637364376667,1.4700301879693194,jump
10/07/2020, 09:36:02,-8.642876,-4.1898327,4.924429,0.71557117,0.33580557,1.2394278,10.79370178403124,1.4700301879693194,jump
10/07/2020, 09:36:02,-8.642876,-4.1898327,4.924429,0.62154555,0.27230778,1.1454023,10.79370178403124,1.3313214715337116,jump
10/07/2020, 09:36:02,-8.508878,-4.302295,4.9172506,0.62154555,0.27230778,1.1454023,10.728005335699416,1.3313214715337116,jump
10/07/2020, 09:36:02,-8.508878,-4.302295,4.9172506,0.5250778,0.2283478,1.0464922,10.728005335699416,1.1928937068774599,jump
10/07/2020, 09:36:02,-8.255239,-4.4458647,4.9842496,0.5250778,0.2283478,1.0464922,10.618729677353251,1.1928937068774599,jump
10/07/2020, 09:36:02,-8.255239,-4.4458647,4.9842496,0.4359367,0.19904111,0.9512456,10.618729677353251,1.0651414763975569,jump
10/07/2020, 09:36:02,-8.008778,-4.575077,5.087141,0.4359367,0.19904111,0.9512456,10.53332107873627,1.0651414763975569,jump
10/07/2020, 09:36:02,-8.008778,-4.575077,5.087141,0.35656446,0.1746189,0.8498934,10.53332107873627,0.9380558363758486,jump
10/07/2020, 09:36:02,-7.757531,-4.668397,5.1924253,0.35656446,0.1746189,0.8498934,10.437169149752744,0.9380558363758486,jump
10/07/2020, 09:36:02,-7.757531,-4.668397,5.1924253,0.29306668,0.16607112,0.75098336,10.437169149752744,0.8230696800342185,jump
10/07/2020, 09:36:03,1.3854443,-5.5776696,5.319245,1.0904523,3.1504667,4.6841826,7.830978237483097,5.749442894253575,jump
10/07/2020, 09:36:03,1.1294123,-5.218746,4.948357,1.0904523,3.1504667,4.6841826,7.279912218996937,5.749442894253575,jump
10/07/2020, 09:36:03,1.1294123,-5.218746,4.948357,1.2797245,3.4191113,4.844148,7.279912218996937,6.0657883148394385,jump
10/07/2020, 09:36:03,0.634098,-4.6325045,4.570291,1.2797245,3.4191113,4.844148,6.53832838562826,6.0657883148394385,jump
10/07/2020, 09:36:03,0.634098,-4.6325045,4.570291,1.5630223,3.2347236,4.899098,6.53832838562826,6.0751654757760765,jump
10/07/2020, 09:36:03,-0.7848458,-4.8239303,5.003392,1.5630223,3.2347236,4.899098,6.994299097493592,6.0751654757760765,jump
10/07/2020, 09:36:03,-0.7848458,-4.8239303,5.003392,1.9611045,2.6644645,4.565735,6.994299097493592,5.638371811201334,jump
10/07/2020, 09:36:03,-2.4670002,-7.1066833,5.8672013,1.9611045,2.6644645,4.565735,9.540182834551228,5.638371811201334,jump
10/07/2020, 09:36:03,-2.4670002,-7.1066833,5.8672013,2.2004423,2.559449,3.9454103,9.540182834551228,5.192204483378711,jump
10/07/2020, 09:36:03,-3.7974095,-10.238888,7.070791,2.2004423,2.559449,3.9454103,13.009658887324663,5.192204483378711,jump
10/07/2020, 09:36:03,-3.7974095,-10.238888,7.070791,2.6864445,3.1687834,3.614489,13.009658887324663,5.506605475753099,jump
10/07/2020, 09:36:03,-4.807181,-11.803794,7.645068,2.6864445,3.1687834,3.614489,14.862220760487114,5.506605475753099,jump
10/07/2020, 09:36:03,-4.807181,-11.803794,7.645068,3.4765034,3.931978,3.8171935,14.862220760487114,6.489799139267898,jump
10/07/2020, 09:36:03,-5.0943193,-11.210374,7.32443,3.4765034,3.931978,3.8171935,14.327311217784438,6.489799139267898,jump
10/07/2020, 09:36:03,-5.0943193,-11.210374,7.32443,3.864817,4.4680457,4.2616777,14.327311217784438,7.284376387781855,jump
10/07/2020, 09:36:03,-4.8502517,-8.939586,6.6927247,3.864817,4.4680457,4.2616777,12.175126180596386,7.284376387781855,jump
10/07/2020, 09:36:03,-4.8502517,-8.939586,6.6927247,3.5326746,4.73669,4.5437546,12.175126180596386,7.4539739550052415,jump
10/07/2020, 09:36:03,-4.7306104,-5.76431,5.8767724,3.5326746,4.73669,4.5437546,9.49433498421385,7.4539739550052415,jump
10/07/2020, 09:36:03,-4.7306104,-5.76431,5.8767724,2.6669068,4.7965245,4.4680457,9.49433498421385,7.076897064074822,jump
10/07/2020, 09:36:03,-5.15414,-2.78046,4.9196434,2.6669068,4.7965245,4.4680457,7.648464384875332,7.076897064074822,jump
10/07/2020, 09:36:04,-7.932207,-3.8644085,4.7712884,-0.20148334,0.035412222,1.9635468,10.030890067468597,1.9741746154637427,jump
10/07/2020, 09:36:04,-7.932207,-3.8644085,4.7712884,-0.22224224,0.018316668,1.9952956,10.030890067468597,2.007718062384673,jump
10/07/2020, 09:36:04,-8.042277,-3.9098723,4.685147,-0.22224224,0.018316668,1.9952956,10.095341832781275,2.007718062384673,jump
10/07/2020, 09:36:04,-8.042277,-3.9098723,4.685147,-0.24422224,0.009768889,2.0038433,10.095341832781275,2.0186946113879825,jump
10/07/2020, 09:36:04,-8.092526,-3.940979,4.6731825,-0.24422224,0.009768889,2.0038433,10.141939370039479,2.0186946113879825,jump
10/07/2020, 09:36:04,-8.092526,-3.940979,4.6731825,-0.2515489,0.008547778,2.0087278,10.141939370039479,2.0244350413662087,jump
10/07/2020, 09:36:04,-8.075776,-4.0103707,4.668397,-0.2515489,0.008547778,2.0087278,10.153578832283571,2.0244350413662087,jump
10/07/2020, 09:36:04,-8.075776,-4.0103707,4.668397,-0.24422224,0.026864445,1.9904112,10.153578832283571,2.0055180865714024,jump
10/07/2020, 09:36:04,-8.042277,-4.1276193,4.6325045,-0.24422224,0.026864445,1.9904112,10.157537258699708,2.0055180865714024,jump
10/07/2020, 09:36:04,-8.042277,-4.1276193,4.6325045,-0.21980001,0.05617111,1.96721,10.157537258699708,1.9802481249726764,jump
10/07/2020, 09:36:04,-8.032705,-4.199404,4.6037908,-0.21980001,0.05617111,1.96721,10.166328534658561,1.9802481249726764,jump
10/07/2020, 09:36:04,-8.032705,-4.199404,4.6037908,-0.17706113,0.08792,1.9232501,10.166328534658561,1.9333834167193036,jump
10/07/2020, 09:36:04,-8.037491,-4.3262234,4.570291,-0.17706113,0.08792,1.9232501,10.208086400854544,1.9333834167193036,jump
10/07/2020, 09:36:04,-8.037491,-4.3262234,4.570291,-0.11112112,0.11844778,1.8719634,10.208086400854544,1.8789956578687537,jump
10/07/2020, 09:36:04,-8.130812,-4.4195433,4.57747,-0.11112112,0.11844778,1.8719634,10.324518945083678,1.8789956578687537,jump
10/07/2020, 09:36:04,-8.130812,-4.4195433,4.57747,-0.03174889,0.12943779,1.8218979,10.324518945083678,1.8267659843201527,jump
10/07/2020, 09:36:04,-8.219346,-4.5296135,4.6229334,-0.03174889,0.12943779,1.8218979,10.461671040126655,1.8267659843201527,jump
10/07/2020, 09:36:04,-8.219346,-4.5296135,4.6229334,0.06227667,0.11844778,1.746189,10.461671040126655,1.751309303842881,jump
10/07/2020, 09:36:04,-8.312666,-4.668397,4.7114677,0.06227667,0.11844778,1.746189,10.634485102349496,1.751309303842881,jump
10/07/2020, 09:36:04,-8.312666,-4.668397,4.7114677,0.15996556,0.098910004,1.6460578,10.634485102349496,1.656767514026576,jump
10/07/2020, 09:36:05,-3.4576287,-2.9383862,4.54397,1.4958612,3.8929024,4.565735,6.421602154249097,6.183706363119119,jump
10/07/2020, 09:36:05,-3.4576287,-2.9383862,4.54397,1.0342811,3.7427058,4.5083423,6.421602154249097,5.950019691019014,jump
10/07/2020, 09:36:05,-5.003392,-2.2277179,4.1898327,1.0342811,3.7427058,4.5083423,6.895749313003891,5.950019691019014,jump
10/07/2020, 09:36:05,-5.003392,-2.2277179,4.1898327,0.64963114,3.4362068,4.48392,6.895749313003891,5.6863940554970105,jump
10/07/2020, 09:36:05,-7.0061846,-2.725425,4.694718,0.64963114,3.4362068,4.48392,8.863122463827008,5.6863940554970105,jump
10/07/2020, 09:36:05,-7.0061846,-2.725425,4.694718,0.53851,2.9355512,4.441181,8.863122463827008,5.350845166595778,jump
10/07/2020, 09:36:05,-9.18126,-4.8239303,6.195018,0.53851,2.9355512,4.441181,12.080732018346936,5.350845166595778,jump
10/07/2020, 09:36:05,-9.18126,-4.8239303,6.195018,0.60933447,2.6180623,4.316628,12.080732018346936,5.085156397983405,jump
10/07/2020, 09:36:05,-10.779666,-7.9226356,7.920243,0.60933447,2.6180623,4.316628,15.546690897592466,5.085156397983405,jump
10/07/2020, 09:36:05,-10.779666,-7.9226356,7.920243,0.9097278,2.7743645,4.1798635,15.546690897592466,5.098623480600894,jump
10/07/2020, 09:36:05,-11.55494,-10.097712,9.236296,0.9097278,2.7743645,4.1798635,17.91059967293396,5.098623480600894,jump
10/07/2020, 09:36:05,-11.55494,-10.097712,9.236296,1.5080723,3.1260445,4.1273556,17.91059967293396,5.39272660806222,jump
10/07/2020, 09:36:05,-11.471191,-10.504492,9.542577,1.5080723,3.1260445,4.1273556,18.24810544062256,5.39272660806222,jump
10/07/2020, 09:36:05,-11.471191,-10.504492,9.542577,1.965989,3.3372967,4.0663004,18.24810544062256,5.61582238220654,jump
10/07/2020, 09:36:05,-10.794023,-9.51147,9.3200445,1.965989,3.3372967,4.0663004,17.141826372157357,5.61582238220654,jump
10/07/2020, 09:36:05,-10.794023,-9.51147,9.3200445,2.0282657,3.3995736,3.9564002,17.141826372157357,5.596790546770277,jump
10/07/2020, 09:36:05,-9.980463,-7.6713896,8.836694,2.0282657,3.3995736,3.9564002,15.380085078145825,5.596790546770277,jump
10/07/2020, 09:36:05,-9.980463,-7.6713896,8.836694,1.7632846,3.3898046,3.767128,15.380085078145825,5.36574328399054,jump
10/07/2020, 09:36:05,-9.597611,-6.058627,8.082955,1.7632846,3.3898046,3.767128,13.933961215369449,5.36574328399054,jump
10/07/2020, 09:36:05,-9.597611,-6.058627,8.082955,1.3212423,3.2664723,3.504589,13.933961215369449,4.969674785334107,jump
10/07/2020, 09:36:06,-6.7573314,-3.249453,5.5776696,0.64841,0.44326335,1.27484,9.345098763360422,1.49737602986454,jump
10/07/2020, 09:36:06,-6.7573314,-3.249453,5.5776696,0.66428447,0.45303226,1.3639811,9.345098763360422,1.5833371703710462,jump
10/07/2020, 09:36:06,-6.879365,-3.225525,5.6063833,0.66428447,0.45303226,1.3639811,9.442521232250868,1.5833371703710462,jump
10/07/2020, 09:36:06,-6.879365,-3.225525,5.6063833,0.6581789,0.4493689,1.4567856,9.442521232250868,1.6605288518399755,jump
10/07/2020, 09:36:06,-7.0205417,-3.2063823,5.6039906,0.6581789,0.4493689,1.4567856,9.538008321484021,1.6605288518399755,jump
10/07/2020, 09:36:06,-7.0205417,-3.2063823,5.6039906,0.62765115,0.43471557,1.5422634,9.538008321484021,1.720900914705519,jump
10/07/2020, 09:36:06,-7.1545396,-3.1513474,5.556134,0.62765115,0.43471557,1.5422634,9.591092462124939,1.720900914705519,jump
10/07/2020, 09:36:06,-7.1545396,-3.1513474,5.556134,0.5739222,0.4163989,1.6191934,9.591092462124939,1.7676431044016847,jump
10/07/2020, 09:36:06,-7.3196445,-3.129812,5.5393844,0.5739222,0.4163989,1.6191934,9.698334764496407,1.7676431044016847,jump
10/07/2020, 09:36:06,-7.3196445,-3.129812,5.5393844,0.5043189,0.40174556,1.6924601,9.698334764496407,1.8111206735312502,jump
10/07/2020, 09:36:06,-7.503892,-3.0915267,5.532206,0.5043189,0.40174556,1.6924601,9.821977184870269,1.8111206735312502,jump
10/07/2020, 09:36:06,-7.503892,-3.0915267,5.532206,0.42983112,0.3809867,1.7535156,9.821977184870269,1.845189044877903,jump
10/07/2020, 09:36:06,-7.6426754,-3.0293136,5.5250273,0.42983112,0.3809867,1.7535156,9.905208444434672,1.845189044877903,jump
10/07/2020, 09:36:06,-7.6426754,-3.0293136,5.5250273,0.34801668,0.35412225,1.801139,9.905208444434672,1.8683200648451397,jump
10/07/2020, 09:36:06,-7.7647095,-3.0077782,5.5202417,0.34801668,0.35412225,1.801139,9.990521084505705,1.8683200648451397,jump
10/07/2020, 09:36:06,-7.7647095,-3.0077782,5.5202417,0.27475002,0.31993112,1.8536468,9.990521084505705,1.9010128327300069,jump
10/07/2020, 09:36:06,-7.9130645,-3.0077782,5.4867425,0.27475002,0.31993112,1.8536468,10.08799594522862,1.9010128327300069,jump
10/07/2020, 09:36:06,-7.9130645,-3.0077782,5.4867425,0.20636779,0.2845189,1.8915012,10.08799594522862,1.9238803012010532,jump
10/07/2020, 09:36:06,-7.9920278,-3.0843484,5.5226345,0.20636779,0.2845189,1.8915012,10.192409180325534,1.9238803012010532,jump
10/07/2020, 09:36:06,-7.9920278,-3.0843484,5.5226345,0.14653334,0.26009667,1.9195868,10.192409180325534,1.9426620123411125,jump
10/07/2020, 09:36:07,3.237489,-3.2709885,4.8119664,0.45303226,1.6118667,3.2139645,6.658507436508778,3.623937097704546,jump
10/07/2020, 09:36:07,2.4598217,-3.8356948,4.9674997,0.45303226,1.6118667,3.2139645,6.740870190056078,3.623937097704546,jump
10/07/2020, 09:36:07,2.4598217,-3.8356948,4.9674997,0.3944189,1.6851335,3.339739,6.740870190056078,3.7615287031035356,jump
10/07/2020, 09:36:07,2.1343977,-3.9338005,4.9674997,0.3944189,1.6851335,3.339739,6.686291452068236,3.7615287031035356,jump
10/07/2020, 09:36:07,2.1343977,-3.9338005,4.9674997,0.31260446,1.7840434,3.5168002,6.686291452068236,3.9558078711066185,jump
10/07/2020, 09:36:07,2.1128623,-3.586841,4.8502517,0.31260446,1.7840434,3.5168002,6.391757014630654,3.9558078711066185,jump
10/07/2020, 09:36:07,2.1128623,-3.586841,4.8502517,0.23201112,1.8731846,3.723168,6.391757014630654,4.174281824219653,jump
10/07/2020, 09:36:07,2.0554347,-3.2925239,4.7808595,0.23201112,1.8731846,3.723168,6.158095685510298,4.174281824219653,jump
10/07/2020, 09:36:07,2.0554347,-3.2925239,4.7808595,0.17706113,1.9879689,3.944189,6.158095685510298,4.420407052372881,jump
10/07/2020, 09:36:07,1.7228323,-3.3355947,4.87418,0.17706113,1.9879689,3.944189,6.1523956325980595,4.420407052372881,jump
10/07/2020, 09:36:07,1.7228323,-3.3355947,4.87418,0.21980001,2.0881002,4.1713157,6.1523956325980595,4.669940994007184,jump
10/07/2020, 09:36:07,1.0001999,-3.8261235,5.209175,0.21980001,2.0881002,4.1713157,6.540269569899841,4.669940994007184,jump
10/07/2020, 09:36:07,1.0001999,-3.8261235,5.209175,0.40052447,2.1454923,4.3654723,6.540269569899841,4.880666519243922,jump
10/07/2020, 09:36:07,0.02632105,-4.8861437,5.716453,0.40052447,2.1454923,4.3654723,7.520168127474995,4.880666519243922,jump
10/07/2020, 09:36:07,0.02632105,-4.8861437,5.716453,0.6191034,2.2163167,4.5095634,7.520168127474995,5.062757269893963,jump
10/07/2020, 09:36:07,-1.0336994,-6.1974106,6.209375,0.6191034,2.2163167,4.5095634,8.833615855489859,5.062757269893963,jump
10/07/2020, 09:36:07,-1.0336994,-6.1974106,6.209375,0.80104893,2.3225534,4.579167,8.833615855489859,5.196604956389831,jump
10/07/2020, 09:36:07,-1.9310079,-7.109076,6.515656,0.80104893,2.3225534,4.579167,9.834710280595882,5.196604956389831,jump
10/07/2020, 09:36:07,-1.9310079,-7.109076,6.515656,0.9842156,2.427569,4.5742826,9.834710280595882,5.271226890696605,jump
10/07/2020, 09:36:07,-2.605784,-7.585248,6.5252275,0.9842156,2.427569,4.5742826,10.339472500914663,5.271226890696605,jump
10/07/2020, 09:36:08,-5.962914,-2.5124638,6.326623,0.8645467,0.26009667,-0.11966889,9.049584286283114,0.9107205641237318,jump
10/07/2020, 09:36:08,-5.8863435,-2.3162522,6.2979093,0.8645467,0.26009667,-0.11966889,8.9262380093529,0.9107205641237318,jump
10/07/2020, 09:36:08,-5.8863435,-2.3162522,6.2979093,0.7619734,0.24422224,0.037854444,8.9262380093529,0.8010498699966971,jump
10/07/2020, 09:36:08,-5.879165,-2.1702902,6.2404814,0.7619734,0.24422224,0.037854444,8.844113897308423,0.8010498699966971,jump
10/07/2020, 09:36:08,-5.879165,-2.1702902,6.2404814,0.6386411,0.22468445,0.19904111,8.844113897308423,0.7056648952546365,jump
10/07/2020, 09:36:08,-5.9246287,-2.065006,6.1567326,0.6386411,0.22468445,0.19904111,8.790382887073354,0.7056648952546365,jump
10/07/2020, 09:36:08,-5.9246287,-2.065006,6.1567326,0.49455002,0.19904111,0.36755446,8.790382887073354,0.6475286593495315,jump
10/07/2020, 09:36:08,-5.9916277,-1.995614,6.06102,0.49455002,0.19904111,0.36755446,8.753173142059456,0.6475286593495315,jump
10/07/2020, 09:36:08,-5.9916277,-1.995614,6.06102,0.33580557,0.1746189,0.51775116,8.753173142059456,0.6413449918792334,jump
10/07/2020, 09:36:08,-6.0729837,-1.9405792,5.979664,0.33580557,0.1746189,0.51775116,8.740901487339713,0.6413449918792334,jump
10/07/2020, 09:36:08,-6.0729837,-1.9405792,5.979664,0.18927222,0.14653334,0.67283225,8.740901487339713,0.7141423053953567,jump
10/07/2020, 09:36:08,-6.195018,-1.9357935,5.855237,0.18927222,0.14653334,0.67283225,8.741243772011808,0.7141423053953567,jump
10/07/2020, 09:36:08,-6.195018,-1.9357935,5.855237,0.05617111,0.11234222,0.8230289,8.741243772011808,0.8325578511821217,jump
10/07/2020, 09:36:08,-6.2979093,-1.9549361,5.7188463,0.05617111,0.11234222,0.8230289,8.728724971430175,0.8325578511821217,jump
10/07/2020, 09:36:08,-6.2979093,-1.9549361,5.7188463,-0.034191113,0.06960334,0.9610145,8.728724971430175,0.9641382389875887,jump
10/07/2020, 09:36:08,-6.422336,-2.0697916,5.5872407,-0.034191113,0.06960334,0.9610145,8.760576275473147,0.9641382389875887,jump
10/07/2020, 09:36:08,-6.422336,-2.0697916,5.5872407,-0.08059334,0.045181114,1.0941156,8.760576275473147,1.0980098352471488,jump
10/07/2020, 09:36:08,-6.5084777,-2.1942184,5.5130634,-0.08059334,0.045181114,1.0941156,8.807311995113848,1.0980098352471488,jump
10/07/2020, 09:36:08,-6.5084777,-2.1942184,5.5130634,-0.09402556,0.04029667,1.2272167,8.807311995113848,1.2314729013551557,jump
10/07/2020, 09:36:08,-6.6185474,-2.3425734,5.4676,-0.09402556,0.04029667,1.2272167,8.898734106013052,1.2314729013551557,jump
10/07/2020, 09:36:09,-1.8185452,-3.034099,3.8763726,0.8498934,-2.2053268,-4.4753723,5.247773664371368,5.061100908355643,jump
10/07/2020, 09:36:09,-1.3375878,-3.0029924,3.6897326,0.8498934,-2.2053268,-4.4753723,4.941784173570015,5.061100908355643,jump
10/07/2020, 09:36:09,-1.3375878,-3.0029924,3.6897326,0.63009334,-2.107638,-4.2799945,4.941784173570015,4.81222483578059,jump
10/07/2020, 09:36:09,-0.94755775,-2.9766715,3.5174494,0.63009334,-2.107638,-4.2799945,4.70434785946318,4.81222483578059,jump
10/07/2020, 09:36:09,-0.94755775,-2.9766715,3.5174494,0.4151778,-1.9403456,-4.0369935,4.70434785946318,4.498291939056276,jump
10/07/2020, 09:36:09,-0.60777694,-2.4861426,3.1465619,0.4151778,-1.9403456,-4.0369935,4.056001671259411,4.498291939056276,jump
10/07/2020, 09:36:09,-0.60777694,-2.4861426,3.1465619,0.23933779,-1.790149,-3.7366002,4.056001671259411,4.150192367069959,jump
10/07/2020, 09:36:09,-0.29192436,-1.5194423,2.737389,0.23933779,-1.790149,-3.7366002,3.14439561938328,4.150192367069959,jump
10/07/2020, 09:36:09,-0.29192436,-1.5194423,2.737389,0.06227667,-1.7522945,-3.4471967,3.14439561938328,3.867503042040891,jump
10/07/2020, 09:36:09,0.043070808,-0.5814559,2.469393,0.06227667,-1.7522945,-3.4471967,2.537291450418986,3.867503042040891,jump
10/07/2020, 09:36:09,0.043070808,-0.5814559,2.469393,-0.22712667,-1.74741,-3.2139645,2.537291450418986,3.6653234515571147,jump
10/07/2020, 09:36:09,0.53599226,0.0047856453,2.1080768,-0.22712667,-1.74741,-3.2139645,2.1751548107336913,3.6653234515571147,jump
10/07/2020, 09:36:09,0.53599226,0.0047856453,2.1080768,-0.59590226,-1.7010078,-2.9892802,2.1751548107336913,3.4906050259328825,jump
10/07/2020, 09:36:09,1.052842,0.36370903,1.7874385,-0.59590226,-1.7010078,-2.9892802,2.1061094499446185,3.4906050259328825,jump
10/07/2020, 09:36:09,1.052842,0.36370903,1.7874385,-0.84745115,-1.6729223,-2.7597113,2.1061094499446185,3.3365923617132998,jump
10/07/2020, 09:36:09,1.5553347,0.2727818,1.605584,-0.84745115,-1.6729223,-2.7597113,2.2519715709685144,3.3365923617132998,jump
10/07/2020, 09:36:09,1.5553347,0.2727818,1.605584,-0.9878789,-1.6045401,-2.5277002,2.2519715709685144,3.1527324578062514,jump
10/07/2020, 09:36:09,2.0937197,-0.15074782,1.4213367,-0.9878789,-1.6045401,-2.5277002,2.535071014772069,3.1527324578062514,jump
10/07/2020, 09:36:09,2.0937197,-0.15074782,1.4213367,-1.0184067,-1.4543434,-2.2590556,2.535071014772069,2.8732558903279375,jump
10/07/2020, 09:36:09,2.656033,-0.4211368,1.2466606,-1.0184067,-1.4543434,-2.2590556,2.9641238727802848,2.8732558903279375,jump
10/07/2020, 09:36:10,-7.7216387,-4.74736,4.816752,-1.3993934,-0.9182756,-1.4140468,10.264610682342749,2.19113219994011,jump
10/07/2020, 09:36:10,-7.7216387,-4.74736,4.816752,-1.1832567,-0.82913446,-1.4628912,10.264610682342749,2.0561155633460624,jump
10/07/2020, 09:36:10,-7.771888,-4.5320063,4.735396,-1.1832567,-0.82913446,-1.4628912,10.166872421567104,2.0561155633460624,jump
10/07/2020, 09:36:10,-7.771888,-4.5320063,4.735396,-0.9866578,-0.7631945,-1.5092934,10.166872421567104,1.9580414032593314,jump
10/07/2020, 09:36:10,-7.874779,-4.319045,4.685147,-0.9866578,-0.7631945,-1.5092934,10.12999993784185,1.9580414032593314,jump
10/07/2020, 09:36:10,-7.874779,-4.319045,4.685147,-0.8364611,-0.7009178,-1.5410423,10.12999993784185,1.8883231735736277,jump
10/07/2020, 09:36:10,-7.9513497,-4.0558343,4.6037908,-0.8364611,-0.7009178,-1.5410423,10.043338279172477,1.8883231735736277,jump
10/07/2020, 09:36:10,-7.9513497,-4.0558343,4.6037908,-0.7668578,-0.61666113,-1.5740123,10.043338279172477,1.8563018334383325,jump
10/07/2020, 09:36:10,-8.039884,-3.792624,4.436293,-0.7668578,-0.61666113,-1.5740123,9.935009914081562,1.8563018334383325,jump
10/07/2020, 09:36:10,-8.039884,-3.792624,4.436293,-0.7619734,-0.5470578,-1.5935501,9.935009914081562,1.8491288637526864,jump
10/07/2020, 09:36:10,-8.080562,-3.5150564,4.1443686,-0.7619734,-0.5470578,-1.5935501,9.737909897642984,1.8491288637526864,jump
10/07/2020, 09:36:10,-8.080562,-3.5150564,4.1443686,-0.79250115,-0.5250778,-1.5972134,9.737909897642984,1.8587241315679794,jump
10/07/2020, 09:36:10,-8.075776,-3.3379877,3.8285162,-0.79250115,-0.5250778,-1.5972134,9.54032797573914,1.8587241315679794,jump
10/07/2020, 09:36:10,-8.075776,-3.3379877,3.8285162,-0.8401245,-0.52141446,-1.5923289,9.54032797573914,1.8743514979847329,jump
10/07/2020, 09:36:10,-7.9776707,-3.2614172,3.5988052,-0.8401245,-0.52141446,-1.5923289,9.339778901600182,1.8743514979847329,jump
10/07/2020, 09:36:10,-7.9776707,-3.2614172,3.5988052,-0.86943114,-0.4933289,-1.5825601,9.339778901600182,1.8718387370853098,jump
10/07/2020, 09:36:10,-7.8197446,-3.3284163,3.562913,-0.86943114,-0.4933289,-1.5825601,9.21526502127716,1.8718387370853098,jump
10/07/2020, 09:36:10,-7.8197446,-3.3284163,3.562913,-0.8401245,-0.45181113,-1.56058,9.21526502127716,1.8290304646069786,jump
10/07/2020, 09:36:10,-7.628319,-3.4121652,3.6466618,-0.8401245,-0.45181113,-1.56058,9.11768943337846,1.8290304646069786,jump
10/07/2020, 09:36:10,-7.628319,-3.4121652,3.6466618,-0.7717422,-0.3834289,-1.5398211,9.11768943337846,1.764554604257706,jump
10/07/2020, 09:36:11,0.39960137,-1.550549,4.9172506,-0.117226675,-2.8842645,-2.977069,5.171386404094745,4.146765349404306,jump
10/07/2020, 09:36:11,0.39960137,-1.550549,4.9172506,-0.10379445,-2.7291834,-2.8744957,5.171386404094745,3.965090326595408,jump
10/07/2020, 09:36:11,0.7896315,-1.4452649,4.76411,-0.10379445,-2.7291834,-2.8744957,5.040739385373549,3.965090326595408,jump
10/07/2020, 09:36:11,0.7896315,-1.4452649,4.76411,-0.09768889,-2.5850923,-2.7536056,5.040739385373549,3.7781727295081144,jump
10/07/2020, 09:36:11,1.0456635,-1.4285151,4.706682,-0.09768889,-2.5850923,-2.7536056,5.02861062421304,3.7781727295081144,jump
10/07/2020, 09:36:11,1.0456635,-1.4285151,4.706682,-0.11478445,-2.42879,-2.6095145,5.02861062421304,3.566757992579771,jump
10/07/2020, 09:36:11,1.2107682,-1.4189439,4.7018967,-0.11478445,-2.42879,-2.6095145,5.0583785644473345,3.566757992579771,jump
10/07/2020, 09:36:11,1.2107682,-1.4189439,4.7018967,-0.14164889,-2.2932467,-2.4654233,5.0583785644473345,3.3700678507752104,jump
10/07/2020, 09:36:11,1.4596218,-1.3854443,4.706682,-0.14164889,-2.2932467,-2.4654233,5.118867941711682,3.3700678507752104,jump
10/07/2020, 09:36:11,1.4596218,-1.3854443,4.706682,-0.17584,-2.1601458,-2.3140056,5.118867941711682,3.1704528680628106,jump
10/07/2020, 09:36:11,1.820938,-1.2251252,4.5320063,-0.17584,-2.1601458,-2.3140056,5.035457047983127,3.1704528680628106,jump
10/07/2020, 09:36:11,1.820938,-1.2251252,4.5320063,-0.20881,-2.0160546,-2.1430502,5.035457047983127,2.949702022600509,jump
10/07/2020, 09:36:11,2.347359,-0.7393822,4.240082,-0.20881,-2.0160546,-2.1430502,4.902557864291238,2.949702022600509,jump
10/07/2020, 09:36:11,2.347359,-0.7393822,4.240082,-0.22468445,-1.8707423,-1.9684312,4.902557864291238,2.724863566636609,jump
10/07/2020, 09:36:11,2.9192436,-0.19621146,3.8691943,-0.22468445,-1.8707423,-1.9684312,4.850891286535582,2.724863566636609,jump
10/07/2020, 09:36:11,2.9192436,-0.19621146,3.8691943,-0.27963445,-1.7193245,-1.79137,4.850891286535582,2.4986553692896867,jump
10/07/2020, 09:36:11,3.438486,0.33260235,3.749553,-0.27963445,-1.7193245,-1.79137,5.0983289828876295,2.4986553692896867,jump
10/07/2020, 09:36:11,3.438486,0.33260235,3.749553,-0.30161446,-1.5642434,-1.636289,5.0983289828876295,2.2836966751986503,jump
10/07/2020, 09:36:11,3.751946,0.4761717,3.7064822,-0.30161446,-1.5642434,-1.636289,5.29545542531507,2.2836966751986503,jump
10/07/2020, 09:36:11,3.751946,0.4761717,3.7064822,-0.34435335,-1.4042778,-1.4726601,5.29545542531507,2.063807897617548,jump
10/07/2020, 09:36:12,-7.795816,-4.005585,4.098905,-1.9525567,-0.6056711,-2.074668,9.675767767724395,2.91265553992551,jump
10/07/2020, 09:36:12,-7.652247,-4.101298,4.249653,-1.9525567,-0.6056711,-2.074668,9.666285582681432,2.91265553992551,jump
10/07/2020, 09:36:12,-7.652247,-4.101298,4.249653,-1.8328879,-0.5006556,-2.041698,9.666285582681432,2.789025756145538,jump
10/07/2020, 09:36:12,-7.5469627,-4.156333,4.316652,-1.8328879,-0.5006556,-2.041698,9.636660898307571,2.789025756145538,jump
10/07/2020, 09:36:12,-7.5469627,-4.156333,4.316652,-1.7083346,-0.39686114,-1.9904112,9.636660898307571,2.6528555073876983,jump
10/07/2020, 09:36:12,-7.4536424,-4.173083,4.2855453,-1.7083346,-0.39686114,-1.9904112,9.557055183885954,2.6528555073876983,jump
10/07/2020, 09:36:12,-7.4536424,-4.173083,4.2855453,-1.5886656,-0.30649891,-1.9305768,9.557055183885954,2.518913808330773,jump
10/07/2020, 09:36:12,-7.4105716,-4.1491547,4.1778684,-1.5886656,-0.30649891,-1.9305768,9.465021900370292,2.518913808330773,jump
10/07/2020, 09:36:12,-7.4105716,-4.1491547,4.1778684,-1.4677756,-0.23811668,-1.8548678,9.465021900370292,2.377309262928675,jump
10/07/2020, 09:36:12,-7.3435726,-4.139583,4.074977,-1.4677756,-0.23811668,-1.8548678,9.363206929977933,2.377309262928675,jump
10/07/2020, 09:36:12,-7.3435726,-4.139583,4.074977,-1.3627601,-0.16240779,-1.7645056,9.363206929977933,2.2353906568789914,jump
10/07/2020, 09:36:12,-7.2646093,-4.1108694,3.95055,-1.3627601,-0.16240779,-1.7645056,9.234751866362977,2.2353906568789914,jump
10/07/2020, 09:36:12,-7.2646093,-4.1108694,3.95055,-1.2662922,-0.07448778,-1.6448368,9.234751866362977,2.077145263602909,jump
10/07/2020, 09:36:12,-7.166504,-4.0701914,3.7806597,-1.2662922,-0.07448778,-1.6448368,9.06744857819349,2.077145263602909,jump
10/07/2020, 09:36:12,-7.166504,-4.0701914,3.7806597,-1.1686034,-0.0024422223,-1.5312734,9.06744857819349,1.926249733733799,jump
10/07/2020, 09:36:12,-7.0205417,-4.063013,3.586841,-1.1686034,-0.0024422223,-1.5312734,8.869132409431444,1.926249733733799,jump
10/07/2020, 09:36:12,-7.0205417,-4.063013,3.586841,-1.0574822,0.05006556,-1.4189311,8.869132409431444,1.7703504725161363,jump
10/07/2020, 09:36:12,-6.8578296,-4.063013,3.4576287,-1.0574822,0.05006556,-1.4189311,8.688676429544843,1.7703504725161363,jump
10/07/2020, 09:36:12,-6.8578296,-4.063013,3.4576287,-0.92438114,0.102573335,-1.3004833,8.688676429544843,1.5988304189373326,jump
10/07/2020, 09:36:12,-6.735796,-4.125226,3.4695928,-0.92438114,0.102573335,-1.3004833,8.627080120235588,1.5988304189373326,jump
10/07/2020, 09:36:13,-9.0233345,-13.529019,3.5988052,-1.1881411,0.93903446,-4.6524334,16.65551947777076,4.892709015540305,jump
10/07/2020, 09:36:13,-8.839087,-13.940585,3.6370904,-1.1881411,0.93903446,-4.6524334,16.90259718440343,4.892709015540305,jump
10/07/2020, 09:36:13,-8.839087,-13.940585,3.6370904,-0.7326667,0.9817734,-4.7733235,16.90259718440343,4.9280114643225055,jump
10/07/2020, 09:36:13,-8.693125,-14.306686,3.6059837,-0.7326667,0.9817734,-4.7733235,17.124684311370803,4.9280114643225055,jump
10/07/2020, 09:36:13,-8.693125,-14.306686,3.6059837,-0.21369445,1.0330601,-4.9027615,17.124684311370803,5.01497241894978,jump
10/07/2020, 09:36:13,-8.623733,-14.586647,3.4863427,-0.21369445,1.0330601,-4.9027615,17.30010463182807,5.01497241894978,jump
10/07/2020, 09:36:13,-8.623733,-14.586647,3.4863427,0.2613178,1.0635878,-5.0554004,17.30010463182807,5.172676181603366,jump
10/07/2020, 09:36:13,-8.628518,-14.66561,3.3140593,0.2613178,1.0635878,-5.0554004,17.335352298347807,5.172676181603366,jump
10/07/2020, 09:36:13,-8.628518,-14.66561,3.3140593,0.62643003,1.0806834,-5.243451,17.335352298347807,5.390182809910659,jump
10/07/2020, 09:36:13,-8.733803,-14.486148,3.1489546,0.62643003,1.0806834,-5.243451,17.205920694561964,5.390182809910659,jump
10/07/2020, 09:36:13,-8.733803,-14.486148,3.1489546,0.86088336,1.0696933,-5.4241757,17.205920694561964,5.595270003812497,jump
10/07/2020, 09:36:13,-8.894122,-14.031512,2.9838498,0.86088336,1.0696933,-5.4241757,16.87874711226391,5.595270003812497,jump
10/07/2020, 09:36:13,-8.894122,-14.031512,2.9838498,0.9610145,1.0257334,-5.569488,16.87874711226391,5.744116548145577,jump
10/07/2020, 09:36:13,-8.968299,-13.406985,2.7565317,0.9610145,1.0257334,-5.569488,16.36386588950354,5.744116548145577,jump
10/07/2020, 09:36:13,-8.968299,-13.406985,2.7565317,0.91094893,0.92438114,-5.6378703,16.36386588950354,5.785316767060836,jump
10/07/2020, 09:36:13,-8.944371,-12.746566,2.5866413,0.91094893,0.92438114,-5.6378703,15.785038170072502,5.785316767060836,jump
10/07/2020, 09:36:13,-8.944371,-12.746566,2.5866413,0.73633003,0.80227005,-5.6732826,15.785038170072502,5.776846447771545,jump
10/07/2020, 09:36:13,-8.743374,-12.126825,2.4478576,0.73633003,0.80227005,-5.6732826,15.149207445060595,5.776846447771545,jump
10/07/2020, 09:36:13,-8.743374,-12.126825,2.4478576,0.4933289,0.68138003,-5.723348,15.149207445060595,5.784839331616595,jump
10/07/2020, 09:36:13,-8.334201,-11.624332,2.3282163,0.4933289,0.68138003,-5.723348,14.491535445276988,5.784839331616595,jump
10/07/2020, 09:36:14,-8.166703,-5.879165,5.8073807,-1.8292245,-1.4262578,-0.9512456,11.61831721883237,2.5070185092274286,jump
10/07/2020, 09:36:14,-8.166703,-5.879165,5.8073807,-1.6472789,-1.4177101,-1.0684723,11.61831721883237,2.4217891330582195,jump
10/07/2020, 09:36:14,-8.377272,-5.706882,5.9030933,-1.6472789,-1.4177101,-1.0684723,11.730033821519122,2.4217891330582195,jump
10/07/2020, 09:36:14,-8.377272,-5.706882,5.9030933,-1.5337156,-1.4140468,-1.185699,11.730033821519122,2.399519513703033,jump
10/07/2020, 09:36:14,-8.6548395,-5.4125648,6.053841,-1.5337156,-1.4140468,-1.185699,11.86807046228987,2.399519513703033,jump
10/07/2020, 09:36:14,-8.6548395,-5.4125648,6.053841,-1.526389,-1.4103833,-1.284609,11.86807046228987,2.443207879929067,jump
10/07/2020, 09:36:14,-8.8701935,-5.020142,6.128019,-1.526389,-1.4103833,-1.284609,11.8926352834719,2.443207879929067,jump
10/07/2020, 09:36:14,-8.8701935,-5.020142,6.128019,-1.6179723,-1.4128256,-1.3578756,11.8926352834719,2.541207676473539,jump
10/07/2020, 09:36:14,-8.958728,-4.5631127,6.0323057,-1.6179723,-1.4128256,-1.3578756,11.724739423909577,2.541207676473539,jump
10/07/2020, 09:36:14,-8.958728,-4.5631127,6.0323057,-1.7693901,-1.4433534,-1.4409112,11.724739423909577,2.7000435992803347,jump
10/07/2020, 09:36:14,-8.879765,-4.1108694,5.8073807,-1.7693901,-1.4433534,-1.4409112,11.378714171276103,2.7000435992803347,jump
10/07/2020, 09:36:14,-8.879765,-4.1108694,5.8073807,-1.9171445,-1.460449,-1.5202833,11.378714171276103,2.849493961733353,jump
10/07/2020, 09:36:14,-8.6548395,-3.7806597,5.575277,-1.9171445,-1.460449,-1.5202833,10.967376468306533,2.849493961733353,jump
10/07/2020, 09:36:14,-8.6548395,-3.7806597,5.575277,-2.019718,-1.4287001,-1.6069822,10.967376468306533,2.9500570097254055,jump
10/07/2020, 09:36:14,-8.370093,-3.603591,5.393422,-2.019718,-1.4287001,-1.6069822,10.589302748400254,2.9500570097254055,jump
10/07/2020, 09:36:14,-8.370093,-3.603591,5.393422,-2.04414,-1.32979,-1.691239,10.589302748400254,2.967682519613401,jump
10/07/2020, 09:36:14,-8.087741,-3.5174494,5.197211,-2.04414,-1.32979,-1.691239,10.236943047188351,2.967682519613401,jump
10/07/2020, 09:36:14,-8.087741,-3.5174494,5.197211,-1.9818634,-1.1820356,-1.7608423,10.236943047188351,2.9026808677958518,jump
10/07/2020, 09:36:14,-7.9011,-3.4911282,4.924429,-1.9818634,-1.1820356,-1.7608423,9.943106167264796,2.9026808677958518,jump
10/07/2020, 09:36:14,-7.9011,-3.4911282,4.924429,-1.845099,-1.0184067,-1.8157923,9.943106167264796,2.7818418863790497,jump
10/07/2020, 09:36:15,-7.539784,-4.5487556,5.4317074,-0.7717422,-0.17217667,-2.0258234,10.346157020506707,2.1746703504164655,jump
10/07/2020, 09:36:15,-7.456035,-4.6061835,5.4819565,-0.7717422,-0.17217667,-2.0258234,10.337370726569477,2.1746703504164655,jump
10/07/2020, 09:36:15,-7.456035,-4.6061835,5.4819565,-0.6105556,-0.13676445,-1.9782001,10.337370726569477,2.074791119953077,jump
10/07/2020, 09:36:15,-7.338787,-4.5798626,5.4723854,-0.6105556,-0.13676445,-1.9782001,10.236207266926167,2.074791119953077,jump
10/07/2020, 09:36:15,-7.338787,-4.5798626,5.4723854,-0.45303226,-0.10745778,-1.9195868,10.236207266926167,1.9752465151571106,jump
10/07/2020, 09:36:15,-7.23111,-4.4745784,5.3982077,-0.45303226,-0.10745778,-1.9195868,10.072311099896776,1.9752465151571106,jump
10/07/2020, 09:36:15,-7.23111,-4.4745784,5.3982077,-0.30283555,-0.098910004,-1.8475412,10.072311099896776,1.874806948843836,jump
10/07/2020, 09:36:15,-7.1712894,-4.347759,5.3359947,-0.30283555,-0.098910004,-1.8475412,9.939981804207399,1.874806948843836,jump
10/07/2020, 09:36:15,-7.1712894,-4.347759,5.3359947,-0.17217667,-0.08425667,-1.7498523,9.939981804207399,1.7603201596510862,jump
10/07/2020, 09:36:15,-7.0636125,-4.141976,5.2019963,-0.17217667,-0.08425667,-1.7498523,9.701100502963143,1.7603201596510862,jump
10/07/2020, 09:36:15,-7.0636125,-4.141976,5.2019963,-0.05617111,-0.064718895,-1.6338468,9.701100502963143,1.6360925901730212,jump
10/07/2020, 09:36:15,-6.927222,-3.8811584,5.1182475,-0.05617111,-0.064718895,-1.6338468,9.447023300316163,1.6360925901730212,jump
10/07/2020, 09:36:15,-6.927222,-3.8811584,5.1182475,0.03052778,-0.06227667,-1.5202833,9.447023300316163,1.5218645691999413,jump
10/07/2020, 09:36:15,-6.8075805,-3.6131623,5.0512486,0.03052778,-0.06227667,-1.5202833,9.214836159317214,1.5218645691999413,jump
10/07/2020, 09:36:15,-6.8075805,-3.6131623,5.0512486,0.07937223,-0.06594,-1.4042778,9.214836159317214,1.408063982171579,jump
10/07/2020, 09:36:15,-6.7022963,-3.3643086,4.981857,0.07937223,-0.06594,-1.4042778,9.003235243411865,1.408063982171579,jump
10/07/2020, 09:36:15,-6.7022963,-3.3643086,4.981857,0.09524667,-0.047623336,-1.28583,9.003235243411865,1.2902320541159658,jump
10/07/2020, 09:36:15,-6.6759753,-3.1657043,4.912465,0.09524667,-0.047623336,-1.28583,8.872578161104451,1.2902320541159658,jump
10/07/2020, 09:36:15,-6.6759753,-3.1657043,4.912465,0.09646778,-0.024422223,-1.1673822,8.872578161104451,1.1716158807945891,jump
10/07/2020, 09:36:15,-6.73101,-3.0005996,4.8933225,0.09646778,-0.024422223,-1.1673822,8.846168546539806,1.1716158807945891,jump
10/07/2020, 09:36:16,-11.059627,-8.484949,8.049456,-1.3114734,-0.59468114,-4.565735,16.09669027002767,4.787435942515797,jump
10/07/2020, 09:36:16,-11.059627,-8.484949,8.049456,-1.4177101,-0.6032289,-4.841706,16.09669027002767,5.080935151506271,jump
10/07/2020, 09:36:16,-11.49512,-8.8701935,8.422736,-1.4177101,-0.6032289,-4.841706,16.785726135094958,5.080935151506271,jump
10/07/2020, 09:36:16,-11.49512,-8.8701935,8.422736,-1.5288311,-0.62643003,-5.140878,16.785726135094958,5.399848874518313,jump
10/07/2020, 09:36:16,-12.009577,-9.126225,8.513663,-1.5288311,-0.62643003,-5.140878,17.32051930109682,5.399848874518313,jump
10/07/2020, 09:36:16,-12.009577,-9.126225,8.513663,-1.6607112,-0.6557367,-5.481568,17.32051930109682,5.765027180107961,jump
10/07/2020, 09:36:16,-12.569497,-9.41815,8.508878,-1.6607112,-0.6557367,-5.481568,17.863224978736625,5.765027180107961,jump
10/07/2020, 09:36:16,-12.569497,-9.41815,8.508878,-1.8267823,-0.6972545,-5.8185945,17.863224978736625,6.138349858662117,jump
10/07/2020, 09:36:16,-13.100704,-9.805787,8.343773,-1.8267823,-0.6972545,-5.8185945,18.368463646984914,6.138349858662117,jump
10/07/2020, 09:36:16,-13.100704,-9.805787,8.343773,-1.965989,-0.7851745,-6.137305,18.368463646984914,6.49215847766746,jump
10/07/2020, 09:36:16,-13.540983,-10.281959,8.19781,-1.965989,-0.7851745,-6.137305,18.875407012802757,6.49215847766746,jump
10/07/2020, 09:36:16,-13.540983,-10.281959,8.19781,-1.9794211,-0.8975167,-6.3839693,18.875407012802757,6.743790360965979,jump
10/07/2020, 09:36:16,-13.763515,-10.858629,8.1738825,-1.9794211,-0.8975167,-6.3839693,19.343126471987564,6.743790360965979,jump
10/07/2020, 09:36:16,-13.763515,-10.858629,8.1738825,-1.8487623,-0.99032116,-6.5610304,19.343126471987564,6.888089553303524,jump
10/07/2020, 09:36:16,-13.672588,-11.523834,8.413164,-1.8487623,-0.99032116,-6.5610304,19.76157276881297,6.888089553303524,jump
10/07/2020, 09:36:16,-13.672588,-11.523834,8.413164,-1.614309,-1.0232911,-6.7075634,19.76157276881297,6.974562700493501,jump
10/07/2020, 09:36:16,-13.287344,-12.174682,8.738588,-1.614309,-1.0232911,-6.7075634,20.028462489090998,6.974562700493501,jump
10/07/2020, 09:36:16,-13.287344,-12.174682,8.738588,-1.2723979,-0.9915423,-6.811358,20.028462489090998,6.999767846897243,jump
10/07/2020, 09:36:16,-12.787244,-12.538391,8.85823,-1.2723979,-0.9915423,-6.811358,19.97981704411664,6.999767846897243,jump
10/07/2020, 09:36:16,-12.787244,-12.538391,8.85823,-0.7851745,-0.95613,-6.834559,19.97981704411664,6.945637468047199,jump
10/07/2020, 09:36:17,-8.374879,-3.7663028,3.2805598,-0.40785113,0.5678167,-1.9952956,9.751189964903556,2.114228707194628,jump
10/07/2020, 09:36:17,-8.374879,-3.7663028,3.2805598,-0.45059,0.6252089,-2.0160546,9.751189964903556,2.158331258147291,jump
10/07/2020, 09:36:17,-8.391629,-3.804588,3.3523445,-0.45059,0.6252089,-2.0160546,9.804720553786733,2.158331258147291,jump
10/07/2020, 09:36:17,-8.391629,-3.804588,3.3523445,-0.4713489,0.68138003,-2.031929,9.804720553786733,2.19435276857682,jump
10/07/2020, 09:36:17,-8.513663,-3.9601214,3.5509489,-0.4713489,0.68138003,-2.031929,10.038638448080086,2.19435276857682,jump
10/07/2020, 09:36:17,-8.513663,-3.9601214,3.5509489,-0.46524334,0.7351089,-2.0563512,10.038638448080086,2.232804665188401,jump
10/07/2020, 09:36:17,-8.721839,-4.1371903,3.802195,-0.46524334,0.7351089,-2.0563512,10.375138841552866,2.232804665188401,jump
10/07/2020, 09:36:17,-8.721839,-4.1371903,3.802195,-0.4273889,0.78761667,-2.0807734,10.375138841552866,2.265528425203532,jump
10/07/2020, 09:36:17,-8.930014,-4.3357944,4.007978,-0.4273889,0.78761667,-2.0807734,10.705519359558846,2.265528425203532,jump
10/07/2020, 09:36:17,-8.930014,-4.3357944,4.007978,-0.37732336,0.82913446,-2.0917635,10.705519359558846,2.2815151549209016,jump
10/07/2020, 09:36:17,-9.0233345,-4.436293,4.17069,-0.37732336,0.82913446,-2.0917635,10.88558302628783,2.2815151549209016,jump
10/07/2020, 09:36:17,-9.0233345,-4.436293,4.17069,-0.3370267,0.8401245,-2.086879,10.88558302628783,2.2747439778953153,jump
10/07/2020, 09:36:17,-9.001799,-4.476971,4.2975097,-0.3370267,0.8401245,-2.086879,10.93362879421461,2.2747439778953153,jump
10/07/2020, 09:36:17,-9.001799,-4.476971,4.2975097,-0.30405667,0.8437878,-2.0624568,10.93362879421461,2.2490345789225,jump
10/07/2020, 09:36:17,-8.817552,-4.4745784,4.426722,-0.30405667,0.8437878,-2.0624568,10.833602181857927,2.2490345789225,jump
10/07/2020, 09:36:17,-8.817552,-4.4745784,4.426722,-0.24910668,0.85599893,-2.0465822,10.833602181857927,2.2323277315178145,jump
10/07/2020, 09:36:17,-8.571091,-4.503292,4.65404,-0.24910668,0.85599893,-2.0465822,10.742593837864078,2.2323277315178145,jump
10/07/2020, 09:36:17,-8.571091,-4.503292,4.65404,-0.1526389,0.8669889,-2.0270445,10.742593837864078,2.2099497565873385,jump
10/07/2020, 09:36:17,-8.305488,-4.520042,4.9603214,-0.1526389,0.8669889,-2.0270445,10.677859927613683,2.2099497565873385,jump
10/07/2020, 09:36:17,-8.305488,-4.520042,4.9603214,-0.04151778,0.88042116,-2.0026224,10.677859927613683,2.1880039964510094,jump
10/07/2020, 09:36:18,-8.281559,-4.5296135,5.1852465,1.3004833,-0.019537779,1.4946401,10.769791021898687,1.9813095977526487,jump
10/07/2020, 09:36:18,-8.281559,-4.5296135,5.1852465,1.1576134,-0.08059334,1.3920667,10.769791021898687,1.8122951767165438,jump
10/07/2020, 09:36:18,-8.243274,-4.666004,5.1613183,1.1576134,-0.08059334,1.3920667,10.787138800595544,1.8122951767165438,jump
10/07/2020, 09:36:18,-8.243274,-4.666004,5.1613183,1.2064579,-0.10867889,1.3273479,10.787138800595544,1.7969986181874822,jump
10/07/2020, 09:36:18,-8.106883,-4.725825,5.2331033,1.2064579,-0.10867889,1.3273479,10.744316777333935,1.7969986181874822,jump
10/07/2020, 09:36:18,-8.106883,-4.725825,5.2331033,1.3664234,-0.048844445,1.2687345,10.744316777333935,1.8652575477109947,jump
10/07/2020, 09:36:18,-7.9393854,-4.6875396,5.3144593,1.3664234,-0.048844445,1.2687345,10.64191458101808,1.8652575477109947,jump
10/07/2020, 09:36:18,-7.9393854,-4.6875396,5.3144593,1.4030567,0.028085556,1.1612767,10.64191458101808,1.8215160130568517,jump
10/07/2020, 09:36:18,-7.834101,-4.668397,5.235496,1.4030567,0.028085556,1.1612767,10.515583223125326,1.8215160130568517,jump
10/07/2020, 09:36:18,-7.834101,-4.668397,5.235496,1.2272167,0.057392225,0.99032116,10.515583223125326,1.5780021373267825,jump
10/07/2020, 09:36:18,-7.8053875,-4.6731825,4.9986067,1.2272167,0.057392225,0.99032116,10.380210850385044,1.5780021373267825,jump
10/07/2020, 09:36:18,-7.8053875,-4.6731825,4.9986067,0.94758224,0.039075557,0.79128003,10.380210850385044,1.235136874094202,jump
10/07/2020, 09:36:18,-7.8293157,-4.7401814,4.800002,0.94758224,0.039075557,0.79128003,10.334772567627008,1.235136874094202,jump
10/07/2020, 09:36:18,-7.8293157,-4.7401814,4.800002,0.67283225,0.023201112,0.63619894,10.334772567627008,0.9262778295960862,jump
10/07/2020, 09:36:18,-7.8053875,-4.847859,4.575077,0.67283225,0.023201112,0.63619894,10.264362621440185,0.9262778295960862,jump
10/07/2020, 09:36:18,-7.8053875,-4.847859,4.575077,0.43471557,0.023201112,0.5262989,10.264362621440185,0.6830127591991171,jump
10/07/2020, 09:36:18,-7.82453,-5.032106,4.3357944,0.43471557,0.023201112,0.5262989,10.263745670647818,0.6830127591991171,jump
10/07/2020, 09:36:18,-7.82453,-5.032106,4.3357944,0.21003112,0.0012211112,0.40907225,10.263745670647818,0.4598420045327879,jump
10/07/2020, 09:36:18,-7.8077803,-5.206782,4.1467614,0.21003112,0.0012211112,0.40907225,10.260001964566015,0.4598420045327879,jump
10/07/2020, 09:36:18,-7.8077803,-5.206782,4.1467614,0.05006556,-0.037854444,0.2759711,10.260001964566015,0.28301868348185616,jump
10/07/2020, 09:36:19,-9.042477,-14.19901,6.02752,4.918636,2.4361167,5.9492536,17.880415698855927,8.094520433093725,jump
10/07/2020, 09:36:19,-8.118847,-12.107682,5.4029937,4.918636,2.4361167,5.9492536,15.546831976618366,8.094520433093725,jump
10/07/2020, 09:36:19,-8.118847,-12.107682,5.4029937,5.3325925,2.8549578,6.3265767,15.546831976618366,8.752879506110233,jump
10/07/2020, 09:36:19,-7.1066833,-8.839087,4.7976093,5.3325925,2.8549578,6.3265767,12.31468444105002,8.752879506110233,jump
10/07/2020, 09:36:19,-7.1066833,-8.839087,4.7976093,4.9931235,3.1162758,6.4169393,12.31468444105002,8.707443185592957,jump
10/07/2020, 09:36:19,-6.754938,-5.4699926,4.278367,4.9931235,3.1162758,6.4169393,9.68784976593376,8.707443185592957,jump
10/07/2020, 09:36:19,-6.754938,-5.4699926,4.278367,4.2372556,3.2713568,6.194697,9.68784976593376,8.187208313387387,jump
10/07/2020, 09:36:19,-7.3627152,-2.8019953,3.8404803,4.2372556,3.2713568,6.194697,8.76413386763784,8.187208313387387,jump
10/07/2020, 09:36:19,-7.3627152,-2.8019953,3.8404803,3.3763723,3.3299701,5.8637757,8.76413386763784,7.54138296222709,jump
10/07/2020, 09:36:19,-8.769695,-1.119841,3.694518,3.3763723,3.3299701,5.8637757,9.581808966499308,7.54138296222709,jump
10/07/2020, 09:36:19,-8.769695,-1.119841,3.694518,2.5460167,3.3446236,5.6537447,9.581808966499308,7.045107302447003,jump
10/07/2020, 09:36:19,-10.5690975,-0.40677986,3.8524444,2.5460167,3.3446236,5.6537447,11.25667002936168,7.045107302447003,jump
10/07/2020, 09:36:19,-10.5690975,-0.40677986,3.8524444,1.7742745,3.3336334,5.6390915,11.25667002936168,6.786789707881149,jump
10/07/2020, 09:36:19,-12.390036,-0.3493521,4.35733,1.7742745,3.3336334,5.6390915,13.138544560200481,6.786789707881149,jump
10/07/2020, 09:36:19,-12.390036,-0.3493521,4.35733,1.0171856,3.3006635,5.744107,13.138544560200481,6.702522540937734,jump
10/07/2020, 09:36:19,-14.000405,-0.6628119,5.087141,1.0171856,3.3006635,5.744107,14.910723403005607,6.702522540937734,jump
10/07/2020, 09:36:19,-14.000405,-0.6628119,5.087141,0.30772,3.2200701,5.821037,14.910723403005607,6.659430366948468,jump
10/07/2020, 09:36:19,-15.395421,-1.2346965,5.8600225,0.30772,3.2200701,5.821037,16.519180619068415,6.659430366948468,jump
10/07/2020, 09:36:19,-15.395421,-1.2346965,5.8600225,-0.32359445,3.06621,5.8039412,16.519180619068415,6.572069031720167,jump
10/07/2020, 09:36:19,-16.603796,-2.0554347,6.5252275,-0.32359445,3.06621,5.8039412,17.95799120563673,6.572069031720167,jump
10/07/2020, 09:36:20,-6.317052,-2.993421,4.8263235,0.22590557,-0.40540892,0.8816423,8.494652018400958,0.9963346979310105,jump
10/07/2020, 09:36:20,-6.317052,-2.993421,4.8263235,0.20270446,-0.4041878,1.0086378,8.494652018400958,1.1053538155256972,jump
10/07/2020, 09:36:20,-6.2309103,-3.1537402,4.800002,0.20270446,-0.4041878,1.0086378,8.47409820383019,1.1053538155256972,jump
10/07/2020, 09:36:20,-6.2309103,-3.1537402,4.800002,0.19904111,-0.40052447,1.1454023,8.47409820383019,1.2296274519503863,jump
10/07/2020, 09:36:20,-6.2644095,-3.306881,4.76411,0.19904111,-0.40052447,1.1454023,8.536687499754306,1.2296274519503863,jump
10/07/2020, 09:36:20,-6.2644095,-3.306881,4.76411,0.21247335,-0.3931978,1.2699556,8.536687499754306,1.3463048511309776,jump
10/07/2020, 09:36:20,-6.3888364,-3.4791641,4.7210393,0.21247335,-0.3931978,1.2699556,8.672371380683646,1.3463048511309776,jump
10/07/2020, 09:36:20,-6.3888364,-3.4791641,4.7210393,0.24055889,-0.39564002,1.4030567,8.672371380683646,1.4774869950342207,jump
10/07/2020, 09:36:20,-6.5898337,-3.6634114,4.694718,0.24055889,-0.39564002,1.4030567,8.881827943355301,1.4774869950342207,jump
10/07/2020, 09:36:20,-6.5898337,-3.6634114,4.694718,0.27475002,-0.3931978,1.5276101,8.881827943355301,1.6011510221127312,jump
10/07/2020, 09:36:20,-6.8075805,-3.8069808,4.6492543,0.27475002,-0.3931978,1.5276101,9.080298497307538,1.6011510221127312,jump
10/07/2020, 09:36:20,-6.8075805,-3.8069808,4.6492543,0.30039334,-0.39197668,1.6289623,9.080298497307538,1.702175074985308,jump
10/07/2020, 09:36:20,-6.9942207,-3.9026937,4.5559344,0.30039334,-0.39197668,1.6289623,9.214482117198962,1.702175074985308,jump
10/07/2020, 09:36:20,-6.9942207,-3.9026937,4.5559344,0.31382558,-0.40296668,1.7303145,9.214482117198962,1.8041221915633319,jump
10/07/2020, 09:36:20,-7.1617184,-3.9960139,4.453043,0.31382558,-0.40296668,1.7303145,9.332091337687189,1.8041221915633319,jump
10/07/2020, 09:36:20,-7.1617184,-3.9960139,4.453043,0.30772,-0.41395667,1.8280034,9.332091337687189,1.8993809997767106,jump
10/07/2020, 09:36:20,-7.23111,-4.0869412,4.362116,0.30772,-0.41395667,1.8280034,9.381902616923186,1.8993809997767106,jump
10/07/2020, 09:36:20,-7.23111,-4.0869412,4.362116,0.28085557,-0.42250445,1.9244711,9.381902616923186,1.9902208500084253,jump
10/07/2020, 09:36:20,-7.3028946,-4.1515474,4.3405805,0.28085557,-0.42250445,1.9244711,9.455593808167476,1.9902208500084253,jump
10/07/2020, 09:36:20,-7.3028946,-4.1515474,4.3405805,0.24300112,-0.41273558,2.0111701,9.455593808167476,2.067415190829218,jump
10/07/2020, 09:36:21,5.056034,-0.7896315,3.2039895,0.52996224,0.65940005,3.6230369,6.037594499222133,3.7204925073537902,jump
10/07/2020, 09:36:21,4.790431,-1.1294123,3.199204,0.52996224,0.65940005,3.6230369,5.870153962243691,3.7204925073537902,jump
10/07/2020, 09:36:21,4.790431,-1.1294123,3.199204,0.5580478,0.73755115,3.8367312,5.870153962243691,3.9466321445278703,jump
10/07/2020, 09:36:21,4.4841495,-1.3591232,3.345166,0.5580478,0.73755115,3.8367312,5.757164897005031,3.9466321445278703,jump
10/07/2020, 09:36:21,4.4841495,-1.3591232,3.345166,0.5507211,0.80471224,4.0711846,5.757164897005031,4.186334895351353,jump
10/07/2020, 09:36:21,4.0438704,-1.9238294,3.455236,0.5507211,0.80471224,4.0711846,5.656205745458362,4.186334895351353,jump
10/07/2020, 09:36:21,4.0438704,-1.9238294,3.455236,0.44692668,0.8877478,4.315407,5.656205745458362,4.428382944494406,jump
10/07/2020, 09:36:21,3.4456646,-2.6608188,3.481557,0.44692668,0.8877478,4.315407,5.574387859043093,4.428382944494406,jump
10/07/2020, 09:36:21,3.4456646,-2.6608188,3.481557,0.28940335,0.94758224,4.5010157,5.574387859043093,4.608775152814326,jump
10/07/2020, 09:36:21,2.7421749,-3.3284163,3.4911282,0.28940335,0.94758224,4.5010157,5.5485002044305425,4.608775152814326,jump
10/07/2020, 09:36:21,2.7421749,-3.3284163,3.4911282,0.20392556,0.97811,4.635338,5.5485002044305425,4.741797299827476,jump
10/07/2020, 09:36:21,2.1128623,-3.7040894,3.4911282,0.20392556,0.97811,4.635338,5.51111982840056,4.741797299827476,jump
10/07/2020, 09:36:21,2.1128623,-3.7040894,3.4911282,0.1856089,1.0464922,4.770881,5.51111982840056,4.887832221059273,jump
10/07/2020, 09:36:21,1.5768701,-3.696911,3.4432719,0.1856089,1.0464922,4.770881,5.292427810085667,4.887832221059273,jump
10/07/2020, 09:36:21,1.5768701,-3.696911,3.4432719,0.20881,1.1429601,4.9369526,5.292427810085667,5.071830066866863,jump
10/07/2020, 09:36:21,1.119841,-3.3714871,3.2685957,0.20881,1.1429601,4.9369526,4.827492846163099,5.071830066866863,jump
10/07/2020, 09:36:21,1.119841,-3.3714871,3.2685957,0.24055889,1.1881411,5.1445413,4.827492846163099,5.285437795008841,jump
10/07/2020, 09:36:21,0.485743,-3.2422748,3.1441689,0.24055889,1.1881411,5.1445413,4.54247615917925,5.285437795008841,jump
10/07/2020, 09:36:21,0.485743,-3.2422748,3.1441689,0.15874445,1.1637189,5.31916,4.54247615917925,5.447284140930442,jump
10/07/2020, 09:36:21,-0.31585258,-3.7686956,3.0532417,0.15874445,1.1637189,5.31916,4.860567290537349,5.447284140930442,jump
10/07/2020, 09:36:22,-6.640083,-2.5866413,4.5655055,0.7228978,0.38831335,-0.22712667,8.463170437765465,0.8514429252026208,jump
10/07/2020, 09:36:22,-6.640083,-2.5866413,4.5655055,0.7009178,0.42006224,-0.102573335,8.463170437765465,0.8235650021404295,jump
10/07/2020, 09:36:22,-6.587441,-2.37368,4.642076,0.7009178,0.42006224,-0.102573335,8.401047882356739,0.8235650021404295,jump
10/07/2020, 09:36:22,-6.587441,-2.37368,4.642076,0.63619894,0.42983112,0.026864445,8.401047882356739,0.7682613985165271,jump
10/07/2020, 09:36:22,-6.63769,-2.251646,4.7210393,0.63619894,0.42983112,0.026864445,8.450860983004997,0.7682613985165271,jump
10/07/2020, 09:36:22,-6.63769,-2.251646,4.7210393,0.56293225,0.4359367,0.14164889,8.450860983004997,0.7259462281188527,jump
10/07/2020, 09:36:22,-6.678368,-2.2372892,4.7808595,0.56293225,0.4359367,0.14164889,8.512501428080839,0.7259462281188527,jump
10/07/2020, 09:36:22,-6.678368,-2.2372892,4.7808595,0.48356003,0.4371578,0.26864445,8.512501428080839,0.705058217951116,jump
10/07/2020, 09:36:22,-6.735796,-2.3162522,4.8047876,0.48356003,0.4371578,0.26864445,8.591970439821015,0.705058217951116,jump
10/07/2020, 09:36:22,-6.735796,-2.3162522,4.8047876,0.41395667,0.4273889,0.40174556,8.591970439821015,0.7179281975488865,jump
10/07/2020, 09:36:22,-6.778867,-2.400001,4.8382874,0.41395667,0.4273889,0.40174556,8.667298553026964,0.7179281975488865,jump
10/07/2020, 09:36:22,-6.778867,-2.400001,4.8382874,0.35778558,0.42983112,0.5336256,8.667298553026964,0.7729952111325885,jump
10/07/2020, 09:36:22,-6.762117,-2.498107,4.898108,0.35778558,0.42983112,0.5336256,8.715401625349736,0.7729952111325885,jump
10/07/2020, 09:36:22,-6.762117,-2.498107,4.898108,0.3382478,0.44082114,0.67283225,8.715401625349736,0.8726042023442319,jump
10/07/2020, 09:36:22,-6.719046,-2.5986054,4.955536,0.3382478,0.44082114,0.67283225,8.743893105864672,0.8726042023442319,jump
10/07/2020, 09:36:22,-6.719046,-2.5986054,4.955536,0.34313223,0.46158,0.8083756,8.743893105864672,0.9921022807738636,jump
10/07/2020, 09:36:22,-6.762117,-2.7038896,4.981857,0.34313223,0.46158,0.8083756,8.823612724401546,0.9921022807738636,jump
10/07/2020, 09:36:22,-6.762117,-2.7038896,4.981857,0.37976557,0.4823389,0.92560226,8.823612724401546,1.1106809832308076,jump
10/07/2020, 09:36:22,-6.876972,-2.8809586,4.9770713,0.37976557,0.4823389,0.92560226,8.964591870525192,1.1106809832308076,jump
10/07/2020, 09:36:22,-6.876972,-2.8809586,4.9770713,0.4371578,0.49821335,1.0367234,8.964591870525192,1.2304953679050736,jump
10/07/2020, 09:36:23,4.9196434,-0.6963114,3.1202407,0.51775116,1.4665545,3.8929024,5.867166500321777,4.1920803098168475,jump
10/07/2020, 09:36:23,4.9196434,-0.6963114,3.1202407,0.45425335,1.6851335,4.0467625,5.867166500321777,4.407074690805382,jump
10/07/2020, 09:36:23,4.991428,-0.37806597,3.2757742,0.45425335,1.6851335,4.0467625,5.982305844740132,4.407074690805382,jump
10/07/2020, 09:36:23,4.991428,-0.37806597,3.2757742,0.3724389,1.9049335,4.229929,5.982305844740132,4.654007014698766,jump
10/07/2020, 09:36:23,4.855037,0.023928227,3.385844,0.3724389,1.9049335,4.229929,5.919112976899503,4.654007014698766,jump
10/07/2020, 09:36:23,4.855037,0.023928227,3.385844,0.25887558,2.1039746,4.441181,5.919112976899503,4.921160015760818,jump
10/07/2020, 09:36:23,4.3740797,0.19621146,3.4600215,0.25887558,2.1039746,4.441181,5.580575324007587,4.921160015760818,jump
10/07/2020, 09:36:23,4.3740797,0.19621146,3.4600215,0.19049335,2.2236435,4.6524334,5.580575324007587,5.1600401948061085,jump
10/07/2020, 09:36:23,3.4480574,-0.32542387,3.7830527,0.19049335,2.2236435,4.6524334,5.128985106076682,5.1600401948061085,jump
10/07/2020, 09:36:23,3.4480574,-0.32542387,3.7830527,0.14897557,2.3249958,4.841706,5.128985106076682,5.373073052774507,jump
10/07/2020, 09:36:23,2.2348964,-2.0482562,4.007978,0.14897557,2.3249958,4.841706,5.025336073791318,5.373073052774507,jump
10/07/2020, 09:36:23,2.2348964,-2.0482562,4.007978,-0.0012211112,2.4153578,4.962596,5.025336073791318,5.519176876053611,jump
10/07/2020, 09:36:23,0.9020941,-4.0438704,3.8835511,-0.0012211112,2.4153578,4.962596,5.678787839678481,5.519176876053611,jump
10/07/2020, 09:36:23,0.9020941,-4.0438704,3.8835511,-0.07448778,2.4104733,4.965038,5.678787839678481,5.519740099505824,jump
10/07/2020, 09:36:23,-0.086141616,-5.3240304,3.8165522,-0.07448778,2.4104733,4.965038,6.5512434298767435,5.519740099505824,jump
10/07/2020, 09:36:23,-0.086141616,-5.3240304,3.8165522,0.012211111,2.4202423,4.918636,6.5512434298767435,5.481851924834103,jump
10/07/2020, 09:36:23,-0.46660042,-5.6997037,4.072584,0.012211111,2.4202423,4.918636,7.02070365558411,5.481851924834103,jump
10/07/2020, 09:36:23,-0.46660042,-5.6997037,4.072584,0.13798556,2.51671,4.951606,7.02070365558411,5.556191989247034,jump
10/07/2020, 09:36:23,-0.44745782,-5.4987063,4.4004006,0.13798556,2.51671,4.951606,7.056877192009057,5.556191989247034,jump
10/07/2020, 09:36:23,-0.44745782,-5.4987063,4.4004006,0.17217667,2.6449268,5.084707,7.056877192009057,5.734067106748225,jump
10/07/2020, 09:36:24,-6.7501526,-3.6586258,5.4029937,0.8230289,0.2613178,-0.12821667,9.388420724546124,0.8729851705038184,jump
10/07/2020, 09:36:24,-6.826723,-3.5605202,5.345566,0.8230289,0.2613178,-0.12821667,9.373181201780966,0.8729851705038184,jump
10/07/2020, 09:36:24,-6.826723,-3.5605202,5.345566,0.82913446,0.24422224,-0.03052778,9.373181201780966,0.8648932922781541,jump
10/07/2020, 09:36:24,-6.8315086,-3.385844,5.300102,0.82913446,0.24422224,-0.03052778,9.285716637913325,0.8648932922781541,jump
10/07/2020, 09:36:24,-6.8315086,-3.385844,5.300102,0.78395337,0.22590557,0.070824444,9.285716637913325,0.818921431844719,jump
10/07/2020, 09:36:24,-6.7669024,-3.2303107,5.276174,0.78395337,0.22590557,0.070824444,9.168636136519837,0.818921431844719,jump
10/07/2020, 09:36:24,-6.7669024,-3.2303107,5.276174,0.70580226,0.20514667,0.16973445,9.168636136519837,0.7543552028451561,jump
10/07/2020, 09:36:24,-6.721439,-3.1226335,5.312066,0.70580226,0.20514667,0.16973445,9.11847719787508,0.7543552028451561,jump
10/07/2020, 09:36:24,-6.721439,-3.1226335,5.312066,0.60811335,0.20392556,0.26620224,9.11847719787508,0.6944430241774251,jump
10/07/2020, 09:36:24,-6.704689,-3.062813,5.316852,0.60811335,0.20392556,0.26620224,9.088596968171576,0.6944430241774251,jump
10/07/2020, 09:36:24,-6.704689,-3.062813,5.316852,0.52019334,0.20026223,0.36755446,9.088596968171576,0.6676843188545734,jump
10/07/2020, 09:36:24,-6.6735826,-3.0269206,5.285745,0.52019334,0.20026223,0.36755446,9.035377905097015,0.6676843188545734,jump
10/07/2020, 09:36:24,-6.6735826,-3.0269206,5.285745,0.4359367,0.19171445,0.4689067,9.035377905097015,0.668332792579074,jump
10/07/2020, 09:36:24,-6.6927247,-2.9671001,5.2689953,0.4359367,0.19171445,0.4689067,9.019897923388044,0.668332792579074,jump
10/07/2020, 09:36:24,-6.6927247,-2.9671001,5.2689953,0.35656446,0.18194556,0.5739222,9.019897923388044,0.6997350315649389,jump
10/07/2020, 09:36:24,-6.6711893,-2.9168508,5.2546387,0.35656446,0.18194556,0.5739222,8.97908753591572,0.6997350315649389,jump
10/07/2020, 09:36:24,-6.6711893,-2.9168508,5.2546387,0.2820767,0.17339778,0.6887067,8.97908753591572,0.764166840565308,jump
10/07/2020, 09:36:24,-6.7118673,-2.8953154,5.2402816,0.2820767,0.17339778,0.6887067,8.994029434118753,0.764166840565308,jump
10/07/2020, 09:36:24,-6.7118673,-2.8953154,5.2402816,0.20514667,0.17584,0.78395337,8.994029434118753,0.8292091099643534,jump
10/07/2020, 09:36:24,-6.7405815,-2.8953154,5.194818,0.20514667,0.17584,0.78395337,8.989128139114888,0.8292091099643534,jump
10/07/2020, 09:36:25,-6.7405815,-9.973285,5.6183476,-0.9878789,-1.4860923,-5.8967457,13.284113727211796,6.160842864712865,jump
10/07/2020, 09:36:25,-5.95095,-9.650253,5.4484572,-0.9878789,-1.4860923,-5.8967457,12.578826758466061,6.160842864712865,jump
10/07/2020, 09:36:25,-5.95095,-9.650253,5.4484572,-0.80471224,-1.5080723,-5.9480324,12.578826758466061,6.188774749377502,jump
10/07/2020, 09:36:25,-5.123033,-9.568898,5.3814583,-0.80471224,-1.5080723,-5.9480324,12.114841048262605,6.188774749377502,jump
10/07/2020, 09:36:25,-5.123033,-9.568898,5.3814583,-0.4713489,-1.4323634,-5.954138,12.114841048262605,6.142116218920977,jump
10/07/2020, 09:36:25,-4.3357944,-9.406186,5.4125648,-0.4713489,-1.4323634,-5.954138,11.686372736821166,6.142116218920977,jump
10/07/2020, 09:36:25,-4.3357944,-9.406186,5.4125648,0.03052778,-1.3065889,-5.888198,11.686372736821166,6.031499064430141,jump
10/07/2020, 09:36:25,-3.615555,-9.016156,5.369494,0.03052778,-1.3065889,-5.888198,11.099314225087394,6.031499064430141,jump
10/07/2020, 09:36:25,-3.615555,-9.016156,5.369494,0.56171113,-1.2089001,-5.7868457,11.099314225087394,5.938395558126874,jump
10/07/2020, 09:36:25,-3.0293136,-8.539984,5.2307105,0.56171113,-1.2089001,-5.7868457,10.462714538439249,5.938395558126874,jump
10/07/2020, 09:36:25,-3.0293136,-8.539984,5.2307105,0.9866578,-1.1795933,-5.7172422,10.462714538439249,5.920455460833186,jump
10/07/2020, 09:36:25,-2.6679974,-8.12124,5.0847483,0.9866578,-1.1795933,-5.7172422,9.946225842741875,5.920455460833186,jump
10/07/2020, 09:36:25,-2.6679974,-8.12124,5.0847483,1.2516389,-1.1588345,-5.6622925,9.946225842741875,5.913632838050115,jump
10/07/2020, 09:36:25,-2.4215364,-7.463214,4.85743,1.2516389,-1.1588345,-5.6622925,9.228110684455418,5.913632838050115,jump
10/07/2020, 09:36:25,-2.4215364,-7.463214,4.85743,1.4409112,-1.1258645,-5.5426235,9.228110684455418,5.8364776517613,jump
10/07/2020, 09:36:25,-2.2755744,-6.4008007,4.634897,1.4409112,-1.1258645,-5.5426235,8.223792377870291,5.8364776517613,jump
10/07/2020, 09:36:25,-2.2755744,-6.4008007,4.634897,1.5996556,-1.1270856,-5.3423615,8.223792377870291,5.689467977556256,jump
10/07/2020, 09:36:25,-2.1008983,-5.130212,4.273581,1.5996556,-1.1270856,-5.3423615,6.999738691426531,5.689467977556256,jump
10/07/2020, 09:36:25,-2.1008983,-5.130212,4.273581,1.6851335,-1.1918045,-5.0786014,6.999738691426531,5.4819945803603165,jump
10/07/2020, 09:36:25,-1.861616,-3.926622,4.098905,1.6851335,-1.1918045,-5.0786014,5.973692053663008,5.4819945803603165,jump
10/07/2020, 09:36:26,-8.662018,-3.5581272,5.3766723,-2.1332812,-0.4591378,-2.0734468,10.798121426941732,3.01012919239808,jump
10/07/2020, 09:36:26,-8.662018,-3.5581272,5.3766723,-1.9916323,-0.4163989,-2.0734468,10.798121426941732,2.905024762246175,jump
10/07/2020, 09:36:26,-8.496913,-3.7734814,5.501099,-1.9916323,-0.4163989,-2.0734468,10.802721085097035,2.905024762246175,jump
10/07/2020, 09:36:26,-8.496913,-3.7734814,5.501099,-1.7889278,-0.35656446,-2.052688,10.802721085097035,2.7460750923132258,jump
10/07/2020, 09:36:26,-8.238488,-3.95055,5.6039906,-1.7889278,-0.35656446,-2.052688,10.718406777376194,2.7460750923132258,jump
10/07/2020, 09:36:26,-8.238488,-3.95055,5.6039906,-1.5312734,-0.2955089,-2.0233812,10.718406777376194,2.5546419001913705,jump
10/07/2020, 09:36:26,-7.8723865,-4.065406,5.7260246,-1.5312734,-0.2955089,-2.0233812,10.549376817231774,2.5546419001913705,jump
10/07/2020, 09:36:26,-7.8723865,-4.065406,5.7260246,-1.2235534,-0.20636779,-1.9940746,10.549376817231774,2.3486174821034256,jump
10/07/2020, 09:36:26,-7.554141,-4.1898327,5.9030933,-1.2235534,-0.20636779,-1.9940746,10.462612285059267,2.3486174821034256,jump
10/07/2020, 09:36:26,-7.554141,-4.1898327,5.9030933,-0.8584412,-0.10867889,-1.954999,10.462612285059267,2.137932020368613,jump
10/07/2020, 09:36:26,-7.271788,-4.2855453,6.1160545,-0.8584412,-0.10867889,-1.954999,10.423575417268733,2.137932020368613,jump
10/07/2020, 09:36:26,-7.271788,-4.2855453,6.1160545,-0.43960002,-0.017095556,-1.9098178,10.423575417268733,1.959832779099988,jump
10/07/2020, 09:36:26,-7.068398,-4.342973,6.391229,-0.43960002,-0.017095556,-1.9098178,10.472415043715834,1.959832779099988,jump
10/07/2020, 09:36:26,-7.068398,-4.342973,6.391229,-0.007326667,0.089141116,-1.8438779,10.472415043715834,1.8460459288165776,jump
10/07/2020, 09:36:26,-6.920043,-4.347759,6.623333,-0.007326667,0.089141116,-1.8438779,10.519436346889483,1.8460459288165776,jump
10/07/2020, 09:36:26,-6.920043,-4.347759,6.623333,0.37976557,0.18072446,-1.7510734,10.519436346889483,1.8008723250856538,jump
10/07/2020, 09:36:26,-6.8195443,-4.1635113,6.778867,0.37976557,0.18072446,-1.7510734,10.478265384737757,1.8008723250856538,jump
10/07/2020, 09:36:26,-6.8195443,-4.1635113,6.778867,0.6874856,0.22468445,-1.6423945,10.478265384737757,1.7945972671828223,jump
10/07/2020, 09:36:26,-6.74776,-3.8907297,6.769295,0.6874856,0.22468445,-1.6423945,10.319563829123652,1.7945972671828223,jump
10/07/2020, 09:36:26,-6.74776,-3.8907297,6.769295,0.8816423,0.21247335,-1.5239468,10.319563829123652,1.7733729925240338,jump
10/07/2020, 09:36:27,-9.152547,-3.546163,7.123433,0.10135223,-1.1405178,-2.00018,12.127971238443916,2.3047284554721292,jump
10/07/2020, 09:36:27,-9.260223,-3.603591,7.30768,0.10135223,-1.1405178,-2.00018,12.334496095729106,2.3047284554721292,jump
10/07/2020, 09:36:27,-9.260223,-3.603591,7.30768,0.036633335,-1.2626289,-2.1809046,12.334496095729106,2.520301324126307,jump
10/07/2020, 09:36:27,-9.35833,-3.723232,7.348358,0.036633335,-1.2626289,-2.1809046,12.467524231328952,2.520301324126307,jump
10/07/2020, 09:36:27,-9.35833,-3.723232,7.348358,-0.05617111,-1.4042778,-2.37384,12.467524231328952,2.758671442499763,jump
10/07/2020, 09:36:27,-9.456435,-3.9673,7.2646093,-0.05617111,-1.4042778,-2.37384,12.567345955918109,2.758671442499763,jump
10/07/2020, 09:36:27,-9.456435,-3.9673,7.2646093,-0.14531223,-1.5349368,-2.5411322,12.567345955918109,2.972288596170211,jump
10/07/2020, 09:36:27,-9.556933,-4.141976,7.288538,-0.14531223,-1.5349368,-2.5411322,12.712738734458032,2.972288596170211,jump
10/07/2020, 09:36:27,-9.556933,-4.141976,7.288538,-0.16485001,-1.6130879,-2.6571379,12.712738734458032,3.1128137977871835,jump
10/07/2020, 09:36:27,-9.659825,-4.115655,7.2550383,-0.16485001,-1.6130879,-2.6571379,12.762696467192962,3.1128137977871835,jump
10/07/2020, 09:36:27,-9.659825,-4.115655,7.2550383,-0.12821667,-1.669259,-2.7426157,12.762696467192962,3.2132235901220114,jump
10/07/2020, 09:36:27,-9.707682,-3.940979,7.2550383,-0.12821667,-1.669259,-2.7426157,12.743860436138942,3.2132235901220114,jump
10/07/2020, 09:36:27,-9.707682,-3.940979,7.2550383,-0.102573335,-1.7596211,-2.8500733,12.743860436138942,3.351075332877862,jump
10/07/2020, 09:36:27,-9.777073,-3.723232,7.515856,-0.102573335,-1.7596211,-2.8500733,12.881836034448133,3.351075332877862,jump
10/07/2020, 09:36:27,-9.777073,-3.723232,7.515856,-0.16851334,-1.8866167,-3.0478935,12.881836034448133,3.588505856190884,jump
10/07/2020, 09:36:27,-9.765109,-3.7208393,7.850851,-0.16851334,-1.8866167,-3.0478935,13.07049586512453,3.588505856190884,jump
10/07/2020, 09:36:27,-9.765109,-3.7208393,7.850851,-0.3370267,-2.041698,-3.3018847,13.07049586512453,3.8967370804035766,jump
10/07/2020, 09:36:27,-9.767502,-4.0701914,8.12124,-0.3370267,-2.041698,-3.3018847,13.338856156629744,3.8967370804035766,jump
10/07/2020, 09:36:27,-9.767502,-4.0701914,8.12124,-0.50554,-2.196779,-3.5192423,13.338856156629744,4.179291208803715,jump
10/07/2020, 09:36:27,-9.769895,-4.6061835,8.5016985,-0.50554,-2.196779,-3.5192423,13.745786426302065,4.179291208803715,jump
10/07/2020, 09:36:28,-7.097112,-4.718646,10.236495,0.96223557,0.6777167,0.8523356,13.319926879401882,1.4531596979931742,jump
10/07/2020, 09:36:28,-7.2263246,-4.2927237,10.037891,0.96223557,0.6777167,0.8523356,13.092230769489392,1.4531596979931742,jump
10/07/2020, 09:36:28,-7.2263246,-4.2927237,10.037891,0.9048434,0.6239878,0.6899278,13.092230769489392,1.2977298329001659,jump
10/07/2020, 09:36:28,-7.5349984,-3.8955152,9.602397,0.9048434,0.6239878,0.6899278,12.812387260661627,1.2977298329001659,jump
10/07/2020, 09:36:28,-7.5349984,-3.8955152,9.602397,0.7131289,0.5104245,0.51775116,12.812387260661627,1.01840674019546,jump
10/07/2020, 09:36:28,-7.932207,-3.5820556,8.886943,0.7131289,0.5104245,0.51775116,12.439002578690546,1.01840674019546,jump
10/07/2020, 09:36:28,-7.932207,-3.5820556,8.886943,0.42372558,0.32970002,0.35778558,12.439002578690546,0.6451790381630846,jump
10/07/2020, 09:36:28,-8.298309,-3.3834512,8.13799,0.42372558,0.32970002,0.35778558,12.105228666122294,0.6451790381630846,jump
10/07/2020, 09:36:28,-8.298309,-3.3834512,8.13799,0.098910004,0.10379445,0.21735778,12.105228666122294,0.2603860265265778,jump
10/07/2020, 09:36:28,-8.49452,-3.266203,7.4584284,0.098910004,0.10379445,0.21735778,11.766609907453743,0.2603860265265778,jump
10/07/2020, 09:36:28,-8.49452,-3.266203,7.4584284,-0.22346334,-0.13920668,0.102573335,11.766609907453743,0.28255203632901305,jump
10/07/2020, 09:36:28,-8.516056,-3.2542388,6.9320073,-0.22346334,-0.13920668,0.102573335,11.45277288119172,0.28255203632901305,jump
10/07/2020, 09:36:28,-8.516056,-3.2542388,6.9320073,-0.5140878,-0.34069002,-0.018316668,11.45277288119172,0.6170019854371379,jump
10/07/2020, 09:36:28,-8.398808,-3.2566316,6.5491557,-0.5140878,-0.34069002,-0.018316668,11.13719254820069,0.6170019854371379,jump
10/07/2020, 09:36:28,-8.398808,-3.2566316,6.5491557,-0.75098336,-0.49455002,-0.12699556,11.13719254820069,0.9081209159999746,jump
10/07/2020, 09:36:28,-8.19781,-3.2805598,6.3457656,-0.75098336,-0.49455002,-0.12699556,10.87358749554375,0.9081209159999746,jump
10/07/2020, 09:36:28,-8.19781,-3.2805598,6.3457656,-0.9292656,-0.59590226,-0.24788557,10.87358749554375,1.1314068028610909,jump
10/07/2020, 09:36:28,-7.944171,-3.3810585,6.1734824,-0.9292656,-0.59590226,-0.24788557,10.613825585105849,1.1314068028610909,jump
10/07/2020, 09:36:28,-7.944171,-3.3810585,6.1734824,-1.0428289,-0.6740534,-0.36633334,10.613825585105849,1.2946197167019713,jump
10/07/2020, 09:36:28,-7.752745,-3.4695928,6.056234,-1.0428289,-0.6740534,-0.36633334,10.43173525803889,1.2946197167019713,jump
10/07/2020, 09:36:29,-8.338987,-6.1064835,6.302695,-0.08792,-0.28574002,-2.0465822,12.105858580978184,2.0683027041593554,jump
10/07/2020, 09:36:29,-8.729017,-6.4845495,6.5108705,-0.08792,-0.28574002,-2.0465822,12.67424786318246,2.0683027041593554,jump
10/07/2020, 09:36:29,-8.729017,-6.4845495,6.5108705,-0.08669889,-0.36267,-2.2761512,12.67424786318246,2.3064931010045018,jump
10/07/2020, 09:36:29,-9.025727,-6.8243303,6.5515485,-0.08669889,-0.36267,-2.2761512,13.075091767914596,2.3064931010045018,jump
10/07/2020, 09:36:29,-9.025727,-6.8243303,6.5515485,-0.07448778,-0.4383789,-2.515489,13.075091767914596,2.5544881893149487,jump
10/07/2020, 09:36:29,-9.21476,-7.125826,6.513263,-0.07448778,-0.4383789,-2.515489,13.345852951699458,2.5544881893149487,jump
10/07/2020, 09:36:29,-9.21476,-7.125826,6.513263,-0.045181114,-0.5189722,-2.7707012,13.345852951699458,2.8192478552686264,jump
10/07/2020, 09:36:29,-9.315259,-7.348358,6.5491557,-0.045181114,-0.5189722,-2.7707012,13.552263942464059,2.8192478552686264,jump
10/07/2020, 09:36:29,-9.315259,-7.348358,6.5491557,0.0012211112,-0.57148004,-3.0344613,13.552263942464059,3.087806026921236,jump
10/07/2020, 09:36:29,-9.456435,-7.530213,6.6735826,0.0012211112,-0.57148004,-3.0344613,13.80814892981662,3.087806026921236,jump
10/07/2020, 09:36:29,-9.456435,-7.530213,6.6735826,0.08059334,-0.5873545,-3.2945578,13.80814892981662,3.3474754271521907,jump
10/07/2020, 09:36:29,-9.643075,-7.6163545,6.855437,0.08059334,-0.5873545,-3.2945578,14.071061237110785,3.3474754271521907,jump
10/07/2020, 09:36:29,-9.643075,-7.6163545,6.855437,0.15508112,-0.60933447,-3.5180213,14.071061237110785,3.573767316784216,jump
10/07/2020, 09:36:29,-9.88475,-7.5756764,7.082755,0.15508112,-0.60933447,-3.5180213,14.327057722783058,3.573767316784216,jump
10/07/2020, 09:36:29,-9.88475,-7.5756764,7.082755,0.14164889,-0.6520734,-3.7304945,14.327057722783058,3.7897035917730566,jump
10/07/2020, 09:36:29,-10.116854,-7.4440713,7.288538,0.14164889,-0.6520734,-3.7304945,14.521973431901685,3.7897035917730566,jump
10/07/2020, 09:36:29,-10.116854,-7.4440713,7.288538,-0.024422223,-0.7351089,-3.9405258,14.521973431901685,4.008581407800466,jump
10/07/2020, 09:36:29,-10.325029,-7.2693954,7.4775705,-0.024422223,-0.7351089,-3.9405258,14.675299023159436,4.008581407800466,jump
10/07/2020, 09:36:29,-10.325029,-7.2693954,7.4775705,-0.37488112,-0.86576784,-4.159105,14.675299023159436,4.26476760649928,jump
10/07/2020, 09:36:29,-10.624132,-7.2382884,7.6067834,-0.37488112,-0.86576784,-4.159105,14.937474907685122,4.26476760649928,jump
10/07/2020, 09:36:30,-9.15494,-0.0047856453,7.647461,-0.9817734,-0.17095557,0.31993112,11.92881392743635,1.046642580107498,jump
10/07/2020, 09:36:30,-9.01137,-0.016749758,7.133004,-0.9817734,-0.17095557,0.31993112,11.49281572426431,1.046642580107498,jump
10/07/2020, 09:36:30,-9.01137,-0.016749758,7.133004,-1.5837811,-0.44326335,0.17706113,11.49281572426431,1.654145001941055,jump
10/07/2020, 09:36:30,-8.719446,-0.33020952,6.721439,-1.5837811,-0.44326335,0.17706113,11.014332514309269,1.654145001941055,jump
10/07/2020, 09:36:30,-8.719446,-0.33020952,6.721439,-2.0368135,-0.64108336,0.05006556,11.014332514309269,2.1359081576745576,jump
10/07/2020, 09:36:30,-8.370093,-0.89013004,6.3361945,-2.0368135,-0.64108336,0.05006556,10.535566194708048,2.1359081576745576,jump
10/07/2020, 09:36:30,-8.370093,-0.89013004,6.3361945,-2.35186,-0.78029,-0.09280445,10.535566194708048,2.4796594199780326,jump
10/07/2020, 09:36:30,-8.054241,-1.5601203,6.0370917,-2.35186,-0.78029,-0.09280445,10.185835903917095,2.4796594199780326,jump
10/07/2020, 09:36:30,-8.054241,-1.5601203,6.0370917,-2.536248,-0.8621045,-0.2185789,10.185835903917095,2.6876671339525022,jump
10/07/2020, 09:36:30,-7.8029947,-2.2492533,5.7762737,-2.536248,-0.8621045,-0.2185789,9.965500749423994,2.6876671339525022,jump
10/07/2020, 09:36:30,-7.8029947,-2.2492533,5.7762737,-2.6070724,-0.8975167,-0.30039334,9.965500749423994,2.7735534413852108,jump
10/07/2020, 09:36:30,-7.6307116,-2.9240294,5.505885,-2.6070724,-0.8975167,-0.30039334,9.85355151634236,2.7735534413852108,jump
10/07/2020, 09:36:30,-7.6307116,-2.9240294,5.505885,-2.5863135,-0.9182756,-0.36511225,9.85355151634236,2.7686737741616763,jump
10/07/2020, 09:36:30,-7.520642,-3.5126636,5.2259245,-2.5863135,-0.9182756,-0.36511225,9.808626077166899,2.7686737741616763,jump
10/07/2020, 09:36:30,-7.520642,-3.5126636,5.2259245,-2.5106046,-0.9268234,-0.44570556,9.808626077166899,2.713077695143435,jump
10/07/2020, 09:36:30,-7.4679995,-4.022335,5.0081778,-2.5106046,-0.9268234,-0.44570556,9.850484233386721,2.713077695143435,jump
10/07/2020, 09:36:30,-7.4679995,-4.022335,5.0081778,-2.4031467,-0.9292656,-0.5519422,9.850484233386721,2.635012160496749,jump
10/07/2020, 09:36:30,-7.3986077,-4.4889355,4.800002,-2.4031467,-0.9292656,-0.5519422,9.895956656931615,2.635012160496749,jump
10/07/2020, 09:36:30,-7.3986077,-4.4889355,4.800002,-2.2663822,-0.9402556,-0.6655056,9.895956656931615,2.542334872360309,jump
10/07/2020, 09:36:30,-7.3579297,-4.922036,4.651647,-2.2663822,-0.9402556,-0.6655056,10.000169513238204,2.542334872360309,jump
10/07/2020, 09:36:31,-8.154739,-5.5633125,6.259624,0.5971234,-0.32359445,-1.0025322,11.689016782520058,1.2109255157479075,jump
10/07/2020, 09:36:31,-8.166703,-5.1469617,6.175875,0.5971234,-0.32359445,-1.0025322,11.45982942736361,1.2109255157479075,jump
10/07/2020, 09:36:31,-8.166703,-5.1469617,6.175875,0.53118336,-0.4481478,-1.1722667,11.45982942736361,1.3627917980235946,jump
10/07/2020, 09:36:31,-8.140383,-4.7784667,6.2691956,0.53118336,-0.4481478,-1.1722667,11.331477773599977,1.3627917980235946,jump
10/07/2020, 09:36:31,-8.140383,-4.7784667,6.2691956,0.3858711,-0.57514334,-1.3688656,11.331477773599977,1.5341054167468615,jump
10/07/2020, 09:36:31,-8.118847,-4.5655055,6.4414787,0.3858711,-0.57514334,-1.3688656,11.324847178173343,1.5341054167468615,jump
10/07/2020, 09:36:31,-8.118847,-4.5655055,6.4414787,0.17828223,-0.6887067,-1.581339,11.324847178173343,1.7339938019617354,jump
10/07/2020, 09:36:31,-8.190632,-4.6037908,6.582655,0.17828223,-0.6887067,-1.581339,11.472257230567823,1.7339938019617354,jump
10/07/2020, 09:36:31,-8.190632,-4.6037908,6.582655,-0.042738892,-0.81570226,-1.7828223,11.472257230567823,1.9610333931175317,jump
10/07/2020, 09:36:31,-8.283952,-4.87418,6.63769,-0.042738892,-0.81570226,-1.7828223,11.680771177194668,1.9610333931175317,jump
10/07/2020, 09:36:31,-8.283952,-4.87418,6.63769,-0.21491556,-0.93537116,-1.9830846,11.680771177194668,2.2031187610226293,jump
10/07/2020, 09:36:31,-8.427522,-5.2666025,6.640083,-0.21491556,-0.93537116,-1.9830846,11.952025946806843,2.2031187610226293,jump
10/07/2020, 09:36:31,-8.427522,-5.2666025,6.640083,-0.2869611,-1.02207,-2.162588,11.952025946806843,2.4090994601276066,jump
10/07/2020, 09:36:31,-8.571091,-5.680561,6.63769,-0.2869611,-1.02207,-2.162588,12.238925574075536,2.4090994601276066,jump
10/07/2020, 09:36:31,-8.571091,-5.680561,6.63769,-0.26986557,-1.053819,-2.3237746,12.238925574075536,2.5657922887062354,jump
10/07/2020, 09:36:31,-8.700303,-5.9318075,6.6089764,-0.26986557,-1.053819,-2.3237746,12.43222356041617,2.5657922887062354,jump
10/07/2020, 09:36:31,-8.700303,-5.9318075,6.6089764,-0.22102112,-1.0623667,-2.459318,12.43222356041617,2.688069573931533,jump
10/07/2020, 09:36:31,-8.76491,-5.910272,6.5611196,-0.22102112,-1.0623667,-2.459318,12.441995386920302,2.688069573931533,jump
10/07/2020, 09:36:31,-8.76491,-5.910272,6.5611196,-0.19537778,-1.0892311,-2.5863135,12.441995386920302,2.8131147129425393,jump
10/07/2020, 09:36:31,-8.736196,-5.6997037,6.532406,-0.19537778,-1.0892311,-2.5863135,12.307723646615937,2.8131147129425393,jump
10/07/2020, 09:36:32,-0.25842485,-3.129812,3.7974095,2.5618913,3.1236024,5.061506,4.927760723046072,6.476034274356179,jump
10/07/2020, 09:36:32,-0.25842485,-3.129812,3.7974095,2.4019256,2.9746268,5.120119,4.927760723046072,6.390091582847756,jump
10/07/2020, 09:36:32,-1.5074782,-2.2372892,4.2329035,2.4019256,2.9746268,5.120119,5.019504500642211,6.390091582847756,jump
10/07/2020, 09:36:32,-1.5074782,-2.2372892,4.2329035,2.2358546,2.4458857,4.7745447,5.019504500642211,5.811856829321022,jump
10/07/2020, 09:36:32,-3.5653057,-3.9888353,4.95075,2.2358546,2.4458857,4.7745447,7.2891794084541095,5.811856829321022,jump
10/07/2020, 09:36:32,-3.5653057,-3.9888353,4.95075,1.9024912,2.0563512,4.1139235,7.2891794084541095,4.97718996815659,jump
10/07/2020, 09:36:32,-5.7690954,-7.865208,6.1160545,1.9024912,2.0563512,4.1139235,11.513039749568948,4.97718996815659,jump
10/07/2020, 09:36:32,-5.7690954,-7.865208,6.1160545,1.9134812,2.1210701,3.6486802,11.513039749568948,4.633920184997954,jump
10/07/2020, 09:36:32,-7.3842506,-11.184053,7.245467,1.9134812,2.1210701,3.6486802,15.235058358747583,4.633920184997954,jump
10/07/2020, 09:36:32,-7.3842506,-11.184053,7.245467,2.7108667,2.6070724,3.757359,15.235058358747583,5.316330626396139,jump
10/07/2020, 09:36:32,-7.520642,-12.5551405,7.8293157,2.7108667,2.6070724,3.757359,16.59788509835409,5.316330626396139,jump
10/07/2020, 09:36:32,-7.520642,-12.5551405,7.8293157,3.580298,3.2322812,4.195738,16.59788509835409,6.392995480063001,jump
10/07/2020, 09:36:32,-6.3601227,-11.849257,7.9106717,3.580298,3.2322812,4.195738,15.602396931326284,6.392995480063001,jump
10/07/2020, 09:36:32,-6.3601227,-11.849257,7.9106717,3.823299,3.713399,4.4778147,15.602396931326284,6.961161585069159,jump
10/07/2020, 09:36:32,-4.9579287,-9.5665045,7.496713,3.823299,3.713399,4.4778147,13.126300801627293,6.961161585069159,jump
10/07/2020, 09:36:32,-4.9579287,-9.5665045,7.496713,3.4301012,4.0418777,4.416759,13.126300801627293,6.900009409356872,jump
10/07/2020, 09:36:32,-4.1587257,-6.800402,6.745367,3.4301012,4.0418777,4.416759,10.442243341743506,6.900009409356872,jump
10/07/2020, 09:36:32,-4.1587257,-6.800402,6.745367,2.578987,4.1945167,4.1322403,10.442243341743506,6.428106502178407,jump
10/07/2020, 09:36:32,-4.35733,-4.4602213,5.8624153,2.578987,4.1945167,4.1322403,8.558493480363618,6.428106502178407,jump
10/07/2020, 09:36:32,-4.35733,-4.4602213,5.8624153,1.5520322,4.192075,3.889239,8.558493480363618,5.92524054705519,jump
10/07/2020, 09:36:33,-6.1734824,-0.82313097,5.395815,-1.1490656,-0.39808223,0.43105224,8.240403396674592,1.2902043541355956,jump
10/07/2020, 09:36:33,-6.283552,-1.1844472,5.211568,-1.1490656,-0.39808223,0.43105224,8.249023137439165,1.2902043541355956,jump
10/07/2020, 09:36:33,-6.283552,-1.1844472,5.211568,-1.3102523,-0.46768558,0.51164556,8.249023137439165,1.4823198336631656,jump
10/07/2020, 09:36:33,-6.465407,-1.591227,5.0512486,-1.3102523,-0.46768558,0.51164556,8.357547593114468,1.4823198336631656,jump
10/07/2020, 09:36:33,-6.465407,-1.591227,5.0512486,-1.3017045,-0.5092034,0.6618422,8.357547593114468,1.54653091879049,jump
10/07/2020, 09:36:33,-6.573084,-2.0458634,5.0105705,-1.3017045,-0.5092034,0.6618422,8.514505603330873,1.54653091879049,jump
10/07/2020, 09:36:33,-6.573084,-2.0458634,5.0105705,-1.1624979,-0.48966557,0.82791334,8.514505603330873,1.5088453167600024,jump
10/07/2020, 09:36:33,-6.6161547,-2.4622145,5.096712,-1.1624979,-0.48966557,0.82791334,8.70703606743526,1.5088453167600024,jump
10/07/2020, 09:36:33,-6.6161547,-2.4622145,5.096712,-1.0074167,-0.4261678,0.97566783,8.70703606743526,1.4657541277135895,jump
10/07/2020, 09:36:33,-6.6185474,-2.7948167,5.0440702,-1.0074167,-0.4261678,0.97566783,8.778315066252382,1.4657541277135895,jump
10/07/2020, 09:36:33,-6.6185474,-2.7948167,5.0440702,-0.8645467,-0.36267,1.0855678,8.778315066252382,1.434373756885366,jump
10/07/2020, 09:36:33,-6.6329045,-3.0197423,5.0512486,-0.8645467,-0.36267,1.0855678,8.867320772115338,1.434373756885366,jump
10/07/2020, 09:36:33,-6.6329045,-3.0197423,5.0512486,-0.7351089,-0.32970002,1.1612767,8.867320772115338,1.4133827461773123,jump
10/07/2020, 09:36:33,-6.7764735,-3.2303107,5.032106,-0.7351089,-0.32970002,1.1612767,9.037565518084447,1.4133827461773123,jump
10/07/2020, 09:36:33,-6.7764735,-3.2303107,5.032106,-0.66062117,-0.32481557,1.2357645,9.037565518084447,1.4384155827482652,jump
10/07/2020, 09:36:33,-6.9702926,-3.4672,5.003392,-0.66062117,-0.32481557,1.2357645,9.254209221323558,1.4384155827482652,jump
10/07/2020, 09:36:33,-6.9702926,-3.4672,5.003392,-0.6325356,-0.32359445,1.3175789,9.254209221323558,1.496939816225202,jump
10/07/2020, 09:36:33,-7.133004,-3.6227336,4.9292145,-0.6325356,-0.32359445,1.3175789,9.396866648252093,1.496939816225202,jump
10/07/2020, 09:36:33,-7.133004,-3.6227336,4.9292145,-0.6203245,-0.3370267,1.4018356,9.396866648252093,1.5695643988641446,jump
10/07/2020, 09:36:33,-7.281359,-3.7710886,4.855037,-0.6203245,-0.3370267,1.4018356,9.529464166504923,1.5695643988641446,jump
10/07/2020, 09:36:34,4.599005,1.1581261,1.5026926,-0.81936556,-0.37732336,-0.6020078,4.974956293846693,1.084502761107899,jump
10/07/2020, 09:36:34,4.8047876,1.253839,1.2514462,-0.81936556,-0.37732336,-0.6020078,5.120958329501965,1.084502761107899,jump
10/07/2020, 09:36:34,4.8047876,1.253839,1.2514462,-0.87920004,-0.32237336,-0.21980001,5.120958329501965,0.9618884242168672,jump
10/07/2020, 09:36:34,4.979464,1.1940185,1.1413764,-0.87920004,-0.32237336,-0.21980001,5.246282725542021,0.9618884242168672,jump
10/07/2020, 09:36:34,4.979464,1.1940185,1.1413764,-0.8767578,-0.26498112,0.16729222,5.246282725542021,0.9310778286152439,jump
10/07/2020, 09:36:34,5.1613183,1.0743774,1.1581261,-0.8767578,-0.26498112,0.16729222,5.397661489165778,0.9310778286152439,jump
10/07/2020, 09:36:34,5.1613183,1.0743774,1.1581261,-0.7668578,-0.20636779,0.5568267,5.397661489165778,0.9699043976637274,jump
10/07/2020, 09:36:34,5.359923,0.8781659,1.3280165,-0.7668578,-0.20636779,0.5568267,5.591384137053362,0.9699043976637274,jump
10/07/2020, 09:36:34,5.359923,0.8781659,1.3280165,-0.56293225,-0.11478445,0.9170545,5.591384137053362,1.082153917000396,jump
10/07/2020, 09:36:34,5.5369916,0.6125626,1.6103697,-0.56293225,-0.11478445,0.9170545,5.798861904316892,1.082153917000396,jump
10/07/2020, 09:36:34,5.5369916,0.6125626,1.6103697,-0.29306668,0.0036633336,1.2699556,5.798861904316892,1.303337567263445,jump
10/07/2020, 09:36:34,5.6350975,0.36370903,1.875973,-0.29306668,0.0036633336,1.2699556,5.950284260534029,1.303337567263445,jump
10/07/2020, 09:36:34,5.6350975,0.36370903,1.875973,0.0061055557,0.12211112,1.6057612,5.950284260534029,1.6104090597105276,jump
10/07/2020, 09:36:34,5.5968122,0.069391854,2.1678972,0.0061055557,0.12211112,1.6057612,6.002407929075524,1.6104090597105276,jump
10/07/2020, 09:36:34,5.5968122,0.069391854,2.1678972,0.34191114,0.23933779,1.9171445,6.002407929075524,1.9620471394997037,jump
10/07/2020, 09:36:34,5.4460645,-0.20338993,2.5435705,0.34191114,0.23933779,1.9171445,6.014211226802789,1.9620471394997037,jump
