DATE,TIME,ax,ay,az,gx,gy,gz,ma,mg,label
10/07/2020, 09:35:36,1.5002998,-0.7968099,9.600004,-0.07448778,0.026864445,-0.06716111,9.749147969224193,0.10383035836134304,jump
10/07/2020, 09:35:36,1.4907285,-0.86141616,9.60479,-0.07448778,0.026864445,-0.06716111,9.757883740237208,0.10383035836134304,jump
10/07/2020, 09:35:36,1.4907285,-0.86141616,9.60479,-0.12577444,0.025643334,-0.06105556,9.757883740237208,0.14214278906644814,jump
10/07/2020, 09:35:36,1.4691931,-1.0313065,9.619147,-0.12577444,0.025643334,-0.06105556,9.785198836428703,0.14214278906644814,jump
10/07/2020, 09:35:36,1.4691931,-1.0313065,9.619147,-0.117226675,0.013432222,-0.04396,9.785198836428703,0.12591663783034449,jump
10/07/2020, 09:35:36,1.3256238,-1.2299109,9.60479,-0.117226675,0.013432222,-0.04396,9.773532875107094,0.12591663783034449,jump
10/07/2020, 09:35:36,1.3256238,-1.2299109,9.60479,-0.059834447,-0.008547778,-0.036633335,9.773532875107094,0.07067691821857847,jump
10/07/2020, 09:35:36,1.1964114,-1.3136597,9.631111,-0.059834447,-0.008547778,-0.036633335,9.793640986894415,0.07067691821857847,jump
10/07/2020, 09:35:36,1.1964114,-1.3136597,9.631111,-0.0036633336,-0.034191113,-0.036633335,9.793640986894415,0.05024393949558399,jump
10/07/2020, 09:35:36,1.1581261,-1.3567305,9.678967,-0.0036633336,-0.034191113,-0.036633335,9.841970587417242,0.05024393949558399,jump
10/07/2020, 09:35:36,1.1581261,-1.3567305,9.678967,0.036633335,-0.048844445,-0.034191113,9.841970587417242,0.06997723414705281,jump
10/07/2020, 09:35:36,1.1629118,-1.3208381,9.734002,0.036633335,-0.048844445,-0.034191113,9.891803384804142,0.06997723414705281,jump
10/07/2020, 09:35:36,1.1629118,-1.3208381,9.734002,0.046402223,-0.05006556,-0.02075889,9.891803384804142,0.07134884703745324,jump
10/07/2020, 09:35:36,1.1820544,-1.2705889,9.784252,0.046402223,-0.05006556,-0.02075889,9.93696327642059,0.07134884703745324,jump
10/07/2020, 09:35:36,1.1820544,-1.2705889,9.784252,0.029306669,-0.046402223,-0.014653334,9.93696327642059,0.05680464225354071,jump
10/07/2020, 09:35:36,1.2251252,-1.2131611,9.80818,0.029306669,-0.046402223,-0.014653334,9.95856835573058,0.05680464225354071,jump
10/07/2020, 09:35:36,1.2251252,-1.2131611,9.80818,0.013432222,-0.04029667,-0.0036633336,9.95856835573058,0.042634097026046265,jump
10/07/2020, 09:35:36,1.2394822,-1.2227324,9.789038,0.013432222,-0.04029667,-0.0036633336,9.942668142798286,0.042634097026046265,jump
10/07/2020, 09:35:36,1.2394822,-1.2227324,9.789038,0.0024422223,-0.036633335,0.0061055557,9.942668142798286,0.03721885943024406,jump
10/07/2020, 09:35:36,1.2323036,-1.3160524,9.769895,0.0024422223,-0.036633335,0.0061055557,9.934858163067595,0.03721885943024406,jump
10/07/2020, 09:35:37,7.2263246,-7.798209,3.842873,-0.6935911,0.2869611,-4.5877147,11.304844396698979,4.648713932802339,jump
10/07/2020, 09:35:37,7.2263246,-7.798209,3.842873,-0.3724389,0.17584,-4.59382,11.304844396698979,4.612246037796097,jump
10/07/2020, 09:35:37,7.884351,-7.91785,3.7423747,-0.3724389,0.17584,-4.59382,11.783917182126192,4.612246037796097,jump
10/07/2020, 09:35:37,7.884351,-7.91785,3.7423747,-0.051286668,0.05617111,-4.6390014,11.783917182126192,4.639624901009974,jump
10/07/2020, 09:35:37,8.410771,-7.7120676,3.644269,-0.051286668,0.05617111,-4.6390014,11.97905498089316,4.639624901009974,jump
10/07/2020, 09:35:37,8.410771,-7.7120676,3.644269,0.2625389,-0.045181114,-4.7183733,11.97905498089316,4.725887704724571,jump
10/07/2020, 09:35:37,8.968299,-7.676175,3.7854455,0.2625389,-0.045181114,-4.7183733,12.396920870858752,4.725887704724571,jump
10/07/2020, 09:35:37,8.968299,-7.676175,3.7854455,0.5592689,-0.098910004,-4.7843137,12.396920870858752,4.81790641864411,jump
10/07/2020, 09:35:37,9.635897,-7.874779,4.180261,0.5592689,-0.098910004,-4.7843137,13.1277277497303,4.81790641864411,jump
10/07/2020, 09:35:37,9.635897,-7.874779,4.180261,0.9085067,-0.102573335,-4.7928615,13.1277277497303,4.8792854689981295,jump
10/07/2020, 09:35:37,10.281959,-8.267202,4.87418,0.9085067,-0.102573335,-4.7928615,14.064954194815593,4.8792854689981295,jump
10/07/2020, 09:35:37,10.281959,-8.267202,4.87418,1.39573,-0.024422223,-4.73669,14.064954194815593,4.93810604448469,jump
10/07/2020, 09:35:37,10.920842,-8.851051,5.879165,1.39573,-0.024422223,-4.73669,15.237141677507529,4.93810604448469,jump
10/07/2020, 09:35:37,10.920842,-8.851051,5.879165,1.9904112,0.08059334,-4.6487703,15.237141677507529,5.057597995550081,jump
10/07/2020, 09:35:37,11.339586,-9.377472,6.690332,1.9904112,0.08059334,-4.6487703,16.1642734942098,5.057597995550081,jump
10/07/2020, 09:35:37,11.339586,-9.377472,6.690332,2.614399,0.089141116,-4.51689,16.1642734942098,5.219705332272906,jump
10/07/2020, 09:35:37,11.389835,-9.676575,7.015756,2.614399,0.089141116,-4.51689,16.510156922761045,5.219705332272906,jump
10/07/2020, 09:35:37,11.389835,-9.676575,7.015756,3.162678,-0.008547778,-4.349598,16.510156922761045,5.377881309372868,jump
10/07/2020, 09:35:37,11.222338,-9.734002,6.9559355,3.162678,-0.008547778,-4.349598,16.40355752523434,5.377881309372868,jump
10/07/2020, 09:35:37,11.222338,-9.734002,6.9559355,3.5558758,-0.16729222,-4.1688733,16.40355752523434,5.481947091428314,jump
10/07/2020, 09:35:38,9.698111,-4.328616,5.65424,1.2186689,-0.78761667,-1.3896245,12.031654001049057,2.0091167671999863,jump
10/07/2020, 09:35:38,9.698111,-4.328616,5.65424,1.5581379,-0.81448114,-1.2162267,12.031654001049057,2.1378448494252886,jump
10/07/2020, 09:35:38,9.410972,-4.759324,6.3888364,1.5581379,-0.81448114,-1.2162267,12.330238570946964,2.1378448494252886,jump
10/07/2020, 09:35:38,9.410972,-4.759324,6.3888364,2.0307078,-0.8584412,-1.01108,12.330238570946964,2.4254851855493413,jump
10/07/2020, 09:35:38,9.140582,-5.1828537,7.1138616,2.0307078,-0.8584412,-1.01108,12.689335664852914,2.4254851855493413,jump
10/07/2020, 09:35:38,9.140582,-5.1828537,7.1138616,2.6400423,-0.89019006,-0.7448778,12.689335664852914,2.8839390914956615,jump
10/07/2020, 09:35:38,8.941978,-5.556134,7.733603,2.6400423,-0.89019006,-0.7448778,13.06285656234062,2.8839390914956615,jump
10/07/2020, 09:35:38,8.941978,-5.556134,7.733603,3.3666034,-0.90362227,-0.45303226,13.06285656234062,3.5150803278825866,jump
10/07/2020, 09:35:38,8.889337,-5.7547383,8.193025,3.3666034,-0.90362227,-0.45303226,13.388912236268524,3.5150803278825866,jump
10/07/2020, 09:35:38,8.889337,-5.7547383,8.193025,4.1371245,-0.90240115,-0.18927222,13.388912236268524,4.238626104734793,jump
10/07/2020, 09:35:38,8.800801,-5.582455,8.305488,4.1371245,-0.90240115,-0.18927222,13.32662873841503,4.238626104734793,jump
10/07/2020, 09:35:38,8.800801,-5.582455,8.305488,4.82461,-0.9280445,0.0,13.32662873841503,4.913057143320836,jump
10/07/2020, 09:35:38,8.662018,-5.022535,8.032705,4.82461,-0.9280445,0.0,12.83669597655095,4.913057143320836,jump
10/07/2020, 09:35:38,8.662018,-5.022535,8.032705,5.287411,-0.9976478,0.10135223,12.83669597655095,5.381662455555956,jump
10/07/2020, 09:35:38,8.499306,-4.132405,7.4416785,5.287411,-0.9976478,0.10135223,12.028863060552299,5.381662455555956,jump
10/07/2020, 09:35:38,8.499306,-4.132405,7.4416785,5.4241757,-1.05504,0.14042778,12.028863060552299,5.527613573550843,jump
10/07/2020, 09:35:38,8.394022,-3.07717,6.8219376,5.4241757,-1.05504,0.14042778,11.245773062978687,5.527613573550843,jump
10/07/2020, 09:35:38,8.394022,-3.07717,6.8219376,5.1885014,-1.0184067,0.13554333,11.245773062978687,5.289241027119213,jump
10/07/2020, 09:35:38,8.463413,-1.9334008,6.439086,5.1885014,-1.0184067,0.13554333,10.80875710301768,5.289241027119213,jump
10/07/2020, 09:35:38,8.463413,-1.9334008,6.439086,4.632896,-0.84623003,0.08303556,10.80875710301768,4.710278656180032,jump
10/07/2020, 09:35:39,13.421342,-2.8594232,5.1349974,-3.3043268,0.81936556,1.4079412,14.651857120170222,3.684051279288292,jump
10/07/2020, 09:35:39,13.3687,-3.1130621,4.910072,-3.3043268,0.81936556,1.4079412,14.578137806420857,3.684051279288292,jump
10/07/2020, 09:35:39,13.3687,-3.1130621,4.910072,-3.537559,0.8975167,1.4519012,14.578137806420857,3.9278336613400495,jump
10/07/2020, 09:35:39,13.093526,-3.2709885,4.6372905,-3.537559,0.8975167,1.4519012,14.270397634627471,3.9278336613400495,jump
10/07/2020, 09:35:39,13.093526,-3.2709885,4.6372905,-3.7500324,0.95735115,1.4775445,14.270397634627471,4.142752984986629,jump
10/07/2020, 09:35:39,12.60539,-3.3284163,4.3669014,-3.7500324,0.95735115,1.4775445,13.749328348764626,4.142752984986629,jump
10/07/2020, 09:35:39,12.60539,-3.3284163,4.3669014,-3.9173245,0.99032116,1.4885345,13.749328348764626,4.306030931645026,jump
10/07/2020, 09:35:39,12.023933,-3.4767714,3.8763726,-3.9173245,0.99032116,1.4885345,13.103021714948344,4.306030931645026,jump
10/07/2020, 09:35:39,12.023933,-3.4767714,3.8763726,-4.1236925,0.9927634,1.4970822,13.103021714948344,4.497963352444297,jump
10/07/2020, 09:35:39,11.497513,-3.8141594,3.455236,-4.1236925,0.9927634,1.4970822,12.596795957290249,4.497963352444297,jump
10/07/2020, 09:35:39,11.497513,-3.8141594,3.455236,-4.33006,0.9964267,1.5276101,12.596795957290249,4.6984974541176285,jump
10/07/2020, 09:35:39,11.176874,-4.4674,3.1489546,-4.33006,0.9964267,1.5276101,12.441707868616335,4.6984974541176285,jump
10/07/2020, 09:35:39,11.176874,-4.4674,3.1489546,-4.4668245,1.0391656,1.57157,12.441707868616335,4.84790872027239,jump
10/07/2020, 09:35:39,11.045269,-5.2809596,3.0173492,-4.4668245,1.0391656,1.57157,12.609159304832458,4.84790872027239,jump
10/07/2020, 09:35:39,11.045269,-5.2809596,3.0173492,-4.402106,1.1160955,1.5935501,12.609159304832458,4.812858473366599,jump
10/07/2020, 09:35:39,10.861022,-5.9581285,2.9455647,-4.402106,1.1160955,1.5935501,12.733320270838393,4.812858473366599,jump
10/07/2020, 09:35:39,10.861022,-5.9581285,2.9455647,-4.14323,1.2040156,1.6118667,12.733320270838393,4.605879113425054,jump
10/07/2020, 09:35:39,10.487741,-6.6089764,2.7565317,-4.14323,1.2040156,1.6118667,12.699202999727873,4.605879113425054,jump
10/07/2020, 09:35:39,10.487741,-6.6089764,2.7565317,-3.7952135,1.2333223,1.6863545,12.699202999727873,4.3322650632157975,jump
10/07/2020, 09:35:39,10.049855,-7.2023964,2.4646072,-3.7952135,1.2333223,1.6863545,12.607473689430858,4.3322650632157975,jump
10/07/2020, 09:35:40,12.550355,-6.977471,2.199004,8.42933,-1.8853956,-2.3640711,14.526944884430796,8.955286212443387,jump
10/07/2020, 09:35:40,13.430914,-4.412365,1.9884356,8.42933,-1.8853956,-2.3640711,14.276284167876154,8.955286212443387,jump
10/07/2020, 09:35:40,13.430914,-4.412365,1.9884356,6.199581,-1.9256923,-2.0636778,14.276284167876154,6.811891316763895,jump
10/07/2020, 09:35:40,14.842679,-1.7922242,2.524428,6.199581,-1.9256923,-2.0636778,15.162121363738542,6.811891316763895,jump
10/07/2020, 09:35:40,14.842679,-1.7922242,2.524428,3.558318,-1.3603178,-1.8231189,15.162121363738542,4.223251529196747,jump
10/07/2020, 09:35:40,16.14916,0.023928227,3.4528432,3.558318,-1.3603178,-1.8231189,16.51417814468016,4.223251529196747,jump
10/07/2020, 09:35:40,16.14916,0.023928227,3.4528432,1.0049745,-0.5006556,-1.4897556,16.51417814468016,1.865476232562875,jump
10/07/2020, 09:35:40,16.855043,0.09571291,4.766503,1.0049745,-0.5006556,-1.4897556,17.516312364300447,1.865476232562875,jump
10/07/2020, 09:35:40,16.855043,0.09571291,4.766503,-0.9463611,0.2625389,-0.97933114,17.516312364300447,1.3869446746936844,jump
10/07/2020, 09:35:40,16.826328,-1.4237294,6.2524457,-0.9463611,0.2625389,-0.97933114,18.006815542161796,1.3869446746936844,jump
10/07/2020, 09:35:40,16.826328,-1.4237294,6.2524457,-1.9330189,0.67161113,-0.40663,18.006815542161796,2.08637763378044,jump
10/07/2020, 09:35:40,16.218552,-3.6011982,7.281359,-1.9330189,0.67161113,-0.40663,18.13913551821061,2.08637763378044,jump
10/07/2020, 09:35:40,16.218552,-3.6011982,7.281359,-1.8731846,0.7485411,0.085477784,18.13913551821061,2.019019726827446,jump
10/07/2020, 09:35:40,15.309279,-5.65424,7.5349984,-1.8731846,0.7485411,0.085477784,17.975557561147532,2.019019726827446,jump
10/07/2020, 09:35:40,15.309279,-5.65424,7.5349984,-0.95735115,0.64963114,0.4689067,17.975557561147532,1.2483650652585163,jump
10/07/2020, 09:35:40,14.333008,-7.223932,7.1712894,-0.95735115,0.64963114,0.4689067,17.579752436830713,1.2483650652585163,jump
10/07/2020, 09:35:40,14.333008,-7.223932,7.1712894,0.4371578,0.45791668,0.7851745,17.579752436830713,1.008609742117638,jump
10/07/2020, 09:35:40,13.418949,-7.9274216,6.4414787,0.4371578,0.45791668,0.7851745,16.864307179465676,1.008609742117638,jump
10/07/2020, 09:35:40,13.418949,-7.9274216,6.4414787,1.9134812,0.21735778,1.0281756,16.864307179465676,2.183071206801731,jump
10/07/2020, 09:35:40,12.662817,-7.5469627,5.5298133,1.9134812,0.21735778,1.0281756,15.74428200957799,2.183071206801731,jump
10/07/2020, 09:35:41,2.969493,-5.1086764,2.6608188,0.49577114,2.5252578,2.7768068,6.4804644761381605,3.7859440419569044,jump
10/07/2020, 09:35:41,2.969493,-5.1086764,2.6608188,0.5006556,2.3750613,2.7633746,6.4804644761381605,3.6780172745980266,jump
10/07/2020, 09:35:41,2.3234308,-4.409972,1.969293,0.5006556,2.3750613,2.7633746,5.359505593893291,3.6780172745980266,jump
10/07/2020, 09:35:41,2.3234308,-4.409972,1.969293,0.40907225,2.273709,2.7047613,5.359505593893291,3.557081176977136,jump
10/07/2020, 09:35:41,1.7970098,-3.7088752,1.5433706,0.40907225,2.273709,2.7047613,4.400794500101774,3.557081176977136,jump
10/07/2020, 09:35:41,1.7970098,-3.7088752,1.5433706,0.25643334,2.1980002,2.6095145,4.400794500101774,3.4214804833880272,jump
10/07/2020, 09:35:41,1.2490535,-3.089134,1.2346965,0.25643334,2.1980002,2.6095145,3.5534995132093865,3.4214804833880272,jump
10/07/2020, 09:35:41,1.2490535,-3.089134,1.2346965,0.15019667,2.096648,2.49473,3.5534995132093865,3.2622338258687895,jump
10/07/2020, 09:35:41,0.6891329,-2.7469604,1.0624132,0.15019667,2.096648,2.49473,3.024800403660562,3.2622338258687895,jump
10/07/2020, 09:35:41,0.6891329,-2.7469604,1.0624132,0.098910004,1.9843056,2.37384,3.024800403660562,3.0955401424058535,jump
10/07/2020, 09:35:41,0.14596218,-2.7493532,1.0504491,0.098910004,1.9843056,2.37384,2.9468103423913012,3.0955401424058535,jump
10/07/2020, 09:35:41,0.14596218,-2.7493532,1.0504491,0.123332225,1.8328879,2.2553923,2.9468103423913012,2.9088628934752627,jump
10/07/2020, 09:35:41,-0.37567315,-2.955136,1.2753744,0.123332225,1.8328879,2.2553923,3.2404535703209434,2.9088628934752627,jump
10/07/2020, 09:35:41,-0.37567315,-2.955136,1.2753744,0.23689556,1.6448368,2.141829,3.2404535703209434,2.7109111153707794,jump
10/07/2020, 09:35:41,-0.849452,-3.0675986,1.2107682,0.23689556,1.6448368,2.141829,3.4055380599226286,2.7109111153707794,jump
10/07/2020, 09:35:41,-0.849452,-3.0675986,1.2107682,0.3712178,1.3920667,2.0087278,3.4055380599226286,2.4719708170958317,jump
10/07/2020, 09:35:41,-1.2227324,-2.737389,0.83030945,0.3712178,1.3920667,2.0087278,3.1109142359816726,2.4719708170958317,jump
10/07/2020, 09:35:41,-1.2227324,-2.737389,0.83030945,0.47379112,1.12098,1.84632,3.1109142359816726,2.2113280867370673,jump
10/07/2020, 09:35:41,-1.3878372,-2.1822543,0.6221339,0.47379112,1.12098,1.84632,2.65995799033608,2.2113280867370673,jump
10/07/2020, 09:35:41,-1.3878372,-2.1822543,0.6221339,0.45059,0.89263225,1.67048,2.65995799033608,1.9468762572994769,jump
10/07/2020, 09:35:42,7.4679995,1.8400806,6.005985,0.11478445,0.2613178,0.008547778,9.758522726773867,0.2855442548198101,jump
10/07/2020, 09:35:42,7.6713896,1.7443677,5.682954,0.11478445,0.2613178,0.008547778,9.705101808230603,0.2855442548198101,jump
10/07/2020, 09:35:42,7.6713896,1.7443677,5.682954,-0.13554333,0.3052778,0.0,9.705101808230603,0.33401575799761635,jump
10/07/2020, 09:35:42,7.8723865,1.3304094,5.395815,-0.13554333,0.3052778,0.0,9.636351803721078,0.33401575799761635,jump
10/07/2020, 09:35:42,7.8723865,1.3304094,5.395815,-0.14653334,0.29184556,0.012211111,9.636351803721078,0.32679498461662304,jump
10/07/2020, 09:35:42,8.176275,0.8135597,5.1421757,-0.14653334,0.29184556,0.012211111,9.69305561150738,0.32679498461662304,jump
10/07/2020, 09:35:42,8.176275,0.8135597,5.1421757,0.036633335,0.24055889,0.0061055557,9.69305561150738,0.24340883263083324,jump
10/07/2020, 09:35:42,8.523234,0.4977071,4.8933225,0.036633335,0.24055889,0.0061055557,9.840621993103948,0.24340883263083324,jump
10/07/2020, 09:35:42,8.523234,0.4977071,4.8933225,0.27230778,0.18683001,-0.0048844446,9.840621993103948,0.3302738875666956,jump
10/07/2020, 09:35:42,8.827123,0.43070808,4.6468616,0.27230778,0.18683001,-0.0048844446,9.984834835857544,0.3302738875666956,jump
10/07/2020, 09:35:42,8.827123,0.43070808,4.6468616,0.41029334,0.15386,0.018316668,9.984834835857544,0.4385761349711231,jump
10/07/2020, 09:35:42,9.018549,0.6795616,4.4195433,0.41029334,0.15386,0.018316668,10.066200480495464,0.4385761349711231,jump
10/07/2020, 09:35:42,9.018549,0.6795616,4.4195433,0.39930335,0.15874445,0.05617111,10.066200480495464,0.43335684881827846,jump
10/07/2020, 09:35:42,9.102298,1.174876,4.2257247,0.39930335,0.15874445,0.05617111,10.103905566668855,0.43335684881827846,jump
10/07/2020, 09:35:42,9.102298,1.174876,4.2257247,0.28329778,0.20148334,0.06227667,10.103905566668855,0.35317354085314434,jump
10/07/2020, 09:35:42,9.12144,1.6893328,4.1276193,0.28329778,0.20148334,0.06227667,10.153410891351594,0.35317354085314434,jump
10/07/2020, 09:35:42,9.12144,1.6893328,4.1276193,0.14775445,0.25765446,0.047623336,10.153410891351594,0.3008075435414695,jump
10/07/2020, 09:35:42,9.090333,1.8568304,3.95055,0.14775445,0.25765446,0.047623336,10.08408739978428,0.3008075435414695,jump
10/07/2020, 09:35:42,9.090333,1.8568304,3.95055,0.081814446,0.28085557,0.07326667,10.08408739978428,0.3015650138050165,jump
10/07/2020, 09:35:42,9.0544405,1.6462619,3.818945,0.081814446,0.28085557,0.07326667,9.96380506975825,0.3015650138050165,jump
10/07/2020, 09:35:43,3.290131,-0.5814559,6.745367,-0.5580478,2.9892802,0.4689067,7.527484984530649,3.076863186068242,jump
10/07/2020, 09:35:43,2.5172493,-0.15553348,5.797809,-0.5580478,2.9892802,0.4689067,6.3226043344302925,3.076863186068242,jump
10/07/2020, 09:35:43,2.5172493,-0.15553348,5.797809,-0.61299783,2.911129,0.45303226,6.3226043344302925,3.0092651271621498,jump
10/07/2020, 09:35:43,1.8305093,-0.06460621,5.1182475,-0.61299783,2.911129,0.45303226,5.436119557344574,3.0092651271621498,jump
10/07/2020, 09:35:43,1.8305093,-0.06460621,5.1182475,-0.5690378,2.7865756,0.46646446,5.436119557344574,2.882081961490774,jump
10/07/2020, 09:35:43,1.2873386,-0.39720857,4.7880383,-0.5690378,2.7865756,0.46646446,4.973964784476355,2.882081961490774,jump
10/07/2020, 09:35:43,1.2873386,-0.39720857,4.7880383,-0.43227336,2.6192834,0.54339445,4.973964784476355,2.709757093844133,jump
10/07/2020, 09:35:43,0.95473623,-0.8805587,4.7545385,-0.43227336,2.6192834,0.54339445,4.928746457330935,2.709757093844133,jump
10/07/2020, 09:35:43,0.95473623,-0.8805587,4.7545385,-0.22712667,2.4190211,0.63131446,4.928746457330935,2.510340155029983,jump
10/07/2020, 09:35:43,0.7680961,-1.0432707,4.843073,-0.22712667,2.4190211,0.63131446,5.0133562012558075,2.510340155029983,jump
10/07/2020, 09:35:43,0.7680961,-1.0432707,4.843073,0.017095556,2.2273068,0.6752745,5.0133562012558075,2.3274844078246617,jump
10/07/2020, 09:35:43,0.6197411,-0.8470592,5.0273204,0.017095556,2.2273068,0.6752745,5.135712076626782,2.3274844078246617,jump
10/07/2020, 09:35:43,0.6197411,-0.8470592,5.0273204,0.1856089,2.0563512,0.6740534,5.135712076626782,2.1719527627693727,jump
10/07/2020, 09:35:43,0.37567315,-0.41635114,4.9722853,0.1856089,2.0563512,0.6740534,5.003808489185686,2.1719527627693727,jump
10/07/2020, 09:35:43,0.37567315,-0.41635114,4.9722853,0.2295689,1.900049,0.6581789,5.003808489185686,2.0238793121376437,jump
10/07/2020, 09:35:43,0.09810573,0.12203395,4.95075,0.2295689,1.900049,0.6581789,4.9532253467701635,2.0238793121376437,jump
10/07/2020, 09:35:43,0.09810573,0.12203395,4.95075,0.21003112,1.7779379,0.63619894,4.9532253467701635,1.8999803415472385,jump
10/07/2020, 09:35:43,-0.15314065,0.56470615,5.17089,0.21003112,1.7779379,0.63619894,5.203887679152607,1.8999803415472385,jump
10/07/2020, 09:35:43,-0.15314065,0.56470615,5.17089,0.11844778,1.6546056,0.6203245,5.203887679152607,1.7710313757154623,jump
10/07/2020, 09:35:43,-0.2656033,0.6771688,5.089534,0.11844778,1.6546056,0.6203245,5.141250532832787,1.7710313757154623,jump
10/07/2020, 09:35:44,10.614561,-3.8763726,8.382058,-1.4457957,2.1064167,1.954999,14.06961513368107,3.217038602996657,jump
10/07/2020, 09:35:44,10.578669,-4.15394,8.583055,-1.4457957,2.1064167,1.954999,14.241919593278771,3.217038602996657,jump
10/07/2020, 09:35:44,10.578669,-4.15394,8.583055,-1.4299212,2.152819,2.0893211,14.241919593278771,3.3233366669375175,jump
10/07/2020, 09:35:44,10.4159565,-4.302295,8.508878,-1.4299212,2.152819,2.0893211,14.121008974011124,3.3233366669375175,jump
10/07/2020, 09:35:44,10.4159565,-4.302295,8.508878,-1.3822979,2.1955578,2.1955578,14.121008974011124,3.3987785754138438,jump
10/07/2020, 09:35:44,10.205389,-4.278367,8.640483,-1.3822979,2.1955578,2.1955578,14.039670026279289,3.3987785754138438,jump
10/07/2020, 09:35:44,10.205389,-4.278367,8.640483,-1.3322322,2.2883623,2.27493,14.039670026279289,3.490952748666245,jump
10/07/2020, 09:35:44,9.887143,-4.2424746,8.796016,-1.3322322,2.2883623,2.27493,13.896909103103338,3.490952748666245,jump
10/07/2020, 09:35:44,9.887143,-4.2424746,8.796016,-1.35177,2.3811667,2.3579657,13.896909103103338,3.6134802290830157,jump
10/07/2020, 09:35:44,9.54497,-4.3334017,8.963513,-1.35177,2.3811667,2.3579657,13.792366947291642,3.6134802290830157,jump
10/07/2020, 09:35:44,9.54497,-4.3334017,8.963513,-1.4177101,2.459318,2.4568756,13.792366947291642,3.754248793781026,jump
10/07/2020, 09:35:44,9.233903,-4.6301117,9.111869,-1.4177101,2.459318,2.4568756,13.774216919180429,3.754248793781026,jump
10/07/2020, 09:35:44,9.233903,-4.6301117,9.111869,-1.5190623,2.5289211,2.5655546,13.774216919180429,3.9096115897795394,jump
10/07/2020, 09:35:44,8.896515,-4.996214,9.018549,-1.5190623,2.5289211,2.5655546,13.61779556830882,3.9096115897795394,jump
10/07/2020, 09:35:44,8.896515,-4.996214,9.018549,-1.6338468,2.5509012,2.6546957,13.61779556830882,4.027897908097131,jump
10/07/2020, 09:35:44,8.520842,-5.237889,8.867801,-1.6338468,2.5509012,2.6546957,13.367053162256429,4.027897908097131,jump
10/07/2020, 09:35:44,8.520842,-5.237889,8.867801,-1.724209,2.5655546,2.7157512,13.367053162256429,4.1146411061379995,jump
10/07/2020, 09:35:44,8.207381,-5.410172,8.712267,-1.724209,2.5655546,2.7157512,13.135245060218088,4.1146411061379995,jump
10/07/2020, 09:35:44,8.207381,-5.410172,8.712267,-1.7632846,2.6107357,2.7621534,13.135245060218088,4.189821529231425,jump
10/07/2020, 09:35:44,7.925029,-5.6350975,8.659625,-1.7632846,2.6107357,2.7621534,13.021117902755746,4.189821529231425,jump
10/07/2020, 09:35:45,7.960921,-0.74416786,7.0803623,-2.0942056,1.2211112,-0.14409111,10.679961448724127,2.4284916984255647,jump
10/07/2020, 09:35:45,7.960921,-0.74416786,7.0803623,-2.1467135,1.3578756,-0.17706113,10.679961448724127,2.546282698124566,jump
10/07/2020, 09:35:45,8.073383,-1.4141582,6.991828,-2.1467135,1.3578756,-0.17706113,10.773347677890788,2.546282698124566,jump
10/07/2020, 09:35:45,8.073383,-1.4141582,6.991828,-2.1283967,1.460449,-0.21125223,10.773347677890788,2.5899056838059664,jump
10/07/2020, 09:35:45,8.288737,-2.0267208,6.8602223,-2.1283967,1.460449,-0.21125223,10.94867177227215,2.5899056838059664,jump
10/07/2020, 09:35:45,8.288737,-2.0267208,6.8602223,-2.064899,1.5288311,-0.21125223,10.94867177227215,2.577937132131804,jump
10/07/2020, 09:35:45,8.444271,-2.5292134,6.71426,-2.064899,1.5288311,-0.21125223,11.080790742393303,2.577937132131804,jump
10/07/2020, 09:35:45,8.444271,-2.5292134,6.71426,-1.9830846,1.6033189,-0.16362889,11.080790742393303,2.5553924109895796,jump
10/07/2020, 09:35:45,8.573483,-2.8689942,6.63769,-1.9830846,1.6033189,-0.16362889,11.21582257867193,2.5553924109895796,jump
10/07/2020, 09:35:45,8.573483,-2.8689942,6.63769,-1.8915012,1.6765857,-0.08425667,11.21582257867193,2.5289949496091726,jump
10/07/2020, 09:35:45,8.575876,-3.089134,6.6089764,-1.8915012,1.6765857,-0.08425667,11.259083911650883,2.5289949496091726,jump
10/07/2020, 09:35:45,8.575876,-3.089134,6.6089764,-1.7864857,1.7486312,-0.0036633336,11.259083911650883,2.4998511327780193,jump
10/07/2020, 09:35:45,8.618947,-3.2159536,6.623333,-1.7864857,1.7486312,-0.0036633336,11.335658123906422,2.4998511327780193,jump
10/07/2020, 09:35:45,8.618947,-3.2159536,6.623333,-1.6387311,1.7889278,0.070824444,11.335658123906422,2.4270802299353775,jump
10/07/2020, 09:35:45,8.666803,-3.2925239,6.6185474,-1.6387311,1.7889278,0.070824444,11.391196779327593,2.4270802299353775,jump
10/07/2020, 09:35:45,8.666803,-3.2925239,6.6185474,-1.4824289,1.7889278,0.1526389,11.391196779327593,2.328337765798125,jump
10/07/2020, 09:35:45,8.772088,-3.3379877,6.546763,-1.4824289,1.7889278,0.1526389,11.443417122279415,2.328337765798125,jump
10/07/2020, 09:35:45,8.772088,-3.3379877,6.546763,-1.350549,1.7632846,0.25765446,11.443417122279415,2.235965301169812,jump
10/07/2020, 09:35:45,8.944371,-3.266203,6.4031935,-1.350549,1.7632846,0.25765446,11.474787353321972,2.235965301169812,jump
10/07/2020, 09:35:45,8.944371,-3.266203,6.4031935,-1.2565234,1.7522945,0.3809867,11.474787353321972,2.189643349020862,jump
10/07/2020, 09:35:46,9.657433,-7.2215385,7.1808605,-3.5949512,2.7120879,3.0185869,14.035005533094823,5.421343110303426,jump
10/07/2020, 09:35:46,9.657433,-7.2215385,7.1808605,-3.5241268,2.6437056,3.195648,14.035005533094823,5.442500772923525,jump
10/07/2020, 09:35:46,9.45165,-7.8867435,7.092326,-3.5241268,2.6437056,3.195648,14.2068819794728,5.442500772923525,jump
10/07/2020, 09:35:46,9.45165,-7.8867435,7.092326,-3.260367,2.5557857,3.383699,14.2068819794728,5.348967308644712,jump
10/07/2020, 09:35:46,9.300901,-8.551949,6.9942207,-3.260367,2.5557857,3.383699,14.441665926109007,5.348967308644712,jump
10/07/2020, 09:35:46,9.300901,-8.551949,6.9942207,-2.8378623,2.4800768,3.5632024,14.441665926109007,5.186584064736338,jump
10/07/2020, 09:35:46,9.090333,-9.123833,6.795616,-2.8378623,2.4800768,3.5632024,14.562241442144813,5.186584064736338,jump
10/07/2020, 09:35:46,9.090333,-9.123833,6.795616,-2.3262167,2.404368,3.7036302,14.562241442144813,4.990906326721336,jump
10/07/2020, 09:35:46,8.76491,-9.475577,6.649654,-2.3262167,2.404368,3.7036302,14.51992101110786,4.990906326721336,jump
10/07/2020, 09:35:46,8.76491,-9.475577,6.649654,-1.8365512,2.2859201,3.8074245,14.51992101110786,4.805708359876571,jump
10/07/2020, 09:35:46,8.322237,-9.640682,6.556334,-1.8365512,2.2859201,3.8074245,14.324381256122326,4.805708359876571,jump
10/07/2020, 09:35:46,8.322237,-9.640682,6.556334,-1.4360267,2.1711357,3.9051135,14.324381256122326,4.693177373325086,jump
10/07/2020, 09:35:46,7.946564,-9.729217,6.5443697,-1.4360267,2.1711357,3.9051135,14.164544202320126,4.693177373325086,jump
10/07/2020, 09:35:46,7.946564,-9.729217,6.5443697,-1.1222012,2.108859,4.0076866,14.164544202320126,4.665637586772608,jump
10/07/2020, 09:35:46,7.6953177,-9.724431,6.5347986,-1.1222012,2.108859,4.0076866,14.017348795063288,4.665637586772608,jump
10/07/2020, 09:35:46,7.6953177,-9.724431,6.5347986,-0.89263225,2.0685623,4.0907226,14.017348795063288,4.670091354389805,jump
10/07/2020, 09:35:46,7.5086775,-9.595219,6.458228,-0.89263225,2.0685623,4.0907226,13.789748691631551,4.670091354389805,jump
10/07/2020, 09:35:46,7.5086775,-9.595219,6.458228,-0.7436567,2.0014012,4.1371245,13.789748691631551,4.655580676300586,jump
10/07/2020, 09:35:46,7.2550383,-9.183653,6.367301,-0.7436567,2.0014012,4.1371245,13.323572426972918,4.655580676300586,jump
10/07/2020, 09:35:46,7.2550383,-9.183653,6.367301,-0.6679478,1.9525567,4.1615467,13.323572426972918,4.645116045803027,jump
10/07/2020, 09:35:47,8.944371,-3.1130621,5.6470613,-2.6742334,1.7986968,0.015874445,11.026433437822195,3.222900323111909,jump
10/07/2020, 09:35:47,8.944371,-3.1130621,5.6470613,-2.5179312,1.8096868,0.13432223,11.026433437822195,3.103705260710715,jump
10/07/2020, 09:35:47,8.946764,-3.4743786,5.6374903,-2.5179312,1.8096868,0.13432223,11.130911421102935,3.103705260710715,jump
10/07/2020, 09:35:47,8.946764,-3.4743786,5.6374903,-2.284699,1.7840434,0.25887558,11.130911421102935,2.910270929347696,jump
10/07/2020, 09:35:47,8.968299,-3.7423747,5.721239,-2.284699,1.7840434,0.25887558,11.276893640786746,2.910270929347696,jump
10/07/2020, 09:35:47,8.968299,-3.7423747,5.721239,-2.0575724,1.7437468,0.38831335,11.276893640786746,2.7248934017501143,jump
10/07/2020, 09:35:47,9.006584,-3.749553,5.797809,-2.0575724,1.7437468,0.38831335,11.348669368817514,2.7248934017501143,jump
10/07/2020, 09:35:47,9.006584,-3.749553,5.797809,-1.834109,1.6875756,0.5250778,11.348669368817514,2.54707159035431,jump
10/07/2020, 09:35:47,9.090333,-3.5557344,5.8073807,-1.834109,1.6875756,0.5250778,11.357951892426424,2.54707159035431,jump
10/07/2020, 09:35:47,9.090333,-3.5557344,5.8073807,-1.6216357,1.636289,0.65451556,11.357951892426424,2.3948976139114033,jump
10/07/2020, 09:35:47,9.265009,-3.182454,5.7810597,-1.6216357,1.636289,0.65451556,11.374931046098675,2.3948976139114033,jump
10/07/2020, 09:35:47,9.265009,-3.182454,5.7810597,-1.4580067,1.5959923,0.7558678,11.374931046098675,2.290046126060392,jump
10/07/2020, 09:35:47,9.439685,-2.6799614,5.5920267,-1.4580067,1.5959923,0.7558678,11.294273171445289,2.290046126060392,jump
10/07/2020, 09:35:47,9.439685,-2.6799614,5.5920267,-1.3859612,1.5434844,0.82547116,11.294273171445289,2.2326296747593766,jump
10/07/2020, 09:35:47,9.542577,-2.1702902,5.1469617,-1.3859612,1.5434844,0.82547116,11.057221446101028,2.2326296747593766,jump
10/07/2020, 09:35:47,9.542577,-2.1702902,5.1469617,-1.3920667,1.5141778,0.87920004,11.057221446101028,2.2368676458985437,jump
10/07/2020, 09:35:47,9.700503,-1.7443677,4.814359,-1.3920667,1.5141778,0.87920004,10.969076458833783,2.2368676458985437,jump
10/07/2020, 09:35:47,9.700503,-1.7443677,4.814359,-1.4323634,1.5141778,0.9378134,10.969076458833783,2.2855837912517147,jump
10/07/2020, 09:35:47,9.812965,-1.4668003,4.4602213,-1.4323634,1.5141778,0.9378134,10.87838990755046,2.2855837912517147,jump
10/07/2020, 09:35:47,9.812965,-1.4668003,4.4602213,-1.4970822,1.4726601,0.9878789,10.87838990755046,2.3207515243367745,jump
10/07/2020, 09:35:48,11.227124,-8.456235,8.26481,-1.812129,3.4740613,5.273979,16.305315244079146,6.5702183849690625,jump
10/07/2020, 09:35:48,11.227124,-8.456235,8.26481,-1.6875756,3.438649,5.3643413,16.305315244079146,6.591538136385646,jump
10/07/2020, 09:35:48,10.667203,-8.563912,7.422536,-1.6875756,3.438649,5.3643413,15.563542442203993,6.591538136385646,jump
10/07/2020, 09:35:48,10.667203,-8.563912,7.422536,-1.3713078,3.327528,5.4559245,15.563542442203993,6.536056921292347,jump
10/07/2020, 09:35:48,10.0881405,-8.599805,6.735796,-1.3713078,3.327528,5.4559245,14.869370190290688,6.536056921292347,jump
10/07/2020, 09:35:48,10.0881405,-8.599805,6.735796,-0.90362227,3.2017534,5.50599,14.869370190290688,6.433015163342407,jump
10/07/2020, 09:35:48,9.571291,-8.652447,6.1399827,-0.90362227,3.2017534,5.50599,14.28894093684834,6.433015163342407,jump
10/07/2020, 09:35:48,9.571291,-8.652447,6.1399827,-0.37610224,3.064989,5.5096536,14.28894093684834,6.316002965328354,jump
10/07/2020, 09:35:48,9.142975,-8.312666,5.6470613,-0.37610224,3.064989,5.5096536,13.586158620396482,6.316002965328354,jump
10/07/2020, 09:35:48,9.142975,-8.312666,5.6470613,0.16851334,2.9404356,5.4473767,13.586158620396482,6.192614291548233,jump
10/07/2020, 09:35:48,8.803194,-7.6666036,5.1828537,0.16851334,2.9404356,5.4473767,12.772431565701133,6.192614291548233,jump
10/07/2020, 09:35:48,8.803194,-7.6666036,5.1828537,0.6386411,2.8696113,5.339919,12.772431565701133,6.095676104571009,jump
10/07/2020, 09:35:48,8.480164,-6.7812595,4.7401814,0.6386411,2.8696113,5.339919,11.847699156034242,6.095676104571009,jump
10/07/2020, 09:35:48,8.480164,-6.7812595,4.7401814,1.00009,2.8415256,5.183617,11.847699156034242,5.995359362626439,jump
10/07/2020, 09:35:48,8.116454,-5.7547383,4.3094735,1.00009,2.8415256,5.183617,10.842758080093422,5.995359362626439,jump
10/07/2020, 09:35:48,8.116454,-5.7547383,4.3094735,1.2333223,2.8207667,5.0016713,10.842758080093422,5.8732039334781065,jump
10/07/2020, 09:35:48,7.652247,-4.694718,3.7734814,1.2333223,2.8207667,5.0016713,9.738399307306194,5.8732039334781065,jump
10/07/2020, 09:35:48,7.652247,-4.694718,3.7734814,1.3468856,2.7877967,4.8148413,9.738399307306194,5.724387112739852,jump
10/07/2020, 09:35:48,7.0348988,-3.5030923,3.1393833,1.3468856,2.7877967,4.8148413,8.462693644724924,5.724387112739852,jump
10/07/2020, 09:35:48,7.0348988,-3.5030923,3.1393833,1.3786345,2.7670379,4.5974836,8.462693644724924,5.540215455542761,jump
10/07/2020, 09:35:49,7.257431,-1.6534405,3.2135608,-1.35177,0.8877478,1.4006145,8.107474557870184,2.1394156742571386,jump
10/07/2020, 09:35:49,7.257431,-1.6534405,3.2135608,-1.2259957,0.76930004,1.3163579,8.107474557870184,1.9564472665876904,jump
10/07/2020, 09:35:49,6.991828,-1.7659031,3.2470603,-1.2259957,0.76930004,1.3163579,7.908696016820165,1.9564472665876904,jump
10/07/2020, 09:35:49,6.991828,-1.7659031,3.2470603,-1.0440501,0.64963114,1.2247745,7.908696016820165,1.7355499860291475,jump
10/07/2020, 09:35:49,6.7525454,-1.9525433,3.278167,-1.0440501,0.64963114,1.2247745,7.756008826268384,1.7355499860291475,jump
10/07/2020, 09:35:49,6.7525454,-1.9525433,3.278167,-0.8034911,0.5043189,1.1392968,7.756008826268384,1.4825426297219773,jump
10/07/2020, 09:35:49,6.558727,-2.0434706,3.3236306,-0.8034911,0.5043189,1.1392968,7.631460504267896,1.4825426297219773,jump
10/07/2020, 09:35:49,6.558727,-2.0434706,3.3236306,-0.54461557,0.36511225,1.0477134,7.631460504267896,1.2359678124203826,jump
10/07/2020, 09:35:49,6.4151573,-2.0697916,3.4408789,-0.54461557,0.36511225,1.0477134,7.568218276711493,1.2359678124203826,jump
10/07/2020, 09:35:49,6.4151573,-2.0697916,3.4408789,-0.27475002,0.25521225,0.9329289,7.568218276711493,1.0054736378071818,jump
10/07/2020, 09:35:49,6.2237315,-2.0602202,3.5796626,-0.27475002,0.25521225,0.9329289,7.469492988338678,1.0054736378071818,jump
10/07/2020, 09:35:49,6.2237315,-2.0602202,3.5796626,-0.025643334,0.15508112,0.8071545,7.469492988338678,0.8223175083131772,jump
10/07/2020, 09:35:49,6.0107703,-1.9310079,3.6658044,-0.025643334,0.15508112,0.8071545,7.300429645672435,0.8223175083131772,jump
10/07/2020, 09:35:49,6.0107703,-1.9310079,3.6658044,0.1856089,0.042738892,0.67283225,7.300429645672435,0.6992714149296156,jump
10/07/2020, 09:35:49,5.7690954,-1.7682959,3.751946,0.1856089,0.042738892,0.67283225,7.105380418295354,0.6992714149296156,jump
10/07/2020, 09:35:49,5.7690954,-1.7682959,3.751946,0.33580557,-0.06105556,0.5324045,7.105380418295354,0.6324141773970026,jump
10/07/2020, 09:35:49,5.5298133,-1.6151553,3.8237305,0.33580557,-0.06105556,0.5324045,6.914367395925014,0.6324141773970026,jump
10/07/2020, 09:35:49,5.5298133,-1.6151553,3.8237305,0.43471557,-0.13798556,0.39686114,6.914367395925014,0.6045795243069673,jump
10/07/2020, 09:35:49,5.3144593,-1.5314065,3.9290147,0.43471557,-0.13798556,0.39686114,6.784234681792116,0.6045795243069673,jump
10/07/2020, 09:35:49,5.3144593,-1.5314065,3.9290147,0.51164556,-0.22346334,0.25399113,6.784234681792116,0.6133747077416839,jump
10/07/2020, 09:35:50,0.47138608,1.0097711,2.1415763,0.03174889,1.9720945,2.9734056,2.4141647686085266,3.5680955298325148,jump
10/07/2020, 09:35:50,0.47138608,1.0097711,2.1415763,0.009768889,1.8206767,2.6876657,2.4141647686085266,3.24630650741772,jump
10/07/2020, 09:35:50,-0.3684947,1.0432707,1.9046868,0.009768889,1.8206767,2.6876657,2.2027332891936786,3.24630650741772,jump
10/07/2020, 09:35:50,-0.3684947,1.0432707,1.9046868,-0.013432222,1.6546056,2.42879,2.2027332891936786,2.9388639844282505,jump
10/07/2020, 09:35:50,-1.1772687,1.134198,1.7156538,-0.013432222,1.6546056,2.42879,2.369775214660687,2.9388639844282505,jump
10/07/2020, 09:35:50,-1.1772687,1.134198,1.7156538,0.0036633336,1.4958612,2.1857889,2.369775214660687,2.648638716685822,jump
10/07/2020, 09:35:50,-1.9573289,1.442872,1.6271194,0.0036633336,1.4958612,2.1857889,2.925838998028194,2.648638716685822,jump
10/07/2020, 09:35:50,-1.9573289,1.442872,1.6271194,0.06960334,1.3310112,1.9171445,2.925838998028194,2.334925812814404,jump
10/07/2020, 09:35:50,-2.7158537,1.8592232,1.5816557,0.06960334,1.3310112,1.9171445,3.651603378555671,2.334925812814404,jump
10/07/2020, 09:35:50,-2.7158537,1.8592232,1.5816557,0.11966889,1.1539501,1.6228567,3.651603378555671,1.9948898346547226,jump
10/07/2020, 09:35:50,-3.4767714,2.2947168,1.457229,0.11966889,1.1539501,1.6228567,4.413295913162995,1.9948898346547226,jump
10/07/2020, 09:35:50,-3.4767714,2.2947168,1.457229,0.12455334,0.97078335,1.3383378,4.413295913162995,1.6580355433235494,jump
10/07/2020, 09:35:50,-4.211368,2.7565317,1.3782659,0.12455334,0.97078335,1.3383378,5.2185922441789785,1.6580355433235494,jump
10/07/2020, 09:35:50,-4.211368,2.7565317,1.3782659,0.10867889,0.81936556,1.06603,5.2185922441789785,1.3489221769316297,jump
10/07/2020, 09:35:50,-4.9340005,3.182454,1.4404793,0.10867889,0.81936556,1.06603,6.045440890877107,1.3489221769316297,jump
10/07/2020, 09:35:50,-4.9340005,3.182454,1.4404793,0.08059334,0.6557367,0.80104893,6.045440890877107,1.0383473800509764,jump
10/07/2020, 09:35:50,-5.6781683,3.3355947,1.4715859,0.08059334,0.6557367,0.80104893,6.747840534234266,1.0383473800509764,jump
10/07/2020, 09:35:50,-5.6781683,3.3355947,1.4715859,0.015874445,0.46280113,0.5287411,6.747840534234266,0.7028542210306469,jump
10/07/2020, 09:35:50,-6.2883377,3.2853456,1.538585,0.015874445,0.46280113,0.5287411,7.25974725291794,0.7028542210306469,jump
10/07/2020, 09:35:50,-6.2883377,3.2853456,1.538585,-0.03297,0.26864445,0.26009667,7.25974725291794,0.3753759979976185,jump
10/07/2020, 09:35:51,7.664211,-1.68694,3.9026937,-0.8498934,0.49821335,1.6130879,8.764525773612617,1.8901290612583115,jump
10/07/2020, 09:35:51,7.664211,-1.68694,3.9026937,-0.8266923,0.42006224,1.5630223,8.764525773612617,1.8173912600866067,jump
10/07/2020, 09:35:51,7.570891,-1.8041883,4.072584,-0.8266923,0.42006224,1.5630223,8.784043829356145,1.8173912600866067,jump
10/07/2020, 09:35:51,7.570891,-1.8041883,4.072584,-0.72778225,0.35778558,1.4519012,8.784043829356145,1.663037766498243,jump
10/07/2020, 09:35:51,7.436893,-1.9884356,4.2999024,-0.72778225,0.35778558,1.4519012,8.8176195492001,1.663037766498243,jump
10/07/2020, 09:35:51,7.436893,-1.9884356,4.2999024,-0.5482789,0.2503278,1.3420012,8.8176195492001,1.4711359583841792,jump
10/07/2020, 09:35:51,7.2861447,-2.132005,4.421936,-0.5482789,0.2503278,1.3420012,8.785605761376898,1.4711359583841792,jump
10/07/2020, 09:35:51,7.2861447,-2.132005,4.421936,-0.32115224,0.11112112,1.2614079,8.785605761376898,1.3063829582804332,jump
10/07/2020, 09:35:51,7.0803623,-2.1535404,4.4913282,-0.32115224,0.11112112,1.2614079,8.65686410160187,1.3063829582804332,jump
10/07/2020, 09:35:51,7.0803623,-2.1535404,4.4913282,-0.091583334,0.0036633336,1.1893623,8.65686410160187,1.1928887534221633,jump
10/07/2020, 09:35:51,6.836294,-1.9621146,4.5224347,-0.091583334,0.0036633336,1.1893623,8.42835852056753,1.1928887534221633,jump
10/07/2020, 09:35:51,6.836294,-1.9621146,4.5224347,0.10745778,-0.06716111,1.1075479,8.42835852056753,1.1147735618535264,jump
10/07/2020, 09:35:51,6.5611196,-1.6366907,4.587041,0.10745778,-0.06716111,1.1075479,8.171168253534717,1.1147735618535264,jump
10/07/2020, 09:35:51,6.5611196,-1.6366907,4.587041,0.2942878,-0.15019667,0.9976478,8.171168253534717,1.0509355481507205,jump
10/07/2020, 09:35:51,6.314659,-1.308874,4.5726843,0.2942878,-0.15019667,0.9976478,7.905536829305411,1.0509355481507205,jump
10/07/2020, 09:35:51,6.314659,-1.308874,4.5726843,0.44082114,-0.24055889,0.85722005,7.905536829305411,0.9934878356228777,jump
10/07/2020, 09:35:51,6.128019,-1.0289137,4.5942197,0.44082114,-0.24055889,0.85722005,7.7277508427288755,0.9934878356228777,jump
10/07/2020, 09:35:51,6.128019,-1.0289137,4.5942197,0.5140878,-0.32725778,0.69603336,7.7277508427288755,0.9251196433354538,jump
10/07/2020, 09:35:51,6.0155563,-0.8542377,4.6755753,0.5140878,-0.32725778,0.69603336,7.666657942628086,0.9251196433354538,jump
10/07/2020, 09:35:51,6.0155563,-0.8542377,4.6755753,0.49821335,-0.3931978,0.5336256,7.666657942628086,0.8292028342821103,jump
10/07/2020, 09:35:52,8.4682,-9.025727,8.322237,-0.5910178,2.4226844,4.459498,14.914214306659156,5.109385838571254,jump
10/07/2020, 09:35:52,8.4682,-9.025727,8.322237,-0.30772,2.4202423,4.4765935,14.914214306659156,5.098250067725977,jump
10/07/2020, 09:35:52,7.838887,-8.9013,8.047063,-0.30772,2.4202423,4.4765935,14.333057001565656,5.098250067725977,jump
10/07/2020, 09:35:52,7.838887,-8.9013,8.047063,-0.026864445,2.3872724,4.441181,14.333057001565656,5.04220996274308,jump
10/07/2020, 09:35:52,7.192825,-8.425129,7.5469627,-0.026864445,2.3872724,4.441181,13.404334125843386,5.04220996274308,jump
10/07/2020, 09:35:52,7.192825,-8.425129,7.5469627,0.11600556,2.3262167,4.3960004,13.404334125843386,4.9748930443294865,jump
10/07/2020, 09:35:52,6.597012,-7.63789,7.003792,0.11600556,2.3262167,4.3960004,12.284585021294337,4.9748930443294865,jump
10/07/2020, 09:35:52,6.597012,-7.63789,7.003792,0.09036223,2.3457546,4.3679147,12.284585021294337,4.958770886845994,jump
10/07/2020, 09:35:52,6.3338017,-6.7381887,6.7334027,0.09036223,2.3457546,4.3679147,11.439359440892149,4.958770886845994,jump
10/07/2020, 09:35:52,6.3338017,-6.7381887,6.7334027,-0.07204556,2.4483278,4.36303,11.439359440892149,5.0035517268829555,jump
10/07/2020, 09:35:52,6.084948,-6.1160545,6.3744793,-0.07204556,2.4483278,4.36303,10.726914853281482,5.0035517268829555,jump
10/07/2020, 09:35:52,6.084948,-6.1160545,6.3744793,-0.27963445,2.515489,4.3325024,10.726914853281482,5.017614730761295,jump
10/07/2020, 09:35:52,5.7188463,-5.4628143,5.9988065,-0.27963445,2.515489,4.3325024,9.926390220196764,5.017614730761295,jump
10/07/2020, 09:35:52,5.7188463,-5.4628143,5.9988065,-0.36267,2.5533435,4.239698,9.926390220196764,4.962472297337386,jump
10/07/2020, 09:35:52,5.113462,-4.9842496,5.771488,-0.36267,2.5533435,4.239698,9.181520203604823,4.962472297337386,jump
10/07/2020, 09:35:52,5.113462,-4.9842496,5.771488,-0.3052778,2.5472379,4.1285768,9.181520203604823,4.860736707554302,jump
10/07/2020, 09:35:52,4.223332,-4.9698925,5.352744,-0.3052778,2.5472379,4.1285768,8.437311982057587,4.860736707554302,jump
10/07/2020, 09:35:52,4.223332,-4.9698925,5.352744,-0.1856089,2.4556546,4.0614157,8.437311982057587,4.749714469614663,jump
10/07/2020, 09:35:52,3.318845,-5.022535,4.962714,-0.1856089,2.4556546,4.0614157,7.801866496745562,4.749714469614663,jump
10/07/2020, 09:35:52,3.318845,-5.022535,4.962714,0.05006556,2.35186,4.0052447,7.801866496745562,4.6449690634455,jump
10/07/2020, 09:35:53,8.937193,-3.0987053,6.393622,-1.7315357,1.3908457,1.3017045,11.41725855860542,2.5743158508906068,jump
10/07/2020, 09:35:53,8.937193,-3.0987053,6.393622,-1.5874445,1.339559,1.4103833,11.41725855860542,2.5106930438817154,jump
10/07/2020, 09:35:53,9.097511,-2.9096723,6.309873,-1.5874445,1.339559,1.4103833,11.447506407558679,2.5106930438817154,jump
10/07/2020, 09:35:53,9.097511,-2.9096723,6.309873,-1.4836501,1.27484,1.5215045,11.447506407558679,2.4781869606199,jump
10/07/2020, 09:35:53,9.205189,-2.6823542,6.15434,-1.4836501,1.27484,1.5215045,11.393262145593535,2.4781869606199,jump
10/07/2020, 09:35:53,9.205189,-2.6823542,6.15434,-1.4311423,1.2272167,1.625299,11.393262145593535,2.4891416216807607,jump
10/07/2020, 09:35:53,9.272188,-2.4478576,5.9270215,-1.4311423,1.2272167,1.625299,11.273644689741417,2.4891416216807607,jump
10/07/2020, 09:35:53,9.272188,-2.4478576,5.9270215,-1.405499,1.1795933,1.7266512,11.273644689741417,2.5195618937334077,jump
10/07/2020, 09:35:53,9.3200445,-2.2851455,5.682954,-1.405499,1.1795933,1.7266512,11.152626782370024,2.5195618937334077,jump
10/07/2020, 09:35:53,9.3200445,-2.2851455,5.682954,-1.3835189,1.1160955,1.8084656,11.152626782370024,2.5358118480595944,jump
10/07/2020, 09:35:53,9.286545,-2.1774685,5.4053864,-1.3835189,1.1160955,1.8084656,10.963552627009578,2.5358118480595944,jump
10/07/2020, 09:35:53,9.286545,-2.1774685,5.4053864,-1.3346745,1.0367234,1.8695211,10.963552627009578,2.520170751134352,jump
10/07/2020, 09:35:53,9.202796,-2.1008983,5.144569,-1.3346745,1.0367234,1.8695211,10.750433330353928,2.520170751134352,jump
10/07/2020, 09:35:53,9.202796,-2.1008983,5.144569,-1.2553023,0.95857227,1.9171445,10.750433330353928,2.4839661549663377,jump
10/07/2020, 09:35:53,9.099904,-2.1296122,4.962714,-1.2553023,0.95857227,1.9171445,10.581683904064452,2.4839661549663377,jump
10/07/2020, 09:35:53,9.099904,-2.1296122,4.962714,-1.1478444,0.8633256,1.9501145,10.581683904064452,2.421946417095939,jump
10/07/2020, 09:35:53,8.992228,-2.103291,4.7569313,-1.1478444,0.8633256,1.9501145,10.388088611731067,2.421946417095939,jump
10/07/2020, 09:35:53,8.992228,-2.103291,4.7569313,-1.0355023,0.76075226,1.965989,10.388088611731067,2.348642537455249,jump
10/07/2020, 09:35:53,8.865408,-2.0482562,4.5655055,-1.0355023,0.76075226,1.965989,10.180110599274446,2.348642537455249,jump
10/07/2020, 09:35:53,8.865408,-2.0482562,4.5655055,-0.9402556,0.6691689,1.9647678,10.180110599274446,2.2786355839614667,jump
10/07/2020, 09:35:54,8.429914,-8.003992,8.377272,-1.7229879,2.2236435,4.03333,14.328504025543328,4.917420915968376,jump
10/07/2020, 09:35:54,8.319844,-7.975278,8.243274,-1.7229879,2.2236435,4.03333,14.16955989932097,4.917420915968376,jump
10/07/2020, 09:35:54,8.319844,-7.975278,8.243274,-1.9366823,2.2920256,4.1517777,14.16955989932097,5.122633905836731,jump
10/07/2020, 09:35:54,8.176275,-8.190632,8.176275,-1.9366823,2.2920256,4.1517777,14.170017798404743,5.122633905836731,jump
10/07/2020, 09:35:54,8.176275,-8.190632,8.176275,-1.944009,2.3445334,4.272668,14.170017798404743,5.247065723358644,jump
10/07/2020, 09:35:54,7.9920278,-8.690732,8.099705,-1.944009,2.3445334,4.272668,14.318049705148253,5.247065723358644,jump
10/07/2020, 09:35:54,7.9920278,-8.690732,8.099705,-1.7168823,2.3445334,4.382568,14.318049705148253,5.258462066954006,jump
10/07/2020, 09:35:54,7.7790666,-9.334401,7.853244,-1.7168823,2.3445334,4.382568,14.467838804525718,5.258462066954006,jump
10/07/2020, 09:35:54,7.7790666,-9.334401,7.853244,-1.3188001,2.2651613,4.474151,14.467838804525718,5.185385006141937,jump
10/07/2020, 09:35:54,7.489535,-9.65504,7.475178,-1.3188001,2.2651613,4.474151,14.324496788841873,5.185385006141937,jump
10/07/2020, 09:35:54,7.489535,-9.65504,7.475178,-0.8999589,2.1369445,4.5303226,14.324496788841873,5.089231807877489,jump
10/07/2020, 09:35:54,7.21436,-9.533006,7.070791,-0.8999589,2.1369445,4.5303226,13.88961027754996,5.089231807877489,jump
10/07/2020, 09:35:54,7.21436,-9.533006,7.070791,-0.6618422,2.0514667,4.558408,13.88961027754996,5.0423835920510625,jump
10/07/2020, 09:35:54,6.991828,-9.078369,6.6855464,-0.6618422,2.0514667,4.558408,13.266460537180143,5.0423835920510625,jump
10/07/2020, 09:35:54,6.991828,-9.078369,6.6855464,-0.66062117,2.0624568,4.5864935,13.266460537180143,5.072087452043698,jump
10/07/2020, 09:35:54,6.826723,-8.449057,6.3218374,-0.66062117,2.0624568,4.5864935,12.56806805188376,5.072087452043698,jump
10/07/2020, 09:35:54,6.826723,-8.449057,6.3218374,-0.81326,2.1332812,4.62679,12.56806805188376,5.159405663892947,jump
10/07/2020, 09:35:54,6.6161547,-7.9154572,5.85763,-0.81326,2.1332812,4.62679,11.863380322459738,5.159405663892947,jump
10/07/2020, 09:35:54,6.6161547,-7.9154572,5.85763,-0.9744467,2.1980002,4.6414437,11.863380322459738,5.227212559129938,jump
10/07/2020, 09:35:54,6.285945,-7.2861447,5.501099,-0.9744467,2.1980002,4.6414437,11.08436287129413,5.227212559129938,jump
10/07/2020, 09:35:55,8.075776,-1.4859428,6.4677997,-2.6742334,1.4091623,-0.2515489,10.45268473805127,3.0332391358440414,jump
10/07/2020, 09:35:55,8.075776,-1.4859428,6.4677997,-2.9074657,1.5361578,-0.18072446,10.45268473805127,3.293296074436717,jump
10/07/2020, 09:35:55,8.106883,-2.024328,6.1974106,-2.9074657,1.5361578,-0.18072446,10.40323769485295,3.293296074436717,jump
10/07/2020, 09:35:55,8.106883,-2.024328,6.1974106,-3.075979,1.6167512,-0.08669889,10.40323769485295,3.4760678783050944,jump
10/07/2020, 09:35:55,8.12124,-2.498107,6.020342,-3.075979,1.6167512,-0.08669889,10.413433069178701,3.4760678783050944,jump
10/07/2020, 09:35:55,8.12124,-2.498107,6.020342,-3.1785524,1.6399523,0.026864445,10.413433069178701,3.5767807511366376,jump
10/07/2020, 09:35:55,8.181061,-2.9359934,5.946164,-3.1785524,1.6399523,0.026864445,10.53122409692493,3.5767807511366376,jump
10/07/2020, 09:35:55,8.181061,-2.9359934,5.946164,-3.2200701,1.6472789,0.16973445,10.53122409692493,3.6209376099084496,jump
10/07/2020, 09:35:55,8.26481,-3.3044882,5.9150577,-3.2200701,1.6472789,0.16973445,10.687124361612412,3.6209376099084496,jump
10/07/2020, 09:35:55,8.26481,-3.3044882,5.9150577,-3.228618,1.6423945,0.34069002,10.687124361612412,3.6383379595646876,jump
10/07/2020, 09:35:55,8.348558,-3.5940197,5.895915,-3.228618,1.6423945,0.34069002,10.83407675362062,3.6383379595646876,jump
10/07/2020, 09:35:55,8.348558,-3.5940197,5.895915,-3.2029746,1.6118667,0.52141446,10.83407675362062,3.6234007997034854,jump
10/07/2020, 09:35:55,8.396415,-3.7854455,5.8672013,-3.2029746,1.6118667,0.52141446,10.920321857088362,3.6234007997034854,jump
10/07/2020, 09:35:55,8.396415,-3.7854455,5.8672013,-3.12116,1.5666857,0.7106867,10.920321857088362,3.563877033043729,jump
10/07/2020, 09:35:55,8.422736,-3.8691943,5.797809,-3.12116,1.5666857,0.7106867,10.932874255432282,3.563877033043729,jump
10/07/2020, 09:35:55,8.422736,-3.8691943,5.797809,-2.9697423,1.5019667,0.8950745,10.932874255432282,3.446219909788664,jump
10/07/2020, 09:35:55,8.482556,-3.9673,5.7284174,-2.9697423,1.5019667,0.8950745,10.977613437455526,3.446219909788664,jump
10/07/2020, 09:35:55,8.482556,-3.9673,5.7284174,-2.757269,1.4116045,1.0635878,10.977613437455526,3.275114978917078,jump
10/07/2020, 09:35:55,8.585447,-4.005585,5.6279187,-2.757269,1.4116045,1.0635878,11.019441338016975,3.275114978917078,jump
10/07/2020, 09:35:55,8.585447,-4.005585,5.6279187,-2.5008357,1.2882723,1.2272167,11.019441338016975,3.0691831622198262,jump
10/07/2020, 09:35:56,8.513663,-4.979464,9.406186,-1.9476722,1.3017045,2.7108667,13.629154850328684,3.5828285009595056,jump
10/07/2020, 09:35:56,8.513663,-4.979464,9.406186,-2.042919,1.3603178,2.843968,13.629154850328684,3.7566122774974966,jump
10/07/2020, 09:35:56,8.453842,-5.312066,9.470792,-2.042919,1.3603178,2.843968,13.761591149749814,3.7566122774974966,jump
10/07/2020, 09:35:56,8.453842,-5.312066,9.470792,-2.1039746,1.4140468,2.955089,13.761591149749814,3.893428929812716,jump
10/07/2020, 09:35:56,8.429914,-5.706882,9.547362,-2.1039746,1.4140468,2.955089,13.9565069993447,3.893428929812716,jump
10/07/2020, 09:35:56,8.429914,-5.706882,9.547362,-2.1381657,1.4909767,3.0601046,13.9565069993447,4.019826404525209,jump
10/07/2020, 09:35:56,8.451449,-6.3218374,9.690931,-2.1381657,1.4909767,3.0601046,14.328530111175928,4.019826404525209,jump
10/07/2020, 09:35:56,8.451449,-6.3218374,9.690931,-2.129618,1.5581379,3.1809945,14.328530111175928,4.133012496711391,jump
10/07/2020, 09:35:56,8.484949,-6.946364,9.762716,-2.129618,1.5581379,3.1809945,14.681858283195913,4.133012496711391,jump
10/07/2020, 09:35:56,8.484949,-6.946364,9.762716,-2.0209389,1.5886656,3.328749,14.681858283195913,4.205784332060459,jump
10/07/2020, 09:35:56,8.606983,-7.5254273,9.856036,-2.0209389,1.5886656,3.328749,15.094822473925756,4.205784332060459,jump
10/07/2020, 09:35:56,8.606983,-7.5254273,9.856036,-1.8109078,1.6118667,3.4630713,15.094822473925756,4.22733540852282,jump
10/07/2020, 09:35:56,8.779266,-8.059027,10.025927,-1.8109078,1.6118667,3.4630713,15.573780318395144,4.22733540852282,jump
10/07/2020, 09:35:56,8.779266,-8.059027,10.025927,-1.5544745,1.62652,3.5973935,15.573780318395144,4.243017606078202,jump
10/07/2020, 09:35:56,8.958728,-8.4347,10.277173,-1.5544745,1.62652,3.5973935,16.031944813018782,4.243017606078202,jump
10/07/2020, 09:35:56,8.958728,-8.4347,10.277173,-1.3004833,1.6570479,3.7268312,16.031944813018782,4.280926925996408,jump
10/07/2020, 09:35:56,9.128618,-8.676374,10.628919,-1.3004833,1.6570479,3.7268312,16.47983786154135,4.280926925996408,jump
10/07/2020, 09:35:56,9.128618,-8.676374,10.628919,-1.0965579,1.7425256,3.8697014,16.47983786154135,4.383311913612356,jump
10/07/2020, 09:35:56,9.288938,-8.882157,11.002198,-1.0965579,1.7425256,3.8697014,16.918198650287202,4.383311913612356,jump
10/07/2020, 09:35:56,9.288938,-8.882157,11.002198,-0.9280445,1.8988279,4.0321093,16.918198650287202,4.552441005954402,jump
10/07/2020, 09:35:57,11.040483,-1.0241281,11.882757,3.8745856,-1.7864857,-0.7436567,16.252416190875763,4.330931785280932,jump
10/07/2020, 09:35:57,11.040483,-1.0241281,11.882757,3.1248236,-1.4287001,-0.6764956,16.252416190875763,3.5019069952545006,jump
10/07/2020, 09:35:57,10.786844,0.6795616,11.475977,3.1248236,-1.4287001,-0.6764956,15.764385803361407,3.5019069952545006,jump
10/07/2020, 09:35:57,10.786844,0.6795616,11.475977,2.2163167,-1.0403867,-0.6935911,15.764385803361407,2.5447068182069876,jump
10/07/2020, 09:35:57,10.437492,2.1008983,11.102697,2.2163167,-1.0403867,-0.6935911,15.382617119780365,2.5447068182069876,jump
10/07/2020, 09:35:57,10.437492,2.1008983,11.102697,1.2772822,-0.6581789,-0.7546467,15.382617119780365,1.6230037225046918,jump
10/07/2020, 09:35:57,10.030712,3.034099,10.777273,1.2772822,-0.6581789,-0.7546467,15.032317196785876,1.6230037225046918,jump
10/07/2020, 09:35:57,10.030712,3.034099,10.777273,0.45059,-0.32115224,-0.8169234,15.032317196785876,0.9866782307492417,jump
10/07/2020, 09:35:57,9.690931,3.4695928,10.530812,0.45059,-0.32115224,-0.8169234,14.725835495701304,0.9866782307492417,jump
10/07/2020, 09:35:57,9.690931,3.4695928,10.530812,-0.20881,-0.059834447,-0.8865267,14.725835495701304,0.9127493491663771,jump
10/07/2020, 09:35:57,9.4636135,3.5365918,10.2317095,-0.20881,-0.059834447,-0.8865267,14.378989564412205,0.9127493491663771,jump
10/07/2020, 09:35:57,9.4636135,3.5365918,10.2317095,-0.72900337,0.15752333,-0.9512456,14.378989564412205,1.2087711598086988,jump
10/07/2020, 09:35:57,9.276974,3.3547373,9.911072,-0.72900337,0.15752333,-0.9512456,13.983770860827098,1.2087711598086988,jump
10/07/2020, 09:35:57,9.276974,3.3547373,9.911072,-1.1478444,0.3602278,-0.98055226,13.983770860827098,1.5520288767625259,jump
10/07/2020, 09:35:57,8.9826565,3.0269206,9.590433,-1.1478444,0.3602278,-0.98055226,13.484315812056188,1.5520288767625259,jump
10/07/2020, 09:35:57,8.9826565,3.0269206,9.590433,-1.5324945,0.5262989,-0.9744467,13.484315812056188,1.890787254129123,jump
10/07/2020, 09:35:57,8.60459,2.5842485,9.202796,-1.5324945,0.5262989,-0.9744467,12.86113411212962,1.890787254129123,jump
10/07/2020, 09:35:57,8.60459,2.5842485,9.202796,-1.91226,0.67161113,-0.9634567,12.86113411212962,2.2441142627741395,jump
10/07/2020, 09:35:57,8.262417,2.1104696,8.776874,-1.91226,0.67161113,-0.9634567,12.237447604289123,2.2441142627741395,jump
10/07/2020, 09:35:57,8.262417,2.1104696,8.776874,-2.2712667,0.80471224,-0.9536878,12.237447604289123,2.591473440936348,jump
10/07/2020, 09:35:58,8.513663,-1.6247265,8.1738825,0.43960002,0.40540892,0.97566783,11.91362891094362,1.1443479770133418,jump
10/07/2020, 09:35:58,8.513663,-1.6247265,8.1738825,0.21247335,0.52752,1.0623667,11.91362891094362,1.2050084361518107,jump
10/07/2020, 09:35:58,8.590233,-1.2634103,8.30788,0.21247335,0.52752,1.0623667,12.017037190218284,1.2050084361518107,jump
10/07/2020, 09:35:58,8.590233,-1.2634103,8.30788,-0.10379445,0.6838223,1.13197,12.017037190218284,1.3265528182520498,jump
10/07/2020, 09:35:58,8.71466,-0.91884387,8.530413,-0.10379445,0.6838223,1.13197,12.229370710069674,1.3265528182520498,jump
10/07/2020, 09:35:58,8.71466,-0.91884387,8.530413,-0.5030978,0.85599893,1.1918045,12.229370710069674,1.5512058458357458,jump
10/07/2020, 09:35:58,8.819944,-0.57427746,8.748159,-0.5030978,0.85599893,1.1918045,12.435895887952375,1.5512058458357458,jump
10/07/2020, 09:35:58,8.819944,-0.57427746,8.748159,-0.96712005,1.0464922,1.2211112,12.435895887952375,1.8765872396894283,jump
10/07/2020, 09:35:58,8.968299,-0.23688944,8.898908,-0.96712005,1.0464922,1.2211112,12.636338850629718,1.8765872396894283,jump
10/07/2020, 09:35:58,8.968299,-0.23688944,8.898908,-1.4421322,1.2589656,1.2504178,12.636338850629718,2.286544235043209,jump
10/07/2020, 09:35:58,9.068798,-0.30149564,8.930014,-1.4421322,1.2589656,1.2504178,12.731030668264472,2.286544235043209,jump
10/07/2020, 09:35:58,9.068798,-0.30149564,8.930014,-1.8646368,1.4799867,1.3151367,12.731030668264472,2.7197086823639682,jump
10/07/2020, 09:35:58,9.08794,-0.77766734,9.004191,-1.8646368,1.4799867,1.3151367,12.816820456380063,2.7197086823639682,jump
10/07/2020, 09:35:58,9.08794,-0.77766734,9.004191,-2.1613667,1.6924601,1.4250367,12.816820456380063,3.0930012252175443,jump
10/07/2020, 09:35:58,9.083155,-1.672583,9.23151,-2.1613667,1.6924601,1.4250367,13.058407737034406,3.0930012252175443,jump
10/07/2020, 09:35:58,9.083155,-1.672583,9.23151,-2.284699,1.8817323,1.5727912,13.058407737034406,3.3517813453306418,jump
10/07/2020, 09:35:58,9.056833,-2.8187451,9.485149,-2.284699,1.8817323,1.5727912,13.41415714092518,3.3517813453306418,jump
10/07/2020, 09:35:58,9.056833,-2.8187451,9.485149,-2.2016635,2.0038433,1.7510734,13.41415714092518,3.4538338199663925,jump
10/07/2020, 09:35:58,9.016156,-4.0295134,9.686146,-2.2016635,2.0038433,1.7510734,13.832912585264964,3.4538338199663925,jump
10/07/2020, 09:35:58,9.016156,-4.0295134,9.686146,-1.9391245,2.053909,1.954999,13.832912585264964,3.4352244619544074,jump
10/07/2020, 09:35:59,12.526426,-2.495714,5.773881,-1.5886656,-4.2323713,-3.2664723,14.017048393747832,5.577335118674293,jump
10/07/2020, 09:35:59,13.210773,-2.400001,4.989035,-1.5886656,-4.2323713,-3.2664723,14.323931449938383,5.577335118674293,jump
10/07/2020, 09:35:59,13.210773,-2.400001,4.989035,-1.812129,-4.1664314,-3.3641613,14.323931449938383,5.653365666535396,jump
10/07/2020, 09:35:59,13.818551,-2.7876384,5.0823555,-1.812129,-4.1664314,-3.3641613,14.985113243138299,5.653365666535396,jump
10/07/2020, 09:35:59,13.818551,-2.7876384,5.0823555,-1.9586623,-4.1420093,-3.4166691,14.985113243138299,5.715437562908954,jump
10/07/2020, 09:35:59,13.99562,-3.2398818,5.2498527,-1.9586623,-4.1420093,-3.4166691,15.294939017777661,5.715437562908954,jump
10/07/2020, 09:35:59,13.99562,-3.2398818,5.2498527,-2.1857889,-4.1224713,-3.4667346,15.294939017777661,5.812976173115404,jump
10/07/2020, 09:35:59,14.043476,-3.562913,6.1399827,-2.1857889,-4.1224713,-3.4667346,15.735722331366533,5.812976173115404,jump
10/07/2020, 09:35:59,14.043476,-3.562913,6.1399827,-2.4776344,-3.9527369,-3.5009258,15.735722331366533,5.832605105970397,jump
10/07/2020, 09:35:59,14.289937,-4.173083,7.4919276,-2.4776344,-3.9527369,-3.5009258,16.665710300798146,5.832605105970397,jump
10/07/2020, 09:35:59,14.289937,-4.173083,7.4919276,-2.7609324,-3.5558758,-3.4569657,16.665710300798146,5.676056048458997,jump
10/07/2020, 09:35:59,14.644074,-5.3503513,8.743374,-2.7609324,-3.5558758,-3.4569657,17.87517167030678,5.676056048458997,jump
10/07/2020, 09:35:59,14.644074,-5.3503513,8.743374,-2.8171034,-2.9489834,-3.3250856,17.87517167030678,5.262011903779638,jump
10/07/2020, 09:35:59,14.988641,-7.2526455,9.829716,-2.8171034,-2.9489834,-3.3250856,19.33606812506529,5.262011903779638,jump
10/07/2020, 09:35:59,14.988641,-7.2526455,9.829716,-2.4764135,-2.3958201,-3.0918534,19.33606812506529,4.629485418207143,jump
10/07/2020, 09:35:59,14.890535,-9.523434,10.157532,-2.4764135,-2.3958201,-3.0918534,20.386252311780282,4.629485418207143,jump
10/07/2020, 09:35:59,14.890535,-9.523434,10.157532,-1.7266512,-2.0893211,-2.7499423,20.386252311780282,3.861187617477068,jump
10/07/2020, 09:35:59,14.390435,-11.667403,10.07139,-1.7266512,-2.0893211,-2.7499423,21.086626645923964,3.861187617477068,jump
10/07/2020, 09:35:59,14.390435,-11.667403,10.07139,-0.6520734,-2.0184968,-2.3152268,21.086626645923964,3.1400324741284074,jump
10/07/2020, 09:35:59,13.5170555,-13.067204,10.023534,-0.6520734,-2.0184968,-2.3152268,21.305723474342027,3.1400324741284074,jump
10/07/2020, 09:36:00,8.286345,-5.436493,4.666004,0.40174556,0.058613338,-0.08303556,10.954020080528174,0.41440308940809306,jump
10/07/2020, 09:36:00,8.178668,-5.465207,4.692325,0.40174556,0.058613338,-0.08303556,10.898486787089414,0.41440308940809306,jump
10/07/2020, 09:36:00,8.178668,-5.465207,4.692325,0.34435335,0.03297,0.08303556,10.898486787089414,0.3557543438432045,jump
10/07/2020, 09:36:00,8.183454,-5.4867425,4.7377887,0.34435335,0.03297,0.08303556,10.932515581483774,0.3557543438432045,jump
10/07/2020, 09:36:00,8.183454,-5.4867425,4.7377887,0.28574002,0.03174889,0.21735778,10.932515581483774,0.3604160878528613,jump
10/07/2020, 09:36:00,8.2456665,-5.4412785,4.766503,0.28574002,0.03174889,0.21735778,10.968959697027358,0.3604160878528613,jump
10/07/2020, 09:36:00,8.2456665,-5.4412785,4.766503,0.2185789,0.026864445,0.30772,10.968959697027358,0.3784045954289967,jump
10/07/2020, 09:36:00,8.350951,-5.304888,4.682754,0.2185789,0.026864445,0.30772,10.945702605296113,0.3784045954289967,jump
10/07/2020, 09:36:00,8.350951,-5.304888,4.682754,0.089141116,0.048844445,0.37976557,10.945702605296113,0.3931333191405885,jump
10/07/2020, 09:36:00,8.449057,-5.0344987,4.56072,0.089141116,0.048844445,0.37976557,10.841259223463254,0.3931333191405885,jump
10/07/2020, 09:36:00,8.449057,-5.0344987,4.56072,-0.098910004,0.089141116,0.45547447,10.841259223463254,0.47453800333402096,jump
10/07/2020, 09:36:00,8.386844,-4.7210393,4.453043,-0.098910004,0.089141116,0.45547447,10.604572163900627,0.47453800333402096,jump
10/07/2020, 09:36:00,8.386844,-4.7210393,4.453043,-0.27719223,0.10745778,0.53973114,10.604572163900627,0.6161918680600588,jump
10/07/2020, 09:36:00,8.240881,-4.54397,4.2568316,-0.27719223,0.10745778,0.53973114,10.32862038723661,0.6161918680600588,jump
10/07/2020, 09:36:00,8.240881,-4.54397,4.2568316,-0.4566956,0.10379445,0.6203245,10.32862038723661,0.777268693610637,jump
10/07/2020, 09:36:00,8.157132,-4.505685,4.3262234,-0.4566956,0.10379445,0.6203245,10.274055166275241,0.777268693610637,jump
10/07/2020, 09:36:00,8.157132,-4.505685,4.3262234,-0.6032289,0.09768889,0.6838223,10.274055166275241,0.9170829624872425,jump
10/07/2020, 09:36:00,8.2049885,-4.5631127,4.35733,-0.6032289,0.09768889,0.6838223,10.350369905061974,0.9170829624872425,jump
10/07/2020, 09:36:00,8.2049885,-4.5631127,4.35733,-0.71923447,0.085477784,0.7558678,10.350369905061974,1.0468718972242432,jump
10/07/2020, 09:36:00,8.322237,-4.759324,4.316652,-0.71923447,0.085477784,0.7558678,10.514003876464406,1.0468718972242432,jump
10/07/2020, 09:36:01,6.161518,-5.1876397,3.5676985,1.1014422,-0.9512456,-5.7392225,8.80933501965416,5.920871419926667,jump
10/07/2020, 09:36:01,6.161518,-5.1876397,3.5676985,0.7680789,-1.0232911,-5.546287,8.80933501965416,5.691956612595176,jump
10/07/2020, 09:36:01,7.735996,-9.06162,3.6011982,0.7680789,-1.0232911,-5.546287,12.44697600403913,5.691956612595176,jump
10/07/2020, 09:36:01,7.735996,-9.06162,3.6011982,0.48722336,-0.9964267,-5.095697,12.44697600403913,5.2150148546251005,jump
10/07/2020, 09:36:01,9.65504,-11.88515,4.125226,0.48722336,-0.9964267,-5.095697,15.858564641468849,5.2150148546251005,jump
10/07/2020, 09:36:01,9.65504,-11.88515,4.125226,1.05504,-0.9426978,-4.918636,15.858564641468849,5.118082372202997,jump
10/07/2020, 09:36:01,11.188839,-11.866008,4.3334017,1.05504,-0.9426978,-4.918636,16.87514825386837,5.118082372202997,jump
10/07/2020, 09:36:01,11.188839,-11.866008,4.3334017,1.9745368,-1.0745778,-5.228798,16.87514825386837,5.691558710842587,jump
10/07/2020, 09:36:01,11.748759,-10.738988,4.156333,1.9745368,-1.0745778,-5.228798,16.45096683285352,5.691558710842587,jump
10/07/2020, 09:36:01,11.748759,-10.738988,4.156333,2.5850923,-1.3114734,-5.6329856,16.45096683285352,6.335076267010329,jump
10/07/2020, 09:36:01,11.392229,-9.3200445,4.254439,2.5850923,-1.3114734,-5.6329856,15.321434769083732,6.335076267010329,jump
10/07/2020, 09:36:01,11.392229,-9.3200445,4.254439,2.7951233,-1.4812078,-5.7770767,15.321434769083732,6.586448709953722,jump
10/07/2020, 09:36:01,10.643275,-7.944171,4.240082,2.7951233,-1.4812078,-5.7770767,13.941572865115015,6.586448709953722,jump
10/07/2020, 09:36:01,10.643275,-7.944171,4.240082,2.73651,-1.6558267,-5.6842723,13.941572865115015,6.522361586790276,jump
10/07/2020, 09:36:01,10.054641,-6.6592255,4.046263,2.73651,-1.6558267,-5.6842723,12.7205868897732,6.522361586790276,jump
10/07/2020, 09:36:01,10.054641,-6.6592255,4.046263,2.5887556,-1.8707423,-5.536518,12.7205868897732,6.391741942937437,jump
10/07/2020, 09:36:01,10.01157,-5.6877394,4.058227,2.5887556,-1.8707423,-5.536518,12.208649370661602,6.391741942937437,jump
10/07/2020, 09:36:01,10.01157,-5.6877394,4.058227,2.504499,-2.0636778,-5.44005,12.208649370661602,6.334463387627002,jump
10/07/2020, 09:36:01,10.427921,-5.1493545,4.156333,2.504499,-2.0636778,-5.44005,12.350404755534898,6.334463387627002,jump
10/07/2020, 09:36:01,10.427921,-5.1493545,4.156333,2.4849613,-2.2212012,-5.3765526,12.350404755534898,6.325826813375303,jump
10/07/2020, 09:36:02,9.329616,-2.5818555,7.4512496,0.54339445,-0.76075226,-1.3688656,12.21592508621316,1.6576533360301624,jump
10/07/2020, 09:36:02,9.329616,-2.5818555,7.4512496,0.58247,-0.69481224,-1.2797245,12.21592508621316,1.5683526671224772,jump
10/07/2020, 09:36:02,9.284152,-2.6799614,7.496713,0.58247,-0.69481224,-1.2797245,12.23022405742089,1.5683526671224772,jump
10/07/2020, 09:36:02,9.284152,-2.6799614,7.496713,0.6288723,-0.6325356,-1.1844778,12.23022405742089,1.4827573192445773,jump
10/07/2020, 09:36:02,9.190832,-2.7110682,7.487142,0.6288723,-0.6325356,-1.1844778,12.1605338097754,1.4827573192445773,jump
10/07/2020, 09:36:02,9.190832,-2.7110682,7.487142,0.66306335,-0.57636446,-1.0916734,12.1605338097754,1.401285033982389,jump
10/07/2020, 09:36:02,9.080762,-2.6656044,7.379465,0.66306335,-0.57636446,-1.0916734,12.000924490714153,1.401285033982389,jump
10/07/2020, 09:36:02,9.080762,-2.6656044,7.379465,0.6679478,-0.5262989,-0.99886894,12.000924490714153,1.3118246748205051,jump
10/07/2020, 09:36:02,8.937193,-2.5842485,7.2693954,0.6679478,-0.5262989,-0.99886894,11.806602667124153,1.3118246748205051,jump
10/07/2020, 09:36:02,8.937193,-2.5842485,7.2693954,0.63619894,-0.4701278,-0.9097278,11.806602667124153,1.205559587987958,jump
10/07/2020, 09:36:02,8.793623,-2.3976083,7.140183,0.63619894,-0.4701278,-0.9097278,11.578365311515883,1.205559587987958,jump
10/07/2020, 09:36:02,8.793623,-2.3976083,7.140183,0.56049,-0.39930335,-0.82425004,11.578365311515883,1.073769225217598,jump
10/07/2020, 09:36:02,8.685946,-2.210968,7.0372915,0.56049,-0.39930335,-0.82425004,11.395504271100785,1.073769225217598,jump
10/07/2020, 09:36:02,8.685946,-2.210968,7.0372915,0.45425335,-0.31016225,-0.74121445,11.395504271100785,0.9230089859618239,jump
10/07/2020, 09:36:02,8.599805,-2.0554347,6.9655066,0.45425335,-0.31016225,-0.74121445,11.256097783617015,0.9230089859618239,jump
10/07/2020, 09:36:02,8.599805,-2.0554347,6.9655066,0.34679556,-0.22468445,-0.67039,11.256097783617015,0.7875106512209131,jump
10/07/2020, 09:36:02,8.532805,-1.9525433,6.9415784,0.34679556,-0.22468445,-0.67039,11.171692101984197,0.7875106512209131,jump
10/07/2020, 09:36:02,8.532805,-1.9525433,6.9415784,0.23811668,-0.15019667,-0.6056711,11.171692101984197,0.6679042483442109,jump
10/07/2020, 09:36:02,8.482556,-1.8711873,6.869794,0.23811668,-0.15019667,-0.6056711,11.074708675720837,0.6679042483442109,jump
10/07/2020, 09:36:02,8.482556,-1.8711873,6.869794,0.13798556,-0.07693,-0.5519422,11.074708675720837,0.5741066656927816,jump
10/07/2020, 09:36:03,9.836894,-2.457429,7.1210403,2.207769,-0.6801589,-2.0502455,12.390022469855673,3.088748362168225,jump
10/07/2020, 09:36:03,9.836894,-2.457429,7.1210403,2.1711357,-0.66428447,-1.9452301,12.390022469855673,2.9898200899111695,jump
10/07/2020, 09:36:03,9.559326,-2.172683,7.051648,2.1711357,-0.66428447,-1.9452301,12.075885465296029,2.9898200899111695,jump
10/07/2020, 09:36:03,9.559326,-2.172683,7.051648,2.1149645,-0.6801589,-1.8768479,12.075885465296029,2.908306865210401,jump
10/07/2020, 09:36:03,9.267402,-1.8903298,6.9798636,2.1149645,-0.6801589,-1.8768479,11.75485336194024,2.908306865210401,jump
10/07/2020, 09:36:03,9.267402,-1.8903298,6.9798636,2.0258234,-0.69237006,-1.8035812,11.75485336194024,2.799328819883283,jump
10/07/2020, 09:36:03,9.0233345,-1.6845472,6.9344,2.0258234,-0.69237006,-1.8035812,11.504093587495559,2.799328819883283,jump
10/07/2020, 09:36:03,9.0233345,-1.6845472,6.9344,1.8951645,-0.68260115,-1.7010078,11.504093587495559,2.636478799543056,jump
10/07/2020, 09:36:03,8.853444,-1.564906,6.9152575,1.8951645,-0.68260115,-1.7010078,11.342538907488535,2.636478799543056,jump
10/07/2020, 09:36:03,8.853444,-1.564906,6.9152575,1.7376412,-0.6435256,-1.5874445,11.342538907488535,2.4399799940511384,jump
10/07/2020, 09:36:03,8.733803,-1.5194423,6.9415784,1.7376412,-0.6435256,-1.5874445,11.259375060466162,2.4399799940511384,jump
10/07/2020, 09:36:03,8.733803,-1.5194423,6.9415784,1.5691278,-0.58491224,-1.4812078,11.259375060466162,2.2356791056811502,jump
10/07/2020, 09:36:03,8.618947,-1.5194423,7.0205417,1.5691278,-0.58491224,-1.4812078,11.21975749137823,2.2356791056811502,jump
10/07/2020, 09:36:03,8.618947,-1.5194423,7.0205417,1.4140468,-0.53973114,-1.394509,11.21975749137823,2.0580313880444723,jump
10/07/2020, 09:36:03,8.633304,-1.4787644,7.042077,1.4140468,-0.53973114,-1.394509,11.238840036083838,2.0580313880444723,jump
10/07/2020, 09:36:03,8.633304,-1.4787644,7.042077,1.2467545,-0.5030978,-1.3236845,11.238840036083838,1.8867020838712916,jump
10/07/2020, 09:36:03,8.707481,-1.430908,7.0085773,1.2467545,-0.5030978,-1.3236845,11.268890188794082,1.8867020838712916,jump
10/07/2020, 09:36:03,8.707481,-1.430908,7.0085773,1.0452712,-0.4371578,-1.240649,11.268890188794082,1.6801513766833052,jump
10/07/2020, 09:36:03,8.750552,-1.3806586,6.9344,1.0452712,-0.4371578,-1.240649,11.250079383949624,1.6801513766833052,jump
10/07/2020, 09:36:03,8.750552,-1.3806586,6.9344,0.7949434,-0.34435335,-1.1380756,11.250079383949624,1.4302902761582772,jump
10/07/2020, 09:36:04,9.138189,-7.4033933,6.91765,0.9829945,-1.6961234,-3.8709223,13.644435512888174,4.3390266535820405,jump
10/07/2020, 09:36:04,9.138189,-7.4033933,6.91765,1.3774134,-1.6900178,-3.9576213,13.644435512888174,4.5184283242716745,jump
10/07/2020, 09:36:04,9.21476,-7.5110703,7.2909307,1.3774134,-1.6900178,-3.9576213,13.945811061297059,4.5184283242716745,jump
10/07/2020, 09:36:04,9.21476,-7.5110703,7.2909307,1.7510734,-1.7132189,-4.0382147,13.945811061297059,4.723193288136488,jump
10/07/2020, 09:36:04,9.1669035,-7.3268228,7.5732837,1.7510734,-1.7132189,-4.0382147,13.966713178331558,4.723193288136488,jump
10/07/2020, 09:36:04,9.1669035,-7.3268228,7.5732837,1.9855268,-1.7022289,-4.076069,13.966713178331558,4.842957506997669,jump
10/07/2020, 09:36:04,9.102298,-6.8650084,7.7742805,1.9855268,-1.7022289,-4.076069,13.799260946590785,4.842957506997669,jump
10/07/2020, 09:36:04,9.102298,-6.8650084,7.7742805,2.096648,-1.6631534,-4.073627,13.799260946590785,4.874058770992379,jump
10/07/2020, 09:36:04,9.145369,-6.2213387,7.9226356,2.096648,-1.6631534,-4.073627,13.605549469328562,4.874058770992379,jump
10/07/2020, 09:36:04,9.145369,-6.2213387,7.9226356,2.1345024,-1.6375101,-4.0479836,13.605549469328562,4.860422959403249,jump
10/07/2020, 09:36:04,9.23151,-5.534599,7.9800634,2.1345024,-1.6375101,-4.0479836,13.399028940136295,4.860422959403249,jump
10/07/2020, 09:36:04,9.23151,-5.534599,7.9800634,2.1393867,-1.6277412,-4.0260034,13.399028940136295,4.840993677661598,jump
10/07/2020, 09:36:04,9.430114,-4.8909297,8.109276,2.1393867,-1.6277412,-4.0260034,13.3644526168602,4.840993677661598,jump
10/07/2020, 09:36:04,9.430114,-4.8909297,8.109276,2.174799,-1.57157,-3.9905913,13.3644526168602,4.808783812124634,jump
10/07/2020, 09:36:04,9.755538,-4.54397,8.334201,2.174799,-1.57157,-3.9905913,13.611652717911872,4.808783812124634,jump
10/07/2020, 09:36:04,9.755538,-4.54397,8.334201,2.2224224,-1.4983034,-3.922209,13.611652717911872,4.750557641185824,jump
10/07/2020, 09:36:04,10.080962,-4.5320063,8.58784,2.2224224,-1.4983034,-3.922209,13.996995267386811,4.750557641185824,jump
10/07/2020, 09:36:04,10.080962,-4.5320063,8.58784,2.2822568,-1.4299212,-3.8208568,13.996995267386811,4.674646248295398,jump
10/07/2020, 09:36:04,10.399207,-4.7306104,8.9013,2.2822568,-1.4299212,-3.8208568,14.482932453528232,4.674646248295398,jump
10/07/2020, 09:36:04,10.399207,-4.7306104,8.9013,2.3970413,-1.3749712,-3.6975245,14.482932453528232,4.616063316356286,jump
10/07/2020, 09:36:05,6.250053,-6.7118673,4.7688956,-0.92071784,0.3614489,-0.31871,10.337054231995381,1.0392029221652912,jump
10/07/2020, 09:36:05,6.250053,-6.7118673,4.7688956,-0.86576784,0.37854445,-0.3260367,10.337054231995381,0.9995747954164059,jump
10/07/2020, 09:36:05,6.195018,-6.5922265,4.6301117,-0.86576784,0.37854445,-0.3260367,10.162363422088228,0.9995747954164059,jump
10/07/2020, 09:36:05,6.195018,-6.5922265,4.6301117,-0.8413456,0.39075556,-0.31382558,10.162363422088228,0.9793052825160733,jump
10/07/2020, 09:36:05,6.175875,-6.5252275,4.56072,-0.8413456,0.39075556,-0.31382558,10.075723074643214,0.9793052825160733,jump
10/07/2020, 09:36:05,6.175875,-6.5252275,4.56072,-0.8083756,0.41395667,-0.29917222,10.075723074643214,0.9562087904133947,jump
10/07/2020, 09:36:05,6.135197,-6.570691,4.4674,-0.8083756,0.41395667,-0.29917222,10.038540197236774,0.9562087904133947,jump
10/07/2020, 09:36:05,6.135197,-6.570691,4.4674,-0.7863956,0.42250445,-0.27841336,10.038540197236774,0.9351160704730006,jump
10/07/2020, 09:36:05,6.099305,-6.647261,4.3501515,-0.7863956,0.42250445,-0.27841336,10.015559018782465,0.9351160704730006,jump
10/07/2020, 09:36:05,6.099305,-6.647261,4.3501515,-0.7949434,0.42250445,-0.25521225,10.015559018782465,0.9357234113251934,jump
10/07/2020, 09:36:05,5.9964137,-6.7405815,4.2352962,-0.7949434,0.42250445,-0.25521225,9.966451264135225,0.9357234113251934,jump
10/07/2020, 09:36:05,5.9964137,-6.7405815,4.2352962,-0.8437878,0.4249467,-0.22590557,9.966451264135225,0.9713860473085509,jump
10/07/2020, 09:36:05,5.898308,-6.8051877,4.1754756,-0.8437878,0.4249467,-0.22590557,9.92649036836352,0.9713860473085509,jump
10/07/2020, 09:36:05,5.898308,-6.8051877,4.1754756,-0.91094893,0.42983112,-0.18805112,9.92649036836352,1.0246687123292688,jump
10/07/2020, 09:36:05,5.8241305,-6.8721867,4.15394,-0.91094893,0.42983112,-0.18805112,9.919811751362612,1.0246687123292688,jump
10/07/2020, 09:36:05,5.8241305,-6.8721867,4.15394,-0.9524667,0.42861003,-0.15508112,9.919811751362612,1.0559117266918796,jump
10/07/2020, 09:36:05,5.8193445,-6.9009004,4.1347976,-0.9524667,0.42861003,-0.15508112,9.928934859907319,1.0559117266918796,jump
10/07/2020, 09:36:05,5.8193445,-6.9009004,4.1347976,-0.96956223,0.4249467,-0.12089001,9.928934859907319,1.0654787705088271,jump
10/07/2020, 09:36:05,5.838487,-6.910472,4.1204405,-0.96956223,0.4249467,-0.12089001,9.940854292261468,1.0654787705088271,jump
10/07/2020, 09:36:05,5.838487,-6.910472,4.1204405,-0.97566783,0.41762,-0.09402556,9.940854292261468,1.0654459140782313,jump
10/07/2020, 09:36:06,7.487142,-7.1306114,2.7421749,0.6325356,-0.41151446,5.6207747,10.696842469559252,5.671203942039015,jump
10/07/2020, 09:36:06,6.7334027,-6.422336,2.7684958,0.6325356,-0.41151446,5.6207747,9.70822755690076,5.671203942039015,jump
10/07/2020, 09:36:06,6.7334027,-6.422336,2.7684958,0.8779789,-0.37976557,5.477905,9.70822755690076,5.560801186385626,jump
10/07/2020, 09:36:06,5.9270215,-5.812166,2.7062824,0.8779789,-0.37976557,5.477905,8.731255597378606,5.560801186385626,jump
10/07/2020, 09:36:06,5.9270215,-5.812166,2.7062824,1.0635878,-0.3724389,5.327708,8.731255597378606,5.445585347008555,jump
10/07/2020, 09:36:06,5.1349974,-4.9531426,2.5866413,1.0635878,-0.3724389,5.327708,7.588974455398095,5.445585347008555,jump
10/07/2020, 09:36:06,5.1349974,-4.9531426,2.5866413,1.1002212,-0.39564002,5.1469836,7.588974455398095,5.278111218707292,jump
10/07/2020, 09:36:06,4.2831526,-4.058227,2.3042881,1.1002212,-0.39564002,5.1469836,6.334378168963817,5.278111218707292,jump
10/07/2020, 09:36:06,4.2831526,-4.058227,2.3042881,0.9292656,-0.37854445,4.976028,6.334378168963817,5.0761880189539,jump
10/07/2020, 09:36:06,3.603591,-3.3020952,2.184647,0.9292656,-0.37854445,4.976028,5.353726110555618,5.0761880189539,jump
10/07/2020, 09:36:06,3.603591,-3.3020952,2.184647,0.6520734,-0.26498112,4.790419,5.353726110555618,4.841851904149846,jump
10/07/2020, 09:36:06,3.0867412,-2.4023938,2.2444677,0.6520734,-0.26498112,4.790419,4.509667699795295,4.841851904149846,jump
10/07/2020, 09:36:06,3.0867412,-2.4023938,2.2444677,0.45425335,-0.14653334,4.518111,4.509667699795295,4.543252931435739,jump
10/07/2020, 09:36:06,2.455036,-1.5002998,2.3353949,0.45425335,-0.14653334,4.518111,3.705694275772445,4.543252931435739,jump
10/07/2020, 09:36:06,2.455036,-1.5002998,2.3353949,0.3712178,-0.09646778,4.1713157,3.705694275772445,4.188911922765988,jump
10/07/2020, 09:36:06,1.6941184,-0.91405827,2.3545375,0.3712178,-0.09646778,4.1713157,3.0412803853908223,4.188911922765988,jump
10/07/2020, 09:36:06,1.6941184,-0.91405827,2.3545375,0.3260367,-0.09280445,3.8379524,3.0412803853908223,3.852893850807689,jump
10/07/2020, 09:36:06,0.8111669,-0.55752766,2.4215364,0.3260367,-0.09280445,3.8379524,2.613937176346176,3.852893850807689,jump
10/07/2020, 09:36:06,0.8111669,-0.55752766,2.4215364,0.28818223,-0.098910004,3.5509913,2.613937176346176,3.564038632730186,jump
10/07/2020, 09:36:06,-0.047856454,-0.27756742,2.4646072,0.28818223,-0.098910004,3.5509913,2.4806496633401163,3.564038632730186,jump
10/07/2020, 09:36:07,8.752945,-2.7421749,4.6372905,-1.6130879,0.09036223,2.317669,10.278036349009643,2.8252092099474946,jump
10/07/2020, 09:36:07,8.626125,-3.0747771,4.723432,-1.6130879,0.09036223,2.317669,10.304130392582383,2.8252092099474946,jump
10/07/2020, 09:36:07,8.626125,-3.0747771,4.723432,-1.46167,0.018316668,2.2822568,10.304130392582383,2.7102603381620827,jump
10/07/2020, 09:36:07,8.496913,-3.3140593,4.800002,-1.46167,0.018316668,2.2822568,10.306334881506501,2.7102603381620827,jump
10/07/2020, 09:36:07,8.496913,-3.3140593,4.800002,-1.2467545,-0.05372889,2.2260857,10.306334881506501,2.552007253657353,jump
10/07/2020, 09:36:07,8.350951,-3.438486,4.895715,-1.2467545,-0.05372889,2.2260857,10.272760105760641,2.552007253657353,jump
10/07/2020, 09:36:07,8.350951,-3.438486,4.895715,-1.00009,-0.11966889,2.1479344,10.272760105760641,2.3723665406058725,jump
10/07/2020, 09:36:07,8.128419,-3.4049866,5.022535,-1.00009,-0.11966889,2.1479344,10.143519327747937,2.3723665406058725,jump
10/07/2020, 09:36:07,8.128419,-3.4049866,5.022535,-0.7485411,-0.17828223,2.05513,10.143519327747937,2.194460684155697,jump
10/07/2020, 09:36:07,7.9274216,-3.2303107,5.1469617,-0.7485411,-0.17828223,2.05513,9.988500110287603,2.194460684155697,jump
10/07/2020, 09:36:07,7.9274216,-3.2303107,5.1469617,-0.53973114,-0.22102112,1.9513357,9.988500110287603,2.036632252963367,jump
10/07/2020, 09:36:07,7.719246,-3.010171,5.2833524,-0.53973114,-0.22102112,1.9513357,9.826581237398933,2.036632252963367,jump
10/07/2020, 09:36:07,7.719246,-3.010171,5.2833524,-0.37610224,-0.24300112,1.8426567,9.826581237398933,1.8962822227000056,jump
10/07/2020, 09:36:07,7.537391,-2.78046,5.3383875,-0.37610224,-0.24300112,1.8426567,9.645807587869191,1.8962822227000056,jump
10/07/2020, 09:36:07,7.537391,-2.78046,5.3383875,-0.25399113,-0.24910668,1.73642,9.645807587869191,1.7724898215593279,jump
10/07/2020, 09:36:07,7.3579297,-2.6249263,5.3742795,-0.25399113,-0.24910668,1.73642,9.48220691251334,1.7724898215593279,jump
10/07/2020, 09:36:07,7.3579297,-2.6249263,5.3742795,-0.16240779,-0.24055889,1.6277412,9.48220691251334,1.6534165661179612,jump
10/07/2020, 09:36:07,7.123433,-2.457429,5.4029937,-0.16240779,-0.24055889,1.6277412,9.272248754717767,1.6534165661179612,jump
10/07/2020, 09:36:07,7.123433,-2.457429,5.4029937,-0.078151114,-0.2515489,1.5105145,9.272248754717767,1.533309651308657,jump
10/07/2020, 09:36:07,6.920043,-2.3353949,5.424529,-0.078151114,-0.2515489,1.5105145,9.097613964513188,1.533309651308657,jump
10/07/2020, 09:36:08,9.255438,-11.531013,6.0418773,-2.1564822,0.46524334,4.63778,15.972841351494745,5.135744543403632,jump
10/07/2020, 09:36:08,9.255438,-11.531013,6.0418773,-1.614309,0.3602278,4.724479,15.972841351494745,5.005642931380145,jump
10/07/2020, 09:36:08,9.071191,-11.602797,5.771488,-1.614309,0.3602278,4.724479,15.81839015064807,5.005642931380145,jump
10/07/2020, 09:36:08,9.071191,-11.602797,5.771488,-1.1979101,0.28574002,4.836821,15.81839015064807,4.9911395539850005,jump
10/07/2020, 09:36:08,8.963513,-11.310873,5.410172,-1.1979101,0.28574002,4.836821,15.412669517743044,4.9911395539850005,jump
10/07/2020, 09:36:08,8.963513,-11.310873,5.410172,-0.9744467,0.22712667,4.913751,15.412669517743044,5.014587026420234,jump
10/07/2020, 09:36:08,8.930014,-10.875379,5.0512486,-0.9744467,0.22712667,4.913751,14.951057344150286,5.014587026420234,jump
10/07/2020, 09:36:08,8.930014,-10.875379,5.0512486,-0.9854367,0.2185789,4.9687014,14.951057344150286,5.070192838016041,jump
10/07/2020, 09:36:08,8.932407,-10.547563,4.5942197,-0.9854367,0.2185789,4.9687014,14.565226839330027,5.070192838016041,jump
10/07/2020, 09:36:08,8.932407,-10.547563,4.5942197,-1.1563922,0.2625389,5.030978,14.565226839330027,5.168840422693444,jump
10/07/2020, 09:36:08,8.898908,-10.188639,4.24726,-1.1563922,0.2625389,5.030978,14.178791703357584,5.168840422693444,jump
10/07/2020, 09:36:08,8.898908,-10.188639,4.24726,-1.3420012,0.32725778,5.062727,14.178791703357584,5.247787085456264,jump
10/07/2020, 09:36:08,8.702696,-10.021141,3.9338005,-1.3420012,0.32725778,5.062727,13.843228273679827,5.247787085456264,jump
10/07/2020, 09:36:08,8.702696,-10.021141,3.9338005,-1.3908457,0.3504589,5.0566216,13.843228273679827,5.256110214680171,jump
10/07/2020, 09:36:08,8.315059,-10.006784,3.76391,-1.3908457,0.3504589,5.0566216,13.54411145237487,5.256110214680171,jump
10/07/2020, 09:36:08,8.315059,-10.006784,3.76391,-1.2736189,0.3052778,5.039526,13.54411145237487,5.206930178916385,jump
10/07/2020, 09:36:08,7.6594253,-10.114461,3.6681972,-1.2736189,0.3052778,5.039526,13.206997610022022,5.206930178916385,jump
10/07/2020, 09:36:08,7.6594253,-10.114461,3.6681972,-1.0379444,0.2075889,5.0590634,13.206997610022022,5.168611480610404,jump
10/07/2020, 09:36:08,6.975078,-10.150353,3.4983068,-1.0379444,0.2075889,5.0590634,12.803106634644692,5.168611480610404,jump
10/07/2020, 09:36:08,6.975078,-10.150353,3.4983068,-0.78029,0.08425667,5.106687,12.803106634644692,5.166643446444497,jump
10/07/2020, 09:36:09,8.283952,-2.498107,5.5226345,-2.229749,1.7938123,0.39197668,10.26469127672247,2.888457831196394,jump
10/07/2020, 09:36:09,8.386844,-2.7637103,5.54417,-2.229749,1.7938123,0.39197668,10.426651487878468,2.888457831196394,jump
10/07/2020, 09:36:09,8.386844,-2.7637103,5.54417,-2.273709,1.8377723,0.45547447,10.426651487878468,2.95882015618817,jump
10/07/2020, 09:36:09,8.441878,-2.9838498,5.692525,-2.273709,1.8377723,0.45547447,10.610066390612873,2.95882015618817,jump
10/07/2020, 09:36:09,8.441878,-2.9838498,5.692525,-2.3433123,1.856089,0.5482789,10.610066390612873,3.039208533107799,jump
10/07/2020, 09:36:09,8.487342,-3.225525,5.895915,-2.3433123,1.856089,0.5482789,10.825931699168992,3.039208533107799,jump
10/07/2020, 09:36:09,8.487342,-3.225525,5.895915,-2.38483,1.8951645,0.6777167,10.825931699168992,3.120634943518705,jump
10/07/2020, 09:36:09,8.609376,-3.4839497,6.2285175,-2.38483,1.8951645,0.6777167,11.182740728669241,3.120634943518705,jump
10/07/2020, 09:36:09,8.609376,-3.4839497,6.2285175,-2.4239056,1.9208078,0.81326,11.182740728669241,3.197845059044439,jump
10/07/2020, 09:36:09,8.693125,-3.6849468,6.4366927,-2.4239056,1.9208078,0.81326,11.427172184201376,3.197845059044439,jump
10/07/2020, 09:36:09,8.693125,-3.6849468,6.4366927,-2.3970413,1.8792901,0.9536878,11.427172184201376,3.19171721546082,jump
10/07/2020, 09:36:09,8.836694,-3.7950168,6.5754766,-2.3970413,1.8792901,0.9536878,11.650158885302725,3.19171721546082,jump
10/07/2020, 09:36:09,8.836694,-3.7950168,6.5754766,-2.2651613,1.7962545,1.0843467,11.650158885302725,3.0876032051460847,jump
10/07/2020, 09:36:09,9.0544405,-3.7591243,6.587441,-2.2651613,1.7962545,1.0843467,11.811362604899463,3.0876032051460847,jump
10/07/2020, 09:36:09,9.0544405,-3.7591243,6.587441,-2.0905423,1.6973445,1.185699,11.811362604899463,2.9423167326223614,jump
10/07/2020, 09:36:09,9.238688,-3.6131623,6.5491557,-2.0905423,1.6973445,1.185699,11.886957004339383,2.9423167326223614,jump
10/07/2020, 09:36:09,9.238688,-3.6131623,6.5491557,-1.9244711,1.5996556,1.2577446,11.886957004339383,2.80078714864447,jump
10/07/2020, 09:36:09,9.454042,-3.4169507,6.4175506,-1.9244711,1.5996556,1.2577446,11.926417135942772,2.80078714864447,jump
10/07/2020, 09:36:09,9.454042,-3.4169507,6.4175506,-1.7840434,1.5178412,1.3126945,11.926417135942772,2.6851107824408813,jump
10/07/2020, 09:36:09,9.614362,-3.1369905,6.2715883,-1.7840434,1.5178412,1.3126945,11.899978232227891,2.6851107824408813,jump
10/07/2020, 09:36:10,8.985049,-11.3683,5.6781683,-1.9867479,1.3920667,4.5755033,15.563128221481172,5.1788268659329795,jump
10/07/2020, 09:36:10,8.760123,-11.3683,5.4628143,-1.9867479,1.3920667,4.5755033,15.356443425090438,5.1788268659329795,jump
10/07/2020, 09:36:10,8.760123,-11.3683,5.4628143,-1.7730534,1.2687345,4.6487703,15.356443425090438,5.1346344667208825,jump
10/07/2020, 09:36:10,8.5112705,-11.471191,5.2689953,-1.7730534,1.2687345,4.6487703,15.224725597180347,5.1346344667208825,jump
10/07/2020, 09:36:10,8.5112705,-11.471191,5.2689953,-1.6997868,1.1429601,4.798967,15.224725597180347,5.217826749707518,jump
10/07/2020, 09:36:10,8.422736,-11.602797,5.13739,-1.6997868,1.1429601,4.798967,15.230238010539141,5.217826749707518,jump
10/07/2020, 09:36:10,8.422736,-11.602797,5.13739,-1.7742745,1.0452712,4.9943447,15.230238010539141,5.402232943776536,jump
10/07/2020, 09:36:10,8.535198,-11.68176,4.9866424,-1.7742745,1.0452712,4.9943447,15.302931855429359,5.402232943776536,jump
10/07/2020, 09:36:10,8.535198,-11.68176,4.9866424,-1.9720945,0.9683412,5.1933856,15.302931855429359,5.638980003888907,jump
10/07/2020, 09:36:10,8.666803,-11.609976,4.761717,-1.9720945,0.9683412,5.1933856,15.25053986555666,5.638980003888907,jump
10/07/2020, 09:36:10,8.666803,-11.609976,4.761717,-2.196779,0.95613,5.3472457,15.25053986555666,5.8594418816193965,jump
10/07/2020, 09:36:10,8.839087,-11.531013,4.5942197,-2.196779,0.95613,5.3472457,15.23812834063159,5.8594418816193965,jump
10/07/2020, 09:36:10,8.839087,-11.531013,4.5942197,-2.3115635,0.9964267,5.430281,15.23812834063159,5.98532751397043,jump
10/07/2020, 09:36:10,8.781659,-11.9019,4.3932223,-2.3115635,0.9964267,5.430281,15.429619892143979,5.98532751397043,jump
10/07/2020, 09:36:10,8.781659,-11.9019,4.3932223,-2.1906734,0.9976478,5.4876738,15.429619892143979,5.992404709201619,jump
10/07/2020, 09:36:10,8.386844,-12.612568,4.0965123,-2.1906734,0.9976478,5.4876738,15.690679691352829,5.992404709201619,jump
10/07/2020, 09:36:10,8.386844,-12.612568,4.0965123,-1.7852645,0.8743156,5.592689,15.690679691352829,5.935466938427037,jump
10/07/2020, 09:36:10,7.6737823,-13.677374,3.522235,-1.7852645,0.8743156,5.592689,16.07369374981736,5.935466938427037,jump
10/07/2020, 09:36:10,7.6737823,-13.677374,3.522235,-1.240649,0.6447467,5.7966146,16.07369374981736,5.962855826071664,jump
10/07/2020, 09:36:10,7.0492554,-14.529219,2.8833513,-1.240649,0.6447467,5.7966146,16.404386956675463,5.962855826071664,jump
10/07/2020, 09:36:11,8.331808,-3.5246277,5.639883,-2.81344,1.3981723,0.2869611,10.660689803867202,3.1547864354587185,jump
10/07/2020, 09:36:11,8.331808,-3.5246277,5.639883,-2.7633746,1.4128256,0.42006224,10.660689803867202,3.131895179993922,jump
10/07/2020, 09:36:11,8.41795,-3.7088752,5.393422,-2.7633746,1.4128256,0.42006224,10.663331284800648,3.131895179993922,jump
10/07/2020, 09:36:11,8.41795,-3.7088752,5.393422,-2.7108667,1.4189311,0.5641534,10.663331284800648,3.1113393867892363,jump
10/07/2020, 09:36:11,8.365308,-3.8333018,5.2235317,-2.7108667,1.4189311,0.5641534,10.581014173473863,3.1113393867892363,jump
10/07/2020, 09:36:11,8.365308,-3.8333018,5.2235317,-2.6156201,1.4091623,0.70946556,10.581014173473863,3.054594641255993,jump
10/07/2020, 09:36:11,8.240881,-3.9338005,5.221139,-2.6156201,1.4091623,0.70946556,10.518897144094282,3.054594641255993,jump
10/07/2020, 09:36:11,8.240881,-3.9338005,5.221139,-2.469087,1.3908457,0.8523356,10.518897144094282,2.959276535833627,jump
10/07/2020, 09:36:11,8.080562,-4.0534415,5.328816,-2.469087,1.3908457,0.8523356,10.49390984652594,2.959276535833627,jump
10/07/2020, 09:36:11,8.080562,-4.0534415,5.328816,-2.2724879,1.339559,0.9964267,10.49390984652594,2.819837856242849,jump
10/07/2020, 09:36:11,8.02792,-4.1850467,5.4388857,-2.2724879,1.339559,0.9964267,10.561419838801793,2.819837856242849,jump
10/07/2020, 09:36:11,8.02792,-4.1850467,5.4388857,-2.019718,1.2479756,1.1380756,10.561419838801793,2.6328538965421027,jump
10/07/2020, 09:36:11,8.068598,-4.26401,5.5202417,-2.019718,1.2479756,1.1380756,10.665698292606457,2.6328538965421027,jump
10/07/2020, 09:36:11,8.068598,-4.26401,5.5202417,-1.7107767,1.130749,1.2760612,10.665698292606457,2.4153016937416485,jump
10/07/2020, 09:36:11,8.271988,-4.213761,5.556134,-1.7107767,1.130749,1.2760612,10.819066138335263,2.4153016937416485,jump
10/07/2020, 09:36:11,8.271988,-4.213761,5.556134,-1.3884034,1.0147433,1.3884034,10.819066138335263,2.2102108748387943,jump
10/07/2020, 09:36:11,8.477771,-4.0103707,5.5872407,-1.3884034,1.0147433,1.3884034,10.916635462706074,2.2102108748387943,jump
10/07/2020, 09:36:11,8.477771,-4.0103707,5.5872407,-1.1026634,0.9097278,1.4726601,10.916635462706074,2.0523642285336328,jump
10/07/2020, 09:36:11,8.642876,-3.749553,5.582455,-1.1026634,0.9097278,1.4726601,10.950901921910786,2.0523642285336328,jump
10/07/2020, 09:36:11,8.642876,-3.749553,5.582455,-0.88286334,0.8315767,1.5398211,10.950901921910786,1.9601062894226382,jump
10/07/2020, 09:36:12,8.082955,-6.1830535,8.298309,-1.7754956,1.2736189,2.4031467,13.131117832642177,3.248015434854703,jump
10/07/2020, 09:36:12,8.013563,-6.4773707,8.46102,-1.7754956,1.2736189,2.4031467,13.33275641176967,3.248015434854703,jump
10/07/2020, 09:36:12,8.013563,-6.4773707,8.46102,-1.7522945,1.3126945,2.5313635,13.33275641176967,3.3468648376249734,jump
10/07/2020, 09:36:12,7.9154572,-6.707082,8.508878,-1.7522945,1.3126945,2.5313635,13.417913783194228,3.3468648376249734,jump
10/07/2020, 09:36:12,7.9154572,-6.707082,8.508878,-1.8182346,1.3420012,2.6644645,13.417913783194228,3.493753723064113,jump
10/07/2020, 09:36:12,7.9130645,-6.8817577,8.554341,-1.8182346,1.3420012,2.6644645,13.533363748757656,3.493753723064113,jump
10/07/2020, 09:36:12,7.9130645,-6.8817577,8.554341,-1.9134812,1.3932878,2.7865756,13.533363748757656,3.656181696642521,jump
10/07/2020, 09:36:12,7.932207,-7.051648,8.568698,-1.9134812,1.3932878,2.7865756,13.640683094760426,3.656181696642521,jump
10/07/2020, 09:36:12,7.932207,-7.051648,8.568698,-1.9952956,1.46167,2.8903701,13.640683094760426,3.8041981424089975,jump
10/07/2020, 09:36:12,7.958528,-7.2789664,8.575876,-1.9952956,1.46167,2.8903701,13.779229806142423,3.8041981424089975,jump
10/07/2020, 09:36:12,7.958528,-7.2789664,8.575876,-2.0136123,1.5386001,2.999049,13.779229806142423,3.926349347393705,jump
10/07/2020, 09:36:12,7.9274216,-7.838887,8.618947,-2.0136123,1.5386001,2.999049,14.091785316295216,3.926349347393705,jump
10/07/2020, 09:36:12,7.9274216,-7.838887,8.618947,-1.9342401,1.5862234,3.1394768,14.091785316295216,4.01418780864559,jump
10/07/2020, 09:36:12,7.8556366,-8.554341,8.484949,-1.9342401,1.5862234,3.1394768,14.38339817726399,4.01418780864559,jump
10/07/2020, 09:36:12,7.8556366,-8.554341,8.484949,-1.7486312,1.5727912,3.2811258,14.38339817726399,4.036975332782615,jump
10/07/2020, 09:36:12,7.735996,-9.119047,8.396415,-1.7486312,1.5727912,3.2811258,14.611722434726893,4.036975332782615,jump
10/07/2020, 09:36:12,7.735996,-9.119047,8.396415,-1.5007457,1.5300523,3.4007945,14.611722434726893,4.019788656714456,jump
10/07/2020, 09:36:12,7.661818,-9.489935,8.415557,-1.5007457,1.5300523,3.4007945,14.818364226940364,4.019788656714456,jump
10/07/2020, 09:36:12,7.661818,-9.489935,8.415557,-1.28583,1.4860923,3.5094736,14.818364226940364,4.022217539755011,jump
10/07/2020, 09:36:12,7.597212,-9.552148,8.389236,-1.28583,1.4860923,3.5094736,14.81014668278758,4.022217539755011,jump
10/07/2020, 09:36:13,12.949956,-1.7730815,12.57189,2.975848,-2.2004423,-2.4104733,18.13553396217009,4.416786072616954,jump
10/07/2020, 09:36:13,12.949956,-1.7730815,12.57189,2.5557857,-1.8524256,-2.2004423,18.13553396217009,3.8477873133849148,jump
10/07/2020, 09:36:13,12.713067,-0.6149554,12.921243,2.5557857,-1.8524256,-2.2004423,18.137220222124323,3.8477873133849148,jump
10/07/2020, 09:36:13,12.713067,-0.6149554,12.921243,2.0636778,-1.4592278,-1.9757578,18.137220222124323,3.2080727574020096,jump
10/07/2020, 09:36:13,12.12204,0.33738798,13.057633,2.0636778,-1.4592278,-1.9757578,17.82019835596403,3.2080727574020096,jump
10/07/2020, 09:36:13,12.12204,0.33738798,13.057633,1.4775445,-1.1087689,-1.8072445,17.82019835596403,2.5843063426624298,jump
10/07/2020, 09:36:13,11.442478,1.1006985,13.043276,1.4775445,-1.1087689,-1.8072445,17.385881872414068,2.5843063426624298,jump
10/07/2020, 09:36:13,11.442478,1.1006985,13.043276,0.89019006,-0.78029,-1.7339778,17.385881872414068,2.09951657291283,jump
10/07/2020, 09:36:13,10.80838,1.6965113,12.897314,0.89019006,-0.78029,-1.7339778,16.912715385655034,2.09951657291283,jump
10/07/2020, 09:36:13,10.80838,1.6965113,12.897314,0.36633334,-0.45181113,-1.6887968,16.912715385655034,1.7861601009918768,jump
10/07/2020, 09:36:13,10.27478,2.0554347,12.586247,0.36633334,-0.45181113,-1.6887968,16.377104329354445,1.7861601009918768,jump
10/07/2020, 09:36:13,10.27478,2.0554347,12.586247,-0.102573335,-0.17828223,-1.6448368,16.377104329354445,1.6576470936441836,jump
10/07/2020, 09:36:13,9.827323,2.2444677,12.141182,-0.102573335,-0.17828223,-1.6448368,15.78043760527492,1.6576470936441836,jump
10/07/2020, 09:36:13,9.827323,2.2444677,12.141182,-0.54339445,0.06594,-1.6289623,15.78043760527492,1.7184713300791636,jump
10/07/2020, 09:36:13,9.492328,2.2325034,11.748759,-0.54339445,0.06594,-1.6289623,15.268323445899783,1.7184713300791636,jump
10/07/2020, 09:36:13,9.492328,2.2325034,11.748759,-0.9378134,0.3382478,-1.6094245,15.268323445899783,1.8931858557124466,jump
10/07/2020, 09:36:13,9.131011,1.8735801,11.4018,-0.9378134,0.3382478,-1.6094245,14.727074089029552,1.8931858557124466,jump
10/07/2020, 09:36:13,9.131011,1.8735801,11.4018,-1.350549,0.64108336,-1.5447056,14.727074089029552,2.149671116684138,jump
10/07/2020, 09:36:13,8.729017,1.2777673,10.939985,-1.350549,0.64108336,-1.5447056,14.053885917519308,2.149671116684138,jump
10/07/2020, 09:36:13,8.729017,1.2777673,10.939985,-1.8267823,0.8327978,-1.460449,14.053885917519308,2.4826592961700764,jump
10/07/2020, 09:36:14,8.315059,-1.9142581,7.692925,-0.6459678,0.13676445,-0.97078335,11.488502085639249,1.1740524725325474,jump
10/07/2020, 09:36:14,8.315059,-1.9142581,7.692925,-0.7204556,0.23933779,-0.89385337,11.488502085639249,1.172737255139228,jump
10/07/2020, 09:36:14,8.348558,-2.199004,7.597212,-0.7204556,0.23933779,-0.89385337,11.50007277386464,1.172737255139228,jump
10/07/2020, 09:36:14,8.348558,-2.199004,7.597212,-0.7546467,0.31993112,-0.80104893,11.50007277386464,1.146092049743327,jump
10/07/2020, 09:36:14,8.29113,-2.4430718,7.4344997,-0.7546467,0.31993112,-0.80104893,11.401018559281374,1.146092049743327,jump
10/07/2020, 09:36:14,8.29113,-2.4430718,7.4344997,-0.74976224,0.38220778,-0.7009178,11.401018559281374,1.0952223221494706,jump
10/07/2020, 09:36:14,8.240881,-2.5842485,7.2622166,-0.74976224,0.38220778,-0.7009178,11.284070591332698,1.0952223221494706,jump
10/07/2020, 09:36:14,8.240881,-2.5842485,7.2622166,-0.71435004,0.43105224,-0.5922389,11.284070591332698,1.0231563596787923,jump
10/07/2020, 09:36:14,8.248059,-2.7014968,7.1186476,-0.71435004,0.43105224,-0.5922389,11.225137426484299,1.0231563596787923,jump
10/07/2020, 09:36:14,8.248059,-2.7014968,7.1186476,-0.6764956,0.47379112,-0.47379112,11.225137426484299,0.9521566929895974,jump
10/07/2020, 09:36:14,8.269595,-2.7828526,6.9702926,-0.6764956,0.47379112,-0.47379112,11.167607229751093,0.9521566929895974,jump
10/07/2020, 09:36:14,8.269595,-2.7828526,6.9702926,-0.63742,0.5104245,-0.34801668,11.167607229751093,0.88766718344744,jump
10/07/2020, 09:36:14,8.303095,-2.8378878,6.800402,-0.63742,0.5104245,-0.34801668,11.101372026830536,0.88766718344744,jump
10/07/2020, 09:36:14,8.303095,-2.8378878,6.800402,-0.61666113,0.54095227,-0.21247335,11.101372026830536,0.8473754939625112,jump
10/07/2020, 09:36:14,8.271988,-2.8642087,6.707082,-0.61666113,0.54095227,-0.21247335,11.027892896429924,0.8473754939625112,jump
10/07/2020, 09:36:14,8.271988,-2.8642087,6.707082,-0.61299783,0.5800278,-0.07570889,11.027892896429924,0.8473077632804852,jump
10/07/2020, 09:36:14,8.2456665,-2.8953154,6.6424756,-0.61299783,0.5800278,-0.07570889,10.977082926383577,0.8473077632804852,jump
10/07/2020, 09:36:14,8.2456665,-2.8953154,6.6424756,-0.6435256,0.6191034,0.06716111,10.977082926383577,0.8955025398387146,jump
10/07/2020, 09:36:14,8.2049885,-2.9240294,6.613762,-0.6435256,0.6191034,0.06716111,10.936801638794629,0.8955025398387146,jump
10/07/2020, 09:36:14,8.2049885,-2.9240294,6.613762,-0.70580226,0.6520734,0.21735778,10.936801638794629,0.9851908122488443,jump
10/07/2020, 09:36:15,8.786445,-1.5768701,5.534599,2.6217256,-3.899008,-4.9784703,10.503328675929778,6.845500372629364,jump
10/07/2020, 09:36:15,8.786445,-1.5768701,5.534599,2.20899,-3.877028,-4.8783393,10.503328675929778,6.6112916670150215,jump
10/07/2020, 09:36:15,10.485349,-1.6582261,6.233303,2.20899,-3.877028,-4.8783393,12.310415040161756,6.6112916670150215,jump
10/07/2020, 09:36:15,10.485349,-1.6582261,6.233303,1.976979,-3.7598011,-4.776987,12.310415040161756,6.3925078208698825,jump
10/07/2020, 09:36:15,11.937792,-2.4215364,6.879365,1.976979,-3.7598011,-4.776987,13.989295005564193,6.3925078208698825,jump
10/07/2020, 09:36:15,11.937792,-2.4215364,6.879365,1.8756268,-3.7427058,-4.6780767,13.989295005564193,6.277756350441725,jump
10/07/2020, 09:36:15,12.803994,-3.249453,7.460821,1.8756268,-3.7427058,-4.6780767,15.171191925088843,6.277756350441725,jump
10/07/2020, 09:36:15,12.803994,-3.249453,7.460821,1.8805112,-3.9148824,-4.6499915,15.171191925088843,6.362786156944021,jump
10/07/2020, 09:36:15,13.19881,-3.5772698,7.960921,1.8805112,-3.9148824,-4.6499915,15.823453946788126,6.362786156944021,jump
10/07/2020, 09:36:15,13.19881,-3.5772698,7.960921,1.9452301,-4.18719,-4.708605,15.823453946788126,6.59450074606206,jump
10/07/2020, 09:36:15,13.244273,-3.306881,8.518449,1.9452301,-4.18719,-4.708605,16.090686881088555,6.59450074606206,jump
10/07/2020, 09:36:15,13.244273,-3.306881,8.518449,1.9916323,-4.306859,-4.8014092,16.090686881088555,6.750493664013225,jump
10/07/2020, 09:36:15,13.505091,-2.7565317,9.255438,1.9916323,-4.306859,-4.8014092,16.60268267752823,6.750493664013225,jump
10/07/2020, 09:36:15,13.505091,-2.7565317,9.255438,1.9586623,-4.23115,-4.851475,16.60268267752823,6.728729215396831,jump
10/07/2020, 09:36:15,13.976477,-2.3712873,9.836894,1.9586623,-4.23115,-4.851475,17.25483665605283,6.728729215396831,jump
10/07/2020, 09:36:15,13.976477,-2.3712873,9.836894,1.8597523,-4.078511,-4.812399,17.25483665605283,6.576634078385426,jump
10/07/2020, 09:36:15,14.68236,-2.2492533,10.403993,1.8597523,-4.078511,-4.812399,18.13488046924274,6.576634078385426,jump
10/07/2020, 09:36:15,14.68236,-2.2492533,10.403993,1.8048023,-3.8965657,-4.698836,18.13488046924274,6.365500274539654,jump
10/07/2020, 09:36:15,15.476777,-2.4717858,10.951949,1.8048023,-3.8965657,-4.698836,19.120291398432247,6.365500274539654,jump
10/07/2020, 09:36:15,15.476777,-2.4717858,10.951949,1.8243401,-3.6853135,-4.513227,19.120291398432247,6.105650658822745,jump
10/07/2020, 09:36:16,7.946564,-2.2779672,6.2955165,0.15874445,-0.26620224,-1.5215045,10.390887597505849,1.552752215763118,jump
10/07/2020, 09:36:16,7.946564,-2.2779672,6.2955165,0.18805112,-0.27963445,-1.4909767,10.390887597505849,1.5285843583856027,jump
10/07/2020, 09:36:16,7.9346,-2.306681,6.2979093,0.18805112,-0.27963445,-1.4909767,10.38952901240083,1.5285843583856027,jump
10/07/2020, 09:36:16,7.9346,-2.306681,6.2979093,0.21491556,-0.29062447,-1.4567856,10.38952901240083,1.500958176122717,jump
10/07/2020, 09:36:16,7.925029,-2.3545375,6.2979093,0.21491556,-0.29062447,-1.4567856,10.392958641242165,1.500958176122717,jump
10/07/2020, 09:36:16,7.925029,-2.3545375,6.2979093,0.24422224,-0.30283555,-1.416489,10.392958641242165,1.4689434897537905,jump
10/07/2020, 09:36:16,7.8987074,-2.3665016,6.2955165,0.24422224,-0.30283555,-1.416489,10.374171581261294,1.4689434897537905,jump
10/07/2020, 09:36:16,7.8987074,-2.3665016,6.2955165,0.26986557,-0.31016225,-1.3786345,10.374171581261294,1.4386316417629976,jump
10/07/2020, 09:36:16,7.9154572,-2.400001,6.343373,0.26986557,-0.31016225,-1.3786345,10.423667648560917,1.4386316417629976,jump
10/07/2020, 09:36:16,7.9154572,-2.400001,6.343373,0.29062447,-0.31504667,-1.3383378,10.423667648560917,1.4052988992216136,jump
10/07/2020, 09:36:16,7.987242,-2.4239295,6.3792653,0.29062447,-0.31504667,-1.3383378,10.50554606755592,1.4052988992216136,jump
10/07/2020, 09:36:16,7.987242,-2.4239295,6.3792653,0.30283555,-0.31993112,-1.2943778,10.50554606755592,1.3672889939632553,jump
10/07/2020, 09:36:16,8.035098,-2.4119651,6.4271216,0.30283555,-0.31993112,-1.2943778,10.568267097843366,1.3672889939632553,jump
10/07/2020, 09:36:16,8.035098,-2.4119651,6.4271216,0.29673,-0.31138334,-1.2430911,10.568267097843366,1.3154025167673038,jump
10/07/2020, 09:36:16,8.054241,-2.4311078,6.465407,0.29673,-0.31138334,-1.2430911,10.610493496740874,1.3154025167673038,jump
10/07/2020, 09:36:16,8.054241,-2.4311078,6.465407,0.2820767,-0.2955089,-1.1844778,10.610493496740874,1.2529486961249454,jump
10/07/2020, 09:36:16,8.018349,-2.440679,6.515656,0.2820767,-0.2955089,-1.1844778,10.616242421530202,1.2529486961249454,jump
10/07/2020, 09:36:16,8.018349,-2.440679,6.515656,0.2735289,-0.2735289,-1.1234223,10.616242421530202,1.1881555908044648,jump
10/07/2020, 09:36:16,7.91785,-2.457429,6.530013,0.2735289,-0.2735289,-1.1234223,10.553311174211146,1.1881555908044648,jump
10/07/2020, 09:36:16,7.91785,-2.457429,6.530013,0.26009667,-0.25887558,-1.0574822,10.553311174211146,1.1193460304684875,jump
10/07/2020, 09:36:17,0.4546363,-4.613362,3.8572302,1.1588345,-1.1844778,-3.834289,6.030590875425113,4.1770393432839,jump
10/07/2020, 09:36:17,0.4953143,-3.8356948,3.5581272,1.1588345,-1.1844778,-3.834289,5.255298250164661,4.1770393432839,jump
10/07/2020, 09:36:17,0.4953143,-3.8356948,3.5581272,1.5324945,-1.3468856,-4.1603255,5.255298250164661,4.633675510819835,jump
10/07/2020, 09:36:17,0.61016977,-3.455236,3.5581272,1.5324945,-1.3468856,-4.1603255,4.99712233125308,4.633675510819835,jump
10/07/2020, 09:36:17,0.61016977,-3.455236,3.5581272,1.6008767,-1.45068,-4.30808,4.99712233125308,4.819422544743719,jump
10/07/2020, 09:36:17,1.052842,-4.5559344,3.8811584,1.6008767,-1.45068,-4.30808,6.076874607604876,4.819422544743719,jump
10/07/2020, 09:36:17,1.052842,-4.5559344,3.8811584,1.3114734,-1.51662,-4.1481147,6.076874607604876,4.607271877528409,jump
10/07/2020, 09:36:17,1.8831514,-6.6041903,4.165904,1.3114734,-1.51662,-4.1481147,8.032206790605464,4.607271877528409,jump
10/07/2020, 09:36:17,1.8831514,-6.6041903,4.165904,1.0452712,-1.5398211,-3.8135302,8.032206790605464,4.243424748837187,jump
10/07/2020, 09:36:17,2.9718857,-7.810173,4.651647,1.0452712,-1.5398211,-3.8135302,9.5639284811045,4.243424748837187,jump
10/07/2020, 09:36:17,2.9718857,-7.810173,4.651647,1.2101212,-1.5556957,-3.699967,9.5639284811045,4.192175722761003,jump
10/07/2020, 09:36:17,3.9361932,-7.635497,5.003392,1.2101212,-1.5556957,-3.699967,9.941245731254726,4.192175722761003,jump
10/07/2020, 09:36:17,3.9361932,-7.635497,5.003392,1.7071134,-1.6558267,-3.9515157,9.941245731254726,4.6119924389078,jump
10/07/2020, 09:36:17,4.4410787,-6.728617,4.9698925,1.7071134,-1.6558267,-3.9515157,9.470865877882126,4.6119924389078,jump
10/07/2020, 09:36:17,4.4410787,-6.728617,4.9698925,2.1918945,-1.8512045,-4.354482,9.470865877882126,5.214678781442435,jump
10/07/2020, 09:36:17,4.4147577,-5.6303115,4.8502517,2.1918945,-1.8512045,-4.354482,8.643809031546402,5.214678781442435,jump
10/07/2020, 09:36:17,4.4147577,-5.6303115,4.8502517,2.4800768,-2.0478034,-4.598705,8.643809031546402,5.611805915326421,jump
10/07/2020, 09:36:17,4.2711883,-4.6755753,4.938786,2.4800768,-2.0478034,-4.598705,8.030919036508715,5.611805915326421,jump
10/07/2020, 09:36:17,4.2711883,-4.6755753,4.938786,2.5252578,-2.1137433,-4.580388,8.030919036508715,5.641346710792202,jump
10/07/2020, 09:36:17,4.4721856,-4.4602213,5.5920267,2.5252578,-2.1137433,-4.580388,8.43592205024423,5.641346710792202,jump
10/07/2020, 09:36:18,6.9966135,-1.5433706,5.4891353,0.034191113,-0.24666445,-1.0318389,9.025807403639492,1.061463087362754,jump
10/07/2020, 09:36:18,6.9966135,-1.5433706,5.4891353,0.102573335,-0.29673,-1.1087689,9.025807403639492,1.1523621614661494,jump
10/07/2020, 09:36:18,7.092326,-1.6462619,5.503492,0.102573335,-0.29673,-1.1087689,9.126866473251578,1.1523621614661494,jump
10/07/2020, 09:36:18,7.092326,-1.6462619,5.503492,0.16607112,-0.34679556,-1.1795933,9.126866473251578,1.2406801308778412,jump
10/07/2020, 09:36:18,7.1545396,-1.6797615,5.4795637,0.16607112,-0.34679556,-1.1795933,9.167041723194806,1.2406801308778412,jump
10/07/2020, 09:36:18,7.1545396,-1.6797615,5.4795637,0.22102112,-0.3944189,-1.2467545,9.167041723194806,1.3262026426496434,jump
10/07/2020, 09:36:18,7.219146,-1.7084754,5.4963136,0.22102112,-0.3944189,-1.2467545,9.232790294678246,1.3262026426496434,jump
10/07/2020, 09:36:18,7.219146,-1.7084754,5.4963136,0.26742333,-0.4359367,-1.3078101,9.232790294678246,1.4042518327586087,jump
10/07/2020, 09:36:18,7.3100734,-1.7515461,5.515456,0.26742333,-0.4359367,-1.3078101,9.323376198814527,1.4042518327586087,jump
10/07/2020, 09:36:18,7.3100734,-1.7515461,5.515456,0.31382558,-0.48111778,-1.3652023,9.323376198814527,1.4811273264190363,jump
10/07/2020, 09:36:18,7.4010005,-1.8305093,5.5633125,0.31382558,-0.48111778,-1.3652023,9.438009272343471,1.4811273264190363,jump
10/07/2020, 09:36:18,7.4010005,-1.8305093,5.5633125,0.36267,-0.52019334,-1.4091623,9.438009272343471,1.5452731088869047,jump
10/07/2020, 09:36:18,7.503892,-1.9286151,5.611169,0.36267,-0.52019334,-1.4091623,9.566251433522764,1.5452731088869047,jump
10/07/2020, 09:36:18,7.503892,-1.9286151,5.611169,0.42006224,-0.55438447,-1.4384689,9.566251433522764,1.597807028665791,jump
10/07/2020, 09:36:18,7.6426754,-2.0697916,5.615955,0.42006224,-0.55438447,-1.4384689,9.707392725026281,1.597807028665791,jump
10/07/2020, 09:36:18,7.6426754,-2.0697916,5.615955,0.4798967,-0.5922389,-1.4580067,9.707392725026281,1.6452450906671892,jump
10/07/2020, 09:36:18,7.7623167,-2.1702902,5.5896335,0.4798967,-0.5922389,-1.4580067,9.808553541212348,1.6452450906671892,jump
10/07/2020, 09:36:18,7.7623167,-2.1702902,5.5896335,0.5421733,-0.6349778,-1.4763234,9.808553541212348,1.6960776590975817,jump
10/07/2020, 09:36:18,7.8556366,-2.254039,5.5944195,0.5421733,-0.6349778,-1.4763234,9.904001599623031,1.6960776590975817,jump
10/07/2020, 09:36:18,7.8556366,-2.254039,5.5944195,0.61544,-0.6764956,-1.4787656,9.904001599623031,1.7387237963135782,jump
10/07/2020, 09:36:19,-5.3144593,-0.7680961,4.1515474,0.0048844446,0.35900667,1.7840434,6.787399766287397,1.8198133458760792,jump
10/07/2020, 09:36:19,-5.3144593,-0.7680961,4.1515474,0.1965989,0.28818223,1.570349,6.787399766287397,1.6086317285944658,jump
10/07/2020, 09:36:19,-5.7547383,0.09332009,4.0151563,0.1965989,0.28818223,1.570349,7.017635054638724,1.6086317285944658,jump
10/07/2020, 09:36:19,-5.7547383,0.09332009,4.0151563,0.3602278,0.1965989,1.339559,7.017635054638724,1.4010115617786,jump
10/07/2020, 09:36:19,-6.1447687,0.9810573,3.65384,0.3602278,0.1965989,1.339559,7.216037914203224,1.4010115617786,jump
10/07/2020, 09:36:19,-6.1447687,0.9810573,3.65384,0.4151778,0.12455334,1.0953367,7.216037914203224,1.1779849600776722,jump
10/07/2020, 09:36:19,-6.4151573,1.727618,3.4408789,0.4151778,0.12455334,1.0953367,7.481881760804639,1.1779849600776722,jump
10/07/2020, 09:36:19,-6.4151573,1.727618,3.4408789,0.41029334,0.09646778,0.8218078,7.481881760804639,0.9235879603975786,jump
10/07/2020, 09:36:19,-6.5539412,2.1894326,3.4121652,0.41029334,0.09646778,0.8218078,7.706531789413528,0.9235879603975786,jump
10/07/2020, 09:36:19,-6.5539412,2.1894326,3.4121652,0.3712178,0.07693,0.5238567,7.706531789413528,0.646642646498573,jump
10/07/2020, 09:36:19,-6.573084,2.0434706,3.4121652,0.3712178,0.07693,0.5238567,7.6827127340348875,0.646642646498573,jump
10/07/2020, 09:36:19,-6.573084,2.0434706,3.4121652,0.31382558,0.03174889,0.2295689,7.6827127340348875,0.39012352454534605,jump
10/07/2020, 09:36:19,-6.448657,1.402194,3.4121652,0.31382558,0.03174889,0.2295689,7.429279693019947,0.39012352454534605,jump
10/07/2020, 09:36:19,-6.448657,1.402194,3.4121652,0.31504667,-0.024422223,-0.015874445,7.429279693019947,0.3163903380842089,jump
10/07/2020, 09:36:19,-6.2141604,0.8446664,3.4767714,0.31504667,-0.024422223,-0.015874445,7.170578109152015,0.3163903380842089,jump
10/07/2020, 09:36:19,-6.2141604,0.8446664,3.4767714,0.43471557,-0.06594,-0.2503278,7.170578109152015,0.50595426165338,jump
10/07/2020, 09:36:19,-5.9844494,0.5599205,3.5772698,0.43471557,-0.06594,-0.2503278,6.9945696496897485,0.50595426165338,jump
10/07/2020, 09:36:19,-5.9844494,0.5599205,3.5772698,0.5885756,-0.12699556,-0.5043189,6.9945696496897485,0.7854213249684815,jump
10/07/2020, 09:36:19,-5.8265233,0.56470615,3.546163,0.5885756,-0.12699556,-0.5043189,6.844160974804579,0.7854213249684815,jump
10/07/2020, 09:36:19,-5.8265233,0.56470615,3.546163,0.63131446,-0.1856089,-0.7766267,6.844160974804579,1.01791828994209,jump
10/07/2020, 09:36:20,8.489735,-2.376073,5.4628143,1.1551712,-0.46768558,2.09909,10.371290044415453,2.44117378459499,jump
10/07/2020, 09:36:20,8.489735,-2.376073,5.4628143,1.2345434,-0.47867557,2.0917635,10.371290044415453,2.475621607203108,jump
10/07/2020, 09:36:20,8.499306,-2.2229323,5.721239,1.2345434,-0.47867557,2.0917635,10.483902074882895,2.475621607203108,jump
10/07/2020, 09:36:20,8.499306,-2.2229323,5.721239,1.3053678,-0.4713489,2.074668,10.483902074882895,2.49607731921884,jump
10/07/2020, 09:36:20,8.475378,-2.0482562,6.0011992,1.3053678,-0.4713489,2.074668,10.584978910577673,2.49607731921884,jump
10/07/2020, 09:36:20,8.475378,-2.0482562,6.0011992,1.3554333,-0.44326335,2.0600145,10.584978910577673,2.5054623595812937,jump
10/07/2020, 09:36:20,8.41795,-1.8520447,6.2644095,1.3554333,-0.44326335,2.0600145,10.65526974055106,2.5054623595812937,jump
10/07/2020, 09:36:20,8.41795,-1.8520447,6.2644095,1.3737501,-0.41151446,2.0294867,10.65526974055106,2.4850250603797623,jump
10/07/2020, 09:36:20,8.336594,-1.6295122,6.4175506,1.3737501,-0.41151446,2.0294867,10.646081839641846,2.4850250603797623,jump
10/07/2020, 09:36:20,8.336594,-1.6295122,6.4175506,1.3700867,-0.38831335,1.9867479,10.646081839641846,2.4444000912469606,jump
10/07/2020, 09:36:20,8.276773,-1.4045869,6.530013,1.3700867,-0.38831335,1.9867479,10.635737588996736,2.4444000912469606,jump
10/07/2020, 09:36:20,8.276773,-1.4045869,6.530013,1.3322322,-0.36999667,1.9256923,10.635737588996736,2.37066049388442,jump
10/07/2020, 09:36:20,8.193025,-1.1581261,6.623333,1.3322322,-0.36999667,1.9256923,10.598841847253667,2.37066049388442,jump
10/07/2020, 09:36:20,8.193025,-1.1581261,6.623333,1.2540811,-0.32970002,1.845099,10.598841847253667,2.255174450785131,jump
10/07/2020, 09:36:20,8.126026,-0.90448695,6.649654,1.2540811,-0.32970002,1.845099,10.538894384264669,2.255174450785131,jump
10/07/2020, 09:36:20,8.126026,-0.90448695,6.649654,1.1405178,-0.27963445,1.7522945,10.538894384264669,2.1093867597372746,jump
10/07/2020, 09:36:20,8.078169,-0.6628119,6.6735826,1.1405178,-0.27963445,1.7522945,10.4991826330295,2.1093867597372746,jump
10/07/2020, 09:36:20,8.078169,-0.6628119,6.6735826,0.9976478,-0.22712667,1.6472789,10.4991826330295,1.939179076994179,jump
10/07/2020, 09:36:20,7.987242,-0.37328035,6.695118,0.9976478,-0.22712667,1.6472789,10.42880534373523,1.939179076994179,jump
10/07/2020, 09:36:20,7.987242,-0.37328035,6.695118,0.82425004,-0.16973445,1.5288311,10.42880534373523,1.7451425506272205,jump
10/07/2020, 09:36:21,8.109276,-3.5772698,9.492328,-0.66306335,2.1381657,2.4251268,12.986974183224996,3.3004008193718284,jump
10/07/2020, 09:36:21,8.109276,-3.5772698,9.492328,-0.8401245,2.2004423,2.4983935,12.986974183224996,3.433617012979328,jump
10/07/2020, 09:36:21,7.82453,-4.2424746,9.552148,-0.8401245,2.2004423,2.4983935,13.056239537872047,3.433617012979328,jump
10/07/2020, 09:36:21,7.82453,-4.2424746,9.552148,-0.8743156,2.2370756,2.5582278,13.056239537872047,3.5090546102176012,jump
10/07/2020, 09:36:21,7.6067834,-4.8047876,9.712467,-0.8743156,2.2370756,2.5582278,13.239379016972778,3.5090546102176012,jump
10/07/2020, 09:36:21,7.6067834,-4.8047876,9.712467,-0.8218078,2.2920256,2.6192834,13.239379016972778,3.5762263610956393,jump
10/07/2020, 09:36:21,7.515856,-5.312066,9.9015,-0.8218078,2.2920256,2.6192834,13.518351657174493,3.5762263610956393,jump
10/07/2020, 09:36:21,7.515856,-5.312066,9.9015,-0.7119078,2.3604078,2.7096457,13.518351657174493,3.663402506191018,jump
10/07/2020, 09:36:21,7.515856,-5.8600225,10.10489,-0.7119078,2.3604078,2.7096457,13.890167448546434,3.663402506191018,jump
10/07/2020, 09:36:21,7.515856,-5.8600225,10.10489,-0.5519422,2.4422224,2.8415256,13.890167448546434,3.787262565792969,jump
10/07/2020, 09:36:21,7.4679995,-6.503692,10.281959,-0.5519422,2.4422224,2.8415256,14.275422926625684,3.787262565792969,jump
10/07/2020, 09:36:21,7.4679995,-6.503692,10.281959,-0.33458444,2.481298,2.9868379,14.275422926625684,3.8974333594121346,jump
10/07/2020, 09:36:21,7.314859,-6.9678993,10.502099,-0.33458444,2.481298,2.9868379,14.572332211366566,3.8974333594121346,jump
10/07/2020, 09:36:21,7.314859,-6.9678993,10.502099,-0.109900005,2.4874034,3.097959,14.572332211366566,3.9744941656781316,jump
10/07/2020, 09:36:21,7.1856465,-7.159325,10.772488,-0.109900005,2.4874034,3.097959,14.796484119130742,3.9744941656781316,jump
10/07/2020, 09:36:21,7.1856465,-7.159325,10.772488,0.029306669,2.5252578,3.163899,14.796484119130742,4.048214730114044,jump
10/07/2020, 09:36:21,7.109076,-6.9942207,11.045269,0.029306669,2.5252578,3.163899,14.88139956894414,4.048214730114044,jump
10/07/2020, 09:36:21,7.109076,-6.9942207,11.045269,0.03174889,2.6058512,3.2237334,14.88139956894414,4.145349867786068,jump
10/07/2020, 09:36:21,7.097112,-6.6592255,11.133803,0.03174889,2.6058512,3.2237334,14.787692939936008,4.145349867786068,jump
10/07/2020, 09:36:21,7.097112,-6.6592255,11.133803,-0.12943779,2.6986556,3.3018847,14.787692939936008,4.266372987343425,jump
10/07/2020, 09:36:22,7.941778,-3.2757742,5.9844494,-2.7926812,1.0232911,-1.1075479,10.469774211659535,3.1737762024857235,jump
10/07/2020, 09:36:22,7.879565,-3.7160535,5.4963136,-2.7926812,1.0232911,-1.1075479,10.30077944775066,3.1737762024857235,jump
10/07/2020, 09:36:22,7.879565,-3.7160535,5.4963136,-2.8097768,1.053819,-0.8999589,10.30077944775066,3.1329388707689616,jump
10/07/2020, 09:36:22,7.798209,-4.048656,5.1661043,-2.8097768,1.053819,-0.8999589,10.192758001994934,3.1329388707689616,jump
10/07/2020, 09:36:22,7.798209,-4.048656,5.1661043,-2.8000078,1.07702,-0.67283225,10.192758001994934,3.0745274785533385,jump
10/07/2020, 09:36:22,7.668997,-4.2831526,4.8502517,-2.8000078,1.07702,-0.67283225,10.034134213725617,3.0745274785533385,jump
10/07/2020, 09:36:22,7.668997,-4.2831526,4.8502517,-2.7939024,1.0477134,-0.42861003,10.034134213725617,3.014514973630419,jump
10/07/2020, 09:36:22,7.6139617,-4.4674,4.5798626,-2.7939024,1.0477134,-0.42861003,9.945110231885183,3.014514973630419,jump
10/07/2020, 09:36:22,7.6139617,-4.4674,4.5798626,-2.7768068,0.99398446,-0.17828223,9.945110231885183,2.9547327867309727,jump
10/07/2020, 09:36:22,7.594819,-4.57747,4.398008,-2.7768068,0.99398446,-0.17828223,9.898332178563454,2.9547327867309727,jump
10/07/2020, 09:36:22,7.594819,-4.57747,4.398008,-2.7169724,0.94514006,0.070824444,9.898332178563454,2.8775414156082295,jump
10/07/2020, 09:36:22,7.6019974,-4.6229334,4.223332,-2.7169724,0.94514006,0.070824444,9.848777070315165,2.8775414156082295,jump
10/07/2020, 09:36:22,7.6019974,-4.6229334,4.223332,-2.6119568,0.8865267,0.3052778,9.848777070315165,2.7751473177670443,jump
10/07/2020, 09:36:22,7.5517483,-4.56072,4.0941195,-2.6119568,0.8865267,0.3052778,9.725784467929456,2.7751473177670443,jump
10/07/2020, 09:36:22,7.5517483,-4.56072,4.0941195,-2.471529,0.7851745,0.5238567,9.725784467929456,2.6456342249110794,jump
10/07/2020, 09:36:22,7.4344997,-4.5248275,4.074977,-2.471529,0.7851745,0.5238567,9.60995770162188,2.6456342249110794,jump
10/07/2020, 09:36:22,7.4344997,-4.5248275,4.074977,-2.3079002,0.67161113,0.7228978,9.60995770162188,2.5099892565661652,jump
10/07/2020, 09:36:22,7.3842506,-4.438686,4.156333,-2.3079002,0.67161113,0.7228978,9.565782443041975,2.5099892565661652,jump
10/07/2020, 09:36:22,7.3842506,-4.438686,4.156333,-2.1564822,0.5556056,0.9133912,9.565782443041975,2.4069475629086674,jump
10/07/2020, 09:36:22,7.331609,-4.3788652,4.2424746,-2.1564822,0.5556056,0.9133912,9.535488364809735,2.4069475629086674,jump
10/07/2020, 09:36:23,8.075776,-1.1318051,7.920243,-1.1392968,0.63131446,1.1270856,11.36791045507345,1.7224624662235875,jump
10/07/2020, 09:36:23,8.190632,-1.5026926,8.389236,-1.1392968,0.63131446,1.1270856,11.820483221075715,1.7224624662235875,jump
10/07/2020, 09:36:23,8.190632,-1.5026926,8.389236,-1.2540811,0.7302245,1.23088,11.820483221075715,1.90289592868573,jump
10/07/2020, 09:36:23,8.322237,-1.969293,8.76491,-1.2540811,0.7302245,1.23088,12.24587222978811,1.90289592868573,jump
10/07/2020, 09:36:23,8.322237,-1.969293,8.76491,-1.3188001,0.7949434,1.3468856,12.24587222978811,2.045793097035409,jump
10/07/2020, 09:36:23,8.535198,-2.2779672,9.176475,-1.3188001,0.7949434,1.3468856,12.737599016282827,2.045793097035409,jump
10/07/2020, 09:36:23,8.535198,-2.2779672,9.176475,-1.3835189,0.86576784,1.4726601,12.737599016282827,2.19827347125476,jump
10/07/2020, 09:36:23,8.709874,-2.3665016,9.65504,-1.3835189,0.86576784,1.4726601,13.216732982749852,2.19827347125476,jump
10/07/2020, 09:36:23,8.709874,-2.3665016,9.65504,-1.5288311,0.96589893,1.5984346,13.216732982749852,2.4135613557620106,jump
10/07/2020, 09:36:23,8.853444,-2.3018954,10.085748,-1.5288311,0.96589893,1.5984346,13.616332171687274,2.4135613557620106,jump
10/07/2020, 09:36:23,8.853444,-2.3018954,10.085748,-1.7754956,1.1112112,1.7339778,13.616332171687274,2.7191642241402354,jump
10/07/2020, 09:36:23,9.071191,-2.2205393,10.451849,-1.7754956,1.1112112,1.7339778,14.016363481643394,2.7191642241402354,jump
10/07/2020, 09:36:23,9.071191,-2.2205393,10.451849,-2.0490246,1.34078,1.8731846,14.016363481643394,3.083020142807625,jump
10/07/2020, 09:36:23,9.334401,-2.3952155,10.73181,-2.0490246,1.34078,1.8731846,14.423586220147385,3.083020142807625,jump
10/07/2020, 09:36:23,9.334401,-2.3952155,10.73181,-2.2407389,1.5825601,2.0062857,14.423586220147385,3.398615778252344,jump
10/07/2020, 09:36:23,9.52822,-2.7637103,10.779666,-2.2407389,1.5825601,2.0062857,14.650128738924517,3.398615778252344,jump
10/07/2020, 09:36:23,9.52822,-2.7637103,10.779666,-2.2651613,1.7413045,2.129618,14.650128738924517,3.5634771714359412,jump
10/07/2020, 09:36:23,9.669396,-3.158526,10.679168,-2.2651613,1.7413045,2.129618,14.748496081487088,3.5634771714359412,jump
10/07/2020, 09:36:23,9.669396,-3.158526,10.679168,-2.1699145,1.7999178,2.24196,14.748496081487088,3.6020296884125504,jump
10/07/2020, 09:36:23,9.614362,-3.5389848,10.49492,-2.1699145,1.7999178,2.24196,14.666414233727536,3.6020296884125504,jump
10/07/2020, 09:36:24,9.444471,-6.704689,6.9296145,3.525348,-2.261498,-2.8512945,13.49705345313285,5.0667871150079975,jump
10/07/2020, 09:36:24,9.468399,-6.769295,7.025327,3.525348,-2.261498,-2.8512945,13.595188876655957,5.0667871150079975,jump
10/07/2020, 09:36:24,9.468399,-6.769295,7.025327,3.8513846,-2.2663822,-2.6778967,13.595188876655957,5.209681654216152,jump
10/07/2020, 09:36:24,9.475577,-6.7094746,7.3292155,3.8513846,-2.2663822,-2.6778967,13.730295530485087,5.209681654216152,jump
10/07/2020, 09:36:24,9.475577,-6.7094746,7.3292155,4.218939,-2.2541711,-2.4788556,13.730295530485087,5.387527954642064,jump
10/07/2020, 09:36:24,9.499506,-6.5898337,7.7216387,4.218939,-2.2541711,-2.4788556,13.90288555487279,5.387527954642064,jump
