DATE,TIME,ax,ay,az,gx,gy,gz,ma,mg,label
10/07/2020, 09:28:09,-2.766103,-1.7754744,9.707682,0.08792,0.12943779,-0.0012211112,10.24903500574133,0.1564786224404271,jump
10/07/2020, 09:28:09,-2.766103,-1.7754744,9.707682,0.085477784,0.15996556,0.0024422223,10.24903500574133,0.1813874207038415,jump
10/07/2020, 09:28:09,-2.7972097,-1.8017955,9.743574,0.085477784,0.15996556,0.0024422223,10.2960228417857,0.1813874207038415,jump
10/07/2020, 09:28:09,-2.7972097,-1.8017955,9.743574,0.102573335,0.18194556,0.0048844446,10.2960228417857,0.2089242316031997,jump
10/07/2020, 09:28:09,-2.8259234,-1.8233309,9.777073,0.102573335,0.18194556,0.0048844446,10.339319775438984,0.2089242316031997,jump
10/07/2020, 09:28:09,-2.8259234,-1.8233309,9.777073,0.13188,0.19904111,0.0048844446,10.339319775438984,0.23881699484719393,jump
10/07/2020, 09:28:09,-2.8115666,-1.7922242,9.743574,0.13188,0.19904111,0.0048844446,10.298262534903328,0.23881699484719393,jump
10/07/2020, 09:28:09,-2.8115666,-1.7922242,9.743574,0.15874445,0.21125223,0.009768889,10.298262534903328,0.2644290766685238,jump
10/07/2020, 09:28:09,-2.8235307,-1.7324036,9.71486,0.15874445,0.21125223,0.009768889,10.26411476529448,0.2644290766685238,jump
10/07/2020, 09:28:09,-2.8235307,-1.7324036,9.71486,0.18805112,0.23445335,0.017095556,10.26411476529448,0.30103796279893025,jump
10/07/2020, 09:28:09,-2.8139594,-1.727618,9.695718,0.18805112,0.23445335,0.017095556,10.242557055922811,0.30103796279893025,jump
10/07/2020, 09:28:09,-2.8139594,-1.727618,9.695718,0.20270446,0.26498112,0.026864445,10.242557055922811,0.3347025405674272,jump
10/07/2020, 09:28:09,-2.8426733,-1.698904,9.722038,0.20270446,0.26498112,0.026864445,10.270593679698681,0.3347025405674272,jump
10/07/2020, 09:28:09,-2.8426733,-1.698904,9.722038,0.21125223,0.28574002,0.036633335,10.270593679698681,0.357235024393954,jump
10/07/2020, 09:28:09,-2.8498518,-1.713261,9.734002,0.21125223,0.28574002,0.036633335,10.28628776445107,0.357235024393954,jump
10/07/2020, 09:28:09,-2.8498518,-1.713261,9.734002,0.22224224,0.30649891,0.05006556,10.28628776445107,0.38188971776086306,jump
10/07/2020, 09:28:09,-2.8761728,-1.713261,9.777073,0.22224224,0.30649891,0.05006556,10.334349895733455,0.38188971776086306,jump
10/07/2020, 09:28:09,-2.8761728,-1.713261,9.777073,0.22712667,0.33580557,0.06716111,10.334349895733455,0.4109288480912384,jump
10/07/2020, 09:28:09,-2.8881369,-1.713261,9.79143,0.22712667,0.33580557,0.06716111,10.351266035609079,0.4109288480912384,jump
10/07/2020, 09:28:09,-2.8881369,-1.713261,9.79143,0.22468445,0.3712178,0.078151114,10.351266035609079,0.44090060443675144,jump
10/07/2020, 09:28:11,-3.196811,-0.0047856453,9.107083,0.13920668,0.3944189,-0.39075556,9.651869758237027,0.5723938109486211,jump
10/07/2020, 09:28:11,-3.2422748,-0.1794617,8.989835,0.13920668,0.3944189,-0.39075556,9.558330481822862,0.5723938109486211,jump
10/07/2020, 09:28:11,-3.2422748,-0.1794617,8.989835,0.23323223,0.39564002,-0.43227336,9.558330481822862,0.6307048050878832,jump
10/07/2020, 09:28:11,-3.278167,-0.2847459,8.855837,0.23323223,0.39564002,-0.43227336,9.447396774112725,0.6307048050878832,jump
10/07/2020, 09:28:11,-3.278167,-0.2847459,8.855837,0.3858711,0.37732336,-0.46524334,9.447396774112725,0.7125452952375179,jump
10/07/2020, 09:28:11,-3.3547373,-0.33020952,8.769695,0.3858711,0.37732336,-0.46524334,9.395257095901586,0.7125452952375179,jump
10/07/2020, 09:28:11,-3.3547373,-0.33020952,8.769695,0.5580478,0.36267,-0.5189722,9.395257095901586,0.8439662377054304,jump
10/07/2020, 09:28:11,-3.4480574,-0.30388847,8.695518,0.5580478,0.36267,-0.5189722,9.359138497440176,0.8439662377054304,jump
10/07/2020, 09:28:11,-3.4480574,-0.30388847,8.695518,0.71923447,0.3394689,-0.5836911,9.359138497440176,0.9865255562996074,jump
10/07/2020, 09:28:11,-3.534199,-0.21535404,8.635697,0.71923447,0.3394689,-0.5836911,9.333392143620127,0.9865255562996074,jump
10/07/2020, 09:28:11,-3.534199,-0.21535404,8.635697,0.83524,0.28818223,-0.64963114,9.333392143620127,1.0966747406703905,jump
10/07/2020, 09:28:11,-3.629912,-0.02871387,8.480164,0.83524,0.28818223,-0.64963114,9.224438147144683,1.0966747406703905,jump
10/07/2020, 09:28:11,-3.629912,-0.02871387,8.480164,0.8987378,0.2185789,-0.6972545,9.224438147144683,1.1583048640069575,jump
10/07/2020, 09:28:11,-3.6729827,0.34456646,8.26481,0.8987378,0.2185789,-0.6972545,9.050779290950556,1.1583048640069575,jump
10/07/2020, 09:28:11,-3.6729827,0.34456646,8.26481,0.8975167,0.14897557,-0.7485411,9.050779290950556,1.1781527060335044,jump
10/07/2020, 09:28:11,-3.696911,0.8207382,8.056634,0.8975167,0.14897557,-0.7485411,8.902253278560256,1.1781527060335044,jump
10/07/2020, 09:28:11,-3.696911,0.8207382,8.056634,0.8315767,0.11356334,-0.8120389,8.902253278560256,1.16782859199043,jump
10/07/2020, 09:28:11,-3.6753755,1.2514462,7.8173513,0.8315767,0.11356334,-0.8120389,8.728429668930154,1.16782859199043,jump
10/07/2020, 09:28:11,-3.6753755,1.2514462,7.8173513,0.7119078,0.08425667,-0.9060645,8.728429668930154,1.1553634947458598,jump
10/07/2020, 09:28:11,-3.65384,1.39023,7.719246,0.7119078,0.08425667,-0.9060645,8.652747768012429,1.1553634947458598,jump
10/07/2020, 09:28:12,10.73181,-8.394022,4.9340005,2.0514667,-1.5300523,-2.4971724,14.490538417380552,3.575674127048963,jump
10/07/2020, 09:28:12,10.796415,-8.252846,5.1062837,2.0514667,-1.5300523,-2.4971724,14.517099573511786,3.575674127048963,jump
10/07/2020, 09:28:12,10.796415,-8.252846,5.1062837,2.5289211,-1.5422634,-2.339649,14.517099573511786,3.7746490821806793,jump
10/07/2020, 09:28:12,10.827522,-8.097312,5.302495,2.5289211,-1.5422634,-2.339649,14.523021487571045,3.7746490821806793,jump
10/07/2020, 09:28:12,10.827522,-8.097312,5.302495,2.9074657,-1.5483689,-2.15404,14.523021487571045,3.9358216252637566,jump
10/07/2020, 09:28:12,10.84188,-7.8317084,5.5872407,2.9074657,-1.5483689,-2.15404,14.494801623778741,3.9358216252637566,jump
10/07/2020, 09:28:12,10.84188,-7.8317084,5.5872407,3.1590145,-1.5080723,-1.9366823,14.494801623778741,4.0005490638341845,jump
10/07/2020, 09:28:12,10.827522,-7.408179,5.7379885,3.1590145,-1.5080723,-1.9366823,14.319248011252744,4.0005490638341845,jump
10/07/2020, 09:28:12,10.827522,-7.408179,5.7379885,3.273799,-1.4482379,-1.7046711,14.319248011252744,3.964978717534047,jump
10/07/2020, 09:28:12,10.671989,-6.8410797,5.4891353,3.273799,-1.4482379,-1.7046711,13.81384581545413,3.964978717534047,jump
10/07/2020, 09:28:12,10.671989,-6.8410797,5.4891353,3.28601,-1.4238156,-1.4921979,13.81384581545413,3.8796607157828626,jump
10/07/2020, 09:28:12,10.430314,-6.0490556,4.9052863,3.28601,-1.4238156,-1.4921979,13.017079497467389,3.8796607157828626,jump
10/07/2020, 09:28:12,10.430314,-6.0490556,4.9052863,3.2139645,-1.4433534,-1.3285689,13.017079497467389,3.76535948617746,jump
10/07/2020, 09:28:12,10.131211,-5.2235317,4.2592244,3.2139645,-1.4433534,-1.3285689,12.168307947037556,3.76535948617746,jump
10/07/2020, 09:28:12,10.131211,-5.2235317,4.2592244,3.0503356,-1.4787656,-1.21989,12.168307947037556,3.6026971673532864,jump
10/07/2020, 09:28:12,9.958928,-4.4004006,3.7806597,3.0503356,-1.4787656,-1.21989,11.525500528277,3.6026971673532864,jump
10/07/2020, 09:28:12,9.958928,-4.4004006,3.7806597,2.8280935,-1.4934189,-1.1588345,11.525500528277,3.4016628894314613,jump
10/07/2020, 09:28:12,9.944571,-3.641876,3.546163,2.8280935,-1.4934189,-1.1588345,11.168393641337644,3.4016628894314613,jump
10/07/2020, 09:28:12,9.944571,-3.641876,3.546163,2.5863135,-1.4580067,-1.1124322,11.168393641337644,3.170537271968344,jump
10/07/2020, 09:28:12,10.047462,-3.1154552,3.5294135,2.5863135,-1.4580067,-1.1124322,11.095689349110277,3.170537271968344,jump
10/07/2020, 09:28:13,10.619347,0.6197411,4.5918264,0.09646778,-0.6337567,-0.81326,11.586175885988217,1.0355411346957224,jump
10/07/2020, 09:28:13,10.619347,0.6197411,4.5918264,0.11478445,-0.6337567,-0.8095967,11.586175885988217,1.034538479605336,jump
10/07/2020, 09:28:13,10.317851,0.4426722,4.0366917,0.11478445,-0.6337567,-0.8095967,11.088232000925242,1.034538479605336,jump
10/07/2020, 09:28:13,10.317851,0.4426722,4.0366917,0.054950003,-0.6020078,-0.76075226,11.088232000925242,0.9716876575157317,jump
10/07/2020, 09:28:13,9.997213,0.46660042,3.735196,0.054950003,-0.6020078,-0.76075226,10.68240052588392,0.9716876575157317,jump
10/07/2020, 09:28:13,9.997213,0.46660042,3.735196,-0.05617111,-0.48478112,-0.7204556,10.68240052588392,0.8701862887776884,jump
10/07/2020, 09:28:13,9.798609,0.57906306,3.6514473,-0.05617111,-0.48478112,-0.7204556,10.472875221409153,0.8701862887776884,jump
10/07/2020, 09:28:13,9.798609,0.57906306,3.6514473,-0.15630223,-0.35534334,-0.73999333,10.472875221409153,0.8356371289799794,jump
10/07/2020, 09:28:13,9.7196455,0.6628119,3.76391,-0.15630223,-0.35534334,-0.73999333,10.444034045073977,0.8356371289799794,jump
10/07/2020, 09:28:13,9.7196455,0.6628119,3.76391,-0.21980001,-0.31016225,-0.80227005,10.444034045073977,0.8877780715805929,jump
10/07/2020, 09:28:13,9.662218,0.76331043,3.6011982,-0.21980001,-0.31016225,-0.80227005,10.339716135351411,0.8877780715805929,jump
10/07/2020, 09:28:13,9.662218,0.76331043,3.6011982,-0.2503278,-0.32725778,-0.86088336,10.339716135351411,0.9544012848400868,jump
10/07/2020, 09:28:13,9.635897,0.8279166,3.278167,-0.2503278,-0.32725778,-0.86088336,10.211872000514495,0.9544012848400868,jump
10/07/2020, 09:28:13,9.635897,0.8279166,3.278167,-0.27475002,-0.29673,-0.8779789,10.211872000514495,0.9666350196353864,jump
10/07/2020, 09:28:13,9.678967,0.8327023,3.0293136,-0.27475002,-0.29673,-0.8779789,10.176077100524365,0.9666350196353864,jump
10/07/2020, 09:28:13,9.678967,0.8327023,3.0293136,-0.31382558,-0.2295689,-0.8584412,10.176077100524365,0.9423956820796161,jump
10/07/2020, 09:28:13,9.765109,0.9810573,2.8761728,-0.31382558,-0.2295689,-0.8584412,10.227032720276172,0.9423956820796161,jump
10/07/2020, 09:28:13,9.765109,0.9810573,2.8761728,-0.33336335,-0.13432223,-0.81936556,10.227032720276172,0.8947253818376839,jump
10/07/2020, 09:28:13,9.853643,1.1796615,2.7158537,-0.33336335,-0.13432223,-0.81936556,10.288913992822392,0.8947253818376839,jump
10/07/2020, 09:28:13,9.853643,1.1796615,2.7158537,-0.29673,-0.07204556,-0.7863956,10.288913992822392,0.8435978405656861,jump
10/07/2020, 09:28:14,2.6991038,-3.5150564,4.3118663,1.1075479,-3.2054167,-5.621996,6.183281785545233,6.565683253409242,jump
10/07/2020, 09:28:14,3.0125637,-2.9647074,3.5676985,1.1075479,-3.2054167,-5.621996,5.531139333909047,6.565683253409242,jump
10/07/2020, 09:28:14,3.0125637,-2.9647074,3.5676985,0.96712005,-3.4020157,-5.7917304,5.531139333909047,6.786248816045544,jump
10/07/2020, 09:28:14,3.938586,-3.0149565,3.2542388,0.96712005,-3.4020157,-5.7917304,5.932326073981877,6.786248816045544,jump
10/07/2020, 09:28:14,3.938586,-3.0149565,3.2542388,0.66428447,-3.5326746,-5.832027,5.932326073981877,6.850810301099247,jump
10/07/2020, 09:28:14,5.5130634,-4.4602213,3.3044882,0.66428447,-3.5326746,-5.832027,7.823495669987646,6.850810301099247,jump
10/07/2020, 09:28:14,5.5130634,-4.4602213,3.3044882,0.22224224,-3.5693078,-5.6622925,7.823495669987646,6.697081897838803,jump
10/07/2020, 09:28:14,7.539784,-6.812366,3.4648073,0.22224224,-3.5693078,-5.6622925,10.735993766365942,6.697081897838803,jump
10/07/2020, 09:28:14,7.539784,-6.812366,3.4648073,-0.03052778,-3.460629,-5.3789945,10.735993766365942,6.396129015249391,jump
10/07/2020, 09:28:14,9.468399,-8.1020975,3.9457645,-0.03052778,-3.460629,-5.3789945,13.071481263796587,6.396129015249391,jump
10/07/2020, 09:28:14,9.468399,-8.1020975,3.9457645,0.18438779,-3.3800356,-5.350909,13.071481263796587,6.331735101601432,jump
10/07/2020, 09:28:14,10.727024,-7.649854,4.520042,0.18438779,-3.3800356,-5.350909,13.929109582630156,6.331735101601432,jump
10/07/2020, 09:28:14,10.727024,-7.649854,4.520042,0.6349778,-3.5290112,-5.664735,13.929109582630156,6.704203013044931,jump
10/07/2020, 09:28:14,11.203196,-6.7238317,5.096712,0.6349778,-3.5290112,-5.664735,14.024905614123396,6.704203013044931,jump
10/07/2020, 09:28:14,11.203196,-6.7238317,5.096712,0.9182756,-3.7500324,-6.038395,14.024905614123396,7.16716028578133,jump
10/07/2020, 09:28:14,11.356337,-6.1447687,5.790631,0.9182756,-3.7500324,-6.038395,14.151182588427808,7.16716028578133,jump
10/07/2020, 09:28:14,11.356337,-6.1447687,5.790631,0.94880337,-3.8086457,-6.186149,14.151182588427808,7.326284940221029,jump
10/07/2020, 09:28:14,11.617154,-5.989235,6.142376,0.94880337,-3.8086457,-6.186149,14.441536868406306,7.326284940221029,jump
10/07/2020, 09:28:14,11.617154,-5.989235,6.142376,0.92438114,-3.7256103,-6.1067767,14.441536868406306,7.213000353939628,jump
10/07/2020, 09:28:14,12.110075,-5.907879,6.0921264,0.92438114,-3.7256103,-6.1067767,14.787526938055095,7.213000353939628,jump
10/07/2020, 09:28:15,16.151552,0.70588267,15.854843,-1.8060234,3.5338957,1.6594901,22.64391661802605,4.301633042449446,jump
10/07/2020, 09:28:15,16.974684,2.2301106,15.859629,-1.8060234,3.5338957,1.6594901,23.337547087911084,4.301633042449446,jump
10/07/2020, 09:28:15,16.974684,2.2301106,15.859629,-3.3434024,4.1334615,2.119849,23.337547087911084,5.723425802992324,jump
10/07/2020, 09:28:15,17.345572,3.0604203,15.507884,-3.3434024,4.1334615,2.119849,23.467626435001318,5.723425802992324,jump
10/07/2020, 09:28:15,17.345572,3.0604203,15.507884,-4.785535,4.7098255,2.5350268,23.467626435001318,7.177057969121801,jump
10/07/2020, 09:28:15,16.977077,2.7684958,14.969499,-4.785535,4.7098255,2.5350268,22.802886182450667,7.177057969121801,jump
10/07/2020, 09:28:15,16.977077,2.7684958,14.969499,-5.9822235,5.1555314,2.9294457,22.802886182450667,8.42307275163562,jump
10/07/2020, 09:28:15,16.05584,1.119841,14.256437,-5.9822235,5.1555314,2.9294457,21.50093094829738,8.42307275163562,jump
10/07/2020, 09:28:15,16.05584,1.119841,14.256437,-6.7393126,5.5206437,3.4765034,21.50093094829738,9.379867678148658,jump
10/07/2020, 09:28:15,15.194424,-2.2444677,13.473985,-6.7393126,5.5206437,3.4765034,20.431750058085527,9.379867678148658,jump
10/07/2020, 09:28:15,15.194424,-2.2444677,13.473985,-7.126405,5.8185945,4.492468,20.431750058085527,10.238356993720718,jump
10/07/2020, 09:28:15,14.5100765,-7.456035,12.196217,-7.126405,5.8185945,4.492468,20.3686641587194,10.238356993720718,jump
10/07/2020, 09:28:15,14.5100765,-7.456035,12.196217,-7.5073915,5.907736,5.635428,20.3686641587194,11.091452438638091,jump
10/07/2020, 09:28:15,13.9573345,-12.279965,11.078769,-7.5073915,5.907736,5.635428,21.641253514484017,11.091452438638091,jump
10/07/2020, 09:28:15,13.9573345,-12.279965,11.078769,-7.265611,5.6415334,5.94559,21.641253514484017,10.952901222699253,jump
10/07/2020, 09:28:15,13.2514515,-14.450256,10.296316,-7.265611,5.6415334,5.94559,22.145541342715227,10.952901222699253,jump
10/07/2020, 09:28:15,13.2514515,-14.450256,10.296316,-6.1214304,5.1164556,5.5975738,22.145541342715227,9.745915017001108,jump
10/07/2020, 09:28:15,12.337394,-16.063019,9.798609,-6.1214304,5.1164556,5.5975738,22.499879816551797,9.745915017001108,jump
10/07/2020, 09:28:15,12.337394,-16.063019,9.798609,-4.6414437,4.557187,5.568267,22.499879816551797,8.562508388238612,jump
10/07/2020, 09:28:15,11.442478,-17.316858,9.427721,-4.6414437,4.557187,5.568267,22.796618426611744,8.562508388238612,jump
10/07/2020, 09:28:16,9.877572,7.4249287,7.7790666,-2.3042367,-1.28583,0.6557367,14.601707847444452,2.7189806883841263,jump
10/07/2020, 09:28:16,9.159725,7.391429,7.6977105,-2.3042367,-1.28583,0.6557367,14.06373117580875,2.7189806883841263,jump
10/07/2020, 09:28:16,9.159725,7.391429,7.6977105,-3.2041957,-1.0709145,0.3944189,14.06373117580875,3.4013665595500022,jump
10/07/2020, 09:28:16,8.652447,6.63769,7.6139617,-3.2041957,-1.0709145,0.3944189,13.300232210519814,3.4013665595500022,jump
10/07/2020, 09:28:16,8.652447,6.63769,7.6139617,-4.0565314,-0.8181445,0.21735778,13.300232210519814,4.14391747825765,jump
10/07/2020, 09:28:16,8.437093,5.2809596,7.726424,-4.0565314,-0.8181445,0.21735778,12.60042460168881,4.14391747825765,jump
10/07/2020, 09:28:16,8.437093,5.2809596,7.726424,-4.73669,-0.5568267,0.12943779,12.60042460168881,4.771063058040796,jump
10/07/2020, 09:28:16,8.530413,3.5653057,8.037491,-4.73669,-0.5568267,0.12943779,12.250738927573433,4.771063058040796,jump
10/07/2020, 09:28:16,8.530413,3.5653057,8.037491,-5.157974,-0.29917222,0.09646778,12.250738927573433,5.16754326785074,jump
10/07/2020, 09:28:16,8.769695,1.6582261,8.518449,-5.157974,-0.29917222,0.09646778,12.3377971983801,5.16754326785074,jump
10/07/2020, 09:28:16,8.769695,1.6582261,8.518449,-5.26421,-0.042738892,0.09280445,12.3377971983801,5.265201663973798,jump
10/07/2020, 09:28:16,9.06162,-0.36131623,9.171689,-5.26421,-0.042738892,0.09280445,12.898192966373031,5.265201663973798,jump
10/07/2020, 09:28:16,9.06162,-0.36131623,9.171689,-5.072496,0.17828223,0.13432223,12.898192966373031,5.077405050686784,jump
10/07/2020, 09:28:16,9.3104725,-2.4071796,9.868001,-5.072496,0.17828223,0.13432223,13.7788553580945,5.077405050686784,jump
10/07/2020, 09:28:16,9.3104725,-2.4071796,9.868001,-4.6292324,0.3284789,0.25277,13.7788553580945,4.647750395639808,jump
10/07/2020, 09:28:16,9.3511505,-4.2041893,10.449456,-4.6292324,0.3284789,0.25277,14.63934283952134,4.647750395639808,jump
10/07/2020, 09:28:16,9.3511505,-4.2041893,10.449456,-3.9844856,0.3309211,0.35778558,14.63934283952134,4.014180490709003,jump
10/07/2020, 09:28:16,9.188439,-5.3096733,10.923235,-3.9844856,0.3309211,0.35778558,15.229481614238289,4.014180490709003,jump
10/07/2020, 09:28:16,9.188439,-5.3096733,10.923235,-3.030798,0.21125223,0.36511225,15.229481614238289,3.0600115554660667,jump
10/07/2020, 09:28:16,8.985049,-5.6039906,11.184053,-3.030798,0.21125223,0.36511225,15.4019112790257,3.0600115554660667,jump
10/07/2020, 09:28:17,-0.96909314,0.17228323,-0.98584294,-0.32970002,1.1051056,3.9600635,1.3930934435182125,4.124568239793972,jump
10/07/2020, 09:28:17,-0.96909314,0.17228323,-0.98584294,-0.068382226,0.8669889,3.8159723,1.3930934435182125,3.913820471915797,jump
10/07/2020, 09:28:17,-1.5888343,0.51445687,-0.57188463,-0.068382226,0.8669889,3.8159723,1.7652513388137647,3.913820471915797,jump
10/07/2020, 09:28:17,-1.5888343,0.51445687,-0.57188463,0.19171445,0.6618422,3.6437957,1.7652513388137647,3.7083738857351305,jump
10/07/2020, 09:28:17,-2.1367905,0.9906286,-0.28953153,0.19171445,0.6618422,3.6437957,2.3729827707592572,3.7083738857351305,jump
10/07/2020, 09:28:17,-2.1367905,0.9906286,-0.28953153,0.36999667,0.48966557,3.3898046,2.3729827707592572,3.444915839230898,jump
10/07/2020, 09:28:17,-2.5842485,1.4093726,-0.076570325,0.36999667,0.48966557,3.3898046,2.944577148131422,3.444915839230898,jump
10/07/2020, 09:28:17,-2.5842485,1.4093726,-0.076570325,0.41762,0.3602278,3.0674312,2.944577148131422,3.116617520226013,jump
10/07/2020, 09:28:17,-3.0173492,1.6941184,0.13399807,0.41762,0.3602278,3.0674312,3.4630028911726747,3.116617520226013,jump
10/07/2020, 09:28:17,-3.0173492,1.6941184,0.13399807,0.39930335,0.27475002,2.7218568,3.4630028911726747,2.7646763563219743,jump
10/07/2020, 09:28:17,-3.4743786,1.8664017,0.3924229,0.39930335,0.27475002,2.7218568,3.963427494480236,2.7646763563219743,jump
10/07/2020, 09:28:17,-3.4743786,1.8664017,0.3924229,0.40663,0.20636779,2.4092524,3.963427494480236,2.452026260339433,jump
10/07/2020, 09:28:17,-3.912265,1.9238294,0.6771688,0.40663,0.20636779,2.4092524,4.411971802195965,2.452026260339433,jump
10/07/2020, 09:28:17,-3.912265,1.9238294,0.6771688,0.51164556,0.11966889,2.1332812,4.411971802195965,2.19704133524104,jump
10/07/2020, 09:28:17,-4.35733,1.9597218,0.863809,0.51164556,0.11966889,2.1332812,4.855203281017822,2.19704133524104,jump
10/07/2020, 09:28:17,-4.35733,1.9597218,0.863809,0.7082445,-0.0061055557,1.8902801,4.855203281017822,2.018614998882103,jump
10/07/2020, 09:28:17,-4.8263235,2.0841484,0.9762716,0.7082445,-0.0061055557,1.8902801,5.346978538593817,2.018614998882103,jump
10/07/2020, 09:28:17,-4.8263235,2.0841484,0.9762716,0.9524667,-0.15141778,1.6485001,5.346978538593817,1.9098881479626502,jump
10/07/2020, 09:28:17,-5.2570314,2.292324,1.0959128,0.9524667,-0.15141778,1.6485001,5.838848695537316,1.9098881479626502,jump
10/07/2020, 09:28:17,-5.2570314,2.292324,1.0959128,1.1954678,-0.2869611,1.3798556,5.838848695537316,1.848104860915274,jump
10/07/2020, 09:28:18,10.183853,-0.40677986,2.3234308,-2.3652923,1.4543434,0.6020078,10.453452319367836,2.8411504624111807,jump
10/07/2020, 09:28:18,10.183853,-0.40677986,2.3234308,-2.6937711,1.4519012,0.68504333,10.453452319367836,3.13587377388915,jump
10/07/2020, 09:28:18,10.147961,-0.65084773,2.5986054,-2.6937711,1.4519012,0.68504333,10.49559233115394,3.13587377388915,jump
10/07/2020, 09:28:18,10.147961,-0.65084773,2.5986054,-2.8146613,1.4445745,0.7534256,10.49559233115394,3.2521936565982763,jump
10/07/2020, 09:28:18,10.009177,-0.9738788,2.928815,-2.8146613,1.4445745,0.7534256,10.474255340931716,3.2521936565982763,jump
10/07/2020, 09:28:18,10.009177,-0.9738788,2.928815,-2.7487211,1.4384689,0.8071545,10.474255340931716,3.205644869800798,jump
10/07/2020, 09:28:18,9.80818,-1.3567305,3.3355947,-2.7487211,1.4384689,0.8071545,10.448315716674612,3.205644869800798,jump
10/07/2020, 09:28:18,9.80818,-1.3567305,3.3355947,-2.5472379,1.4140468,0.8486723,10.448315716674612,3.0345005613869835,jump
10/07/2020, 09:28:18,9.585648,-1.7012969,3.737589,-2.5472379,1.4140468,0.8486723,10.42826071157974,3.0345005613869835,jump
10/07/2020, 09:28:18,9.585648,-1.7012969,3.737589,-2.2688246,1.3664234,0.88286334,10.42826071157974,2.7917961004617897,jump
10/07/2020, 09:28:18,9.456435,-1.9812572,3.9361932,-2.2688246,1.3664234,0.88286334,10.432792721932877,2.7917961004617897,jump
10/07/2020, 09:28:18,9.456435,-1.9812572,3.9361932,-1.9928534,1.295599,0.88286334,10.432792721932877,2.5356437239758205,jump
10/07/2020, 09:28:18,9.339187,-2.0937197,3.9026937,-1.9928534,1.295599,0.88286334,10.336106055520169,2.5356437239758205,jump
10/07/2020, 09:28:18,9.339187,-2.0937197,3.9026937,-1.79137,1.2247745,0.81936556,10.336106055520169,2.319577342662107,jump
10/07/2020, 09:28:18,9.24826,-2.0315065,3.7854455,-1.79137,1.2247745,0.81936556,10.197397740780545,2.319577342662107,jump
10/07/2020, 09:28:18,9.24826,-2.0315065,3.7854455,-1.6997868,1.2015734,0.71435004,10.197397740780545,2.200761154599049,jump
10/07/2020, 09:28:18,9.193225,-1.942972,3.6131623,-1.6997868,1.2015734,0.71435004,10.067048515969084,2.200761154599049,jump
10/07/2020, 09:28:18,9.193225,-1.942972,3.6131623,-1.7132189,1.2174479,0.60445005,10.067048515969084,2.186928962157794,jump
10/07/2020, 09:28:18,9.020942,-1.8831514,3.37388,-1.7132189,1.2174479,0.60445005,9.813598456136003,2.186928962157794,jump
10/07/2020, 09:28:18,9.020942,-1.8831514,3.37388,-1.7803801,1.2186689,0.5189722,9.813598456136003,2.2190627637371128,jump
10/07/2020, 09:28:19,4.031906,-1.820938,0.4331009,0.3602278,1.51662,5.251999,4.445183752039305,5.478448034679798,jump
10/07/2020, 09:28:19,3.1369905,-1.524228,0.69152576,0.3602278,1.51662,5.251999,3.5555855342519314,5.478448034679798,jump
10/07/2020, 09:28:19,3.1369905,-1.524228,0.69152576,0.5482789,1.4103833,5.0798225,3.5555855342519314,5.30041394606298,jump
10/07/2020, 09:28:19,2.3042881,-1.1509477,0.66041905,0.5482789,1.4103833,5.0798225,2.6590558052979407,5.30041394606298,jump
10/07/2020, 09:28:19,2.3042881,-1.1509477,0.66041905,0.7534256,1.2577446,4.855138,2.6590558052979407,5.0716796809963975,jump
10/07/2020, 09:28:19,1.5601203,-0.7393822,0.5192425,0.7534256,1.2577446,4.855138,1.8028517234513153,5.0716796809963975,jump
10/07/2020, 09:28:19,1.5601203,-0.7393822,0.5192425,0.9329289,1.0672512,4.5620713,1.8028517234513153,4.7772247450426635,jump
10/07/2020, 09:28:19,0.9667004,-0.3182454,0.35174492,0.9329289,1.0672512,4.5620713,1.0768074319523158,4.7772247450426635,jump
10/07/2020, 09:28:19,0.9667004,-0.3182454,0.35174492,1.0367234,0.8950745,4.217718,1.0768074319523158,4.434534910285423,jump
10/07/2020, 09:28:19,0.485743,0.08135597,0.22731815,1.0367234,0.8950745,4.217718,0.542437631932282,4.434534910285423,jump
10/07/2020, 09:28:19,0.485743,0.08135597,0.22731815,1.0452712,0.7436567,3.877028,0.542437631932282,4.083743759977585,jump
10/07/2020, 09:28:19,-0.009571291,0.485743,0.15553348,1.0452712,0.7436567,3.877028,0.5101259853430288,4.083743759977585,jump
10/07/2020, 09:28:19,-0.009571291,0.485743,0.15553348,0.9866578,0.6117767,3.580298,0.5101259853430288,3.763814254459634,jump
10/07/2020, 09:28:19,-0.43788654,0.8853444,0.18424734,0.9866578,0.6117767,3.580298,1.004751901992435,3.763814254459634,jump
10/07/2020, 09:28:19,-0.43788654,0.8853444,0.18424734,0.89263225,0.5092034,3.3189802,1.004751901992435,3.474436657045364,jump
10/07/2020, 09:28:19,-0.8350951,1.3351951,0.25842485,0.89263225,0.5092034,3.3189802,1.5959051040947412,3.474436657045364,jump
10/07/2020, 09:28:19,-0.8350951,1.3351951,0.25842485,0.7778478,0.42128336,3.0588834,1.5959051040947412,3.1842259253695806,jump
10/07/2020, 09:28:19,-1.2634103,1.8329022,0.5024927,0.7778478,0.42128336,3.0588834,2.282155790120999,3.1842259253695806,jump
10/07/2020, 09:28:19,-1.2634103,1.8329022,0.5024927,0.6801589,0.35900667,2.7645957,2.282155790120999,2.8695803844366745,jump
10/07/2020, 09:28:19,-1.6749759,2.2660031,0.80877405,0.6801589,0.35900667,2.7645957,2.9316258008226845,2.8695803844366745,jump
10/07/2020, 09:28:20,7.499106,-2.7852457,2.8905299,0.46158,0.32481557,0.88408446,8.50584187832153,1.0488882673223843,jump
10/07/2020, 09:28:20,7.499106,-2.7852457,2.8905299,0.6801589,0.27963445,0.7815111,8.50584187832153,1.0731128615212977,jump
10/07/2020, 09:28:20,7.3172517,-2.498107,2.940779,0.6801589,0.27963445,0.7815111,8.272296628052832,1.0731128615212977,jump
10/07/2020, 09:28:20,7.3172517,-2.498107,2.940779,0.7900589,0.21369445,0.68260115,8.272296628052832,1.0657404642743482,jump
10/07/2020, 09:28:20,7.1712894,-2.1942184,2.952743,0.7900589,0.21369445,0.68260115,8.059818745056099,1.0657404642743482,jump
10/07/2020, 09:28:20,7.1712894,-2.1942184,2.952743,0.80471224,0.14287001,0.5678167,8.059818745056099,0.9951830978194892,jump
10/07/2020, 09:28:20,7.042077,-1.9477576,2.9886355,0.80471224,0.14287001,0.5678167,7.894083319086936,0.9951830978194892,jump
10/07/2020, 09:28:20,7.042077,-1.9477576,2.9886355,0.7863956,0.091583334,0.44082114,7.894083319086936,0.9061615969885408,jump
10/07/2020, 09:28:20,6.9128647,-1.7611175,2.9336007,0.7863956,0.091583334,0.44082114,7.713316129437981,0.9061615969885408,jump
10/07/2020, 09:28:20,6.9128647,-1.7611175,2.9336007,0.7754056,0.034191113,0.30894113,7.713316129437981,0.8353846263227147,jump
10/07/2020, 09:28:20,6.7166533,-1.6103697,2.8713872,0.7754056,0.034191113,0.30894113,7.480079371136466,0.8353846263227147,jump
10/07/2020, 09:28:20,6.7166533,-1.6103697,2.8713872,0.72411895,-0.05250778,0.18683001,7.480079371136466,0.7496737770307708,jump
10/07/2020, 09:28:20,6.556334,-1.524228,2.7900312,0.72411895,-0.05250778,0.18683001,7.286498525179364,0.7496737770307708,jump
10/07/2020, 09:28:20,6.556334,-1.524228,2.7900312,0.60811335,-0.16729222,0.07693,7.286498525179364,0.6353792232875983,jump
10/07/2020, 09:28:20,6.503692,-1.4285151,2.7230322,0.60811335,-0.16729222,0.07693,7.193995514767553,0.6353792232875983,jump
10/07/2020, 09:28:20,6.503692,-1.4285151,2.7230322,0.4566956,-0.27475002,-0.036633335,7.193995514767553,0.5342288233011703,jump
10/07/2020, 09:28:20,6.558727,-1.2753744,2.7349963,0.4566956,-0.27475002,-0.036633335,7.219673249534718,0.5342288233011703,jump
10/07/2020, 09:28:20,6.558727,-1.2753744,2.7349963,0.30039334,-0.35412225,-0.16240779,7.219673249534718,0.4919502192182909,jump
10/07/2020, 09:28:20,6.6687965,-1.1844472,2.804388,0.30039334,-0.35412225,-0.16240779,7.330781315355975,0.4919502192182909,jump
10/07/2020, 09:28:20,6.6687965,-1.1844472,2.804388,0.15019667,-0.3931978,-0.2955089,7.330781315355975,0.5142849974492885,jump
10/07/2020, 09:28:21,-4.2999024,1.6247265,1.6677973,0.34191114,-0.46768558,-0.80104893,4.889830796657559,0.9885911303728757,jump
10/07/2020, 09:28:21,-4.3932223,1.727618,1.8735801,0.34191114,-0.46768558,-0.80104893,5.07891412844493,0.9885911303728757,jump
10/07/2020, 09:28:21,-4.3932223,1.727618,1.8735801,0.27719223,-0.53973114,-1.1722667,5.07891412844493,1.3199827691246313,jump
10/07/2020, 09:28:21,-4.3405805,1.6534405,2.1535404,0.27719223,-0.53973114,-1.1722667,5.11978908771858,1.3199827691246313,jump
10/07/2020, 09:28:21,-4.3405805,1.6534405,2.1535404,0.23445335,-0.58247,-1.51662,5.11978908771858,1.6414554577180371,jump
10/07/2020, 09:28:21,-4.26401,1.4213367,2.4454648,0.23445335,-0.58247,-1.51662,5.116862034533712,1.6414554577180371,jump
10/07/2020, 09:28:21,-4.26401,1.4213367,2.4454648,0.26498112,-0.60811335,-1.8109078,5.116862034533712,1.928575652291334,jump
10/07/2020, 09:28:21,-4.2424746,1.1437693,2.7876384,0.26498112,-0.60811335,-1.8109078,5.20362628183182,1.928575652291334,jump
10/07/2020, 09:28:21,-4.2424746,1.1437693,2.7876384,0.35656446,-0.6239878,-2.064899,5.20362628183182,2.1863912572188817,jump
10/07/2020, 09:28:21,-4.2759743,0.8446664,2.993421,0.35656446,-0.6239878,-2.064899,5.287531286076564,2.1863912572188817,jump
10/07/2020, 09:28:21,-4.2759743,0.8446664,2.993421,0.47501224,-0.6752745,-2.3103423,5.287531286076564,2.4534290019042646,jump
10/07/2020, 09:28:21,-4.345366,0.66999036,2.9718857,0.47501224,-0.6752745,-2.3103423,5.306900910049834,2.4534290019042646,jump
10/07/2020, 09:28:21,-4.345366,0.66999036,2.9718857,0.5507211,-0.78029,-2.57166,5.306900910049834,2.743279352597374,jump
10/07/2020, 09:28:21,-4.35733,0.5694918,2.6943183,0.5507211,-0.78029,-2.57166,5.1546091382853305,2.743279352597374,jump
10/07/2020, 09:28:21,-4.35733,0.5694918,2.6943183,0.5592689,-0.93537116,-2.8427467,5.1546091382853305,3.044488446101298,jump
10/07/2020, 09:28:21,-4.156333,0.49052864,2.5028925,0.5592689,-0.93537116,-2.8427467,4.876493918994656,3.044488446101298,jump
10/07/2020, 09:28:21,-4.156333,0.49052864,2.5028925,0.49577114,-1.0867889,-3.1162758,4.876493918994656,3.337375301544617,jump
10/07/2020, 09:28:21,-3.7280176,0.3589234,2.5052853,0.49577114,-1.0867889,-3.1162758,4.50592890001232,3.337375301544617,jump
10/07/2020, 09:28:21,-3.7280176,0.3589234,2.5052853,0.3834289,-1.2027946,-3.3910258,4.50592890001232,3.618395819711088,jump
10/07/2020, 09:28:21,-3.0987053,0.16031912,2.6632116,0.3834289,-1.2027946,-3.3910258,4.089055226685451,3.618395819711088,jump
10/07/2020, 09:28:22,6.6089764,-1.308874,3.9457645,0.1856089,-0.10501556,0.24422224,7.807738313777747,0.32422743761219636,jump
10/07/2020, 09:28:22,6.573084,-1.4213367,3.9984066,0.1856089,-0.10501556,0.24422224,7.823866388454324,0.32422743761219636,jump
10/07/2020, 09:28:22,6.573084,-1.4213367,3.9984066,0.13798556,-0.14531223,0.091583334,7.823866388454324,0.2203251384863233,jump
10/07/2020, 09:28:22,6.5515485,-1.5864414,4.0510488,0.13798556,-0.14531223,0.091583334,7.8645139600346985,0.2203251384863233,jump
10/07/2020, 09:28:22,6.5515485,-1.5864414,4.0510488,0.12455334,-0.19415668,-0.06227667,7.8645139600346985,0.23893248513889934,jump
10/07/2020, 09:28:22,6.5228343,-1.7371893,4.0271206,0.12455334,-0.19415668,-0.06227667,7.860209552277948,0.23893248513889934,jump
10/07/2020, 09:28:22,6.5228343,-1.7371893,4.0271206,0.13554333,-0.24544334,-0.21247335,7.860209552277948,0.35179447608549735,jump
10/07/2020, 09:28:22,6.4606214,-1.8281165,4.0127635,0.13554333,-0.24544334,-0.21247335,7.822014401445296,0.35179447608549735,jump
10/07/2020, 09:28:22,6.4606214,-1.8281165,4.0127635,0.15386,-0.29306668,-0.3602278,7.822014401445296,0.48920858823687946,jump
10/07/2020, 09:28:22,6.4869423,-1.9142581,3.952943,0.15386,-0.29306668,-0.3602278,7.833936653788282,0.48920858823687946,jump
10/07/2020, 09:28:22,6.4869423,-1.9142581,3.952943,0.17217667,-0.3394689,-0.5043189,7.833936653788282,0.6318397617120172,jump
10/07/2020, 09:28:22,6.5946193,-1.9740787,3.9194436,0.17217667,-0.3394689,-0.5043189,7.92136529261081,0.6318397617120172,jump
10/07/2020, 09:28:22,6.5946193,-1.9740787,3.9194436,0.20270446,-0.38831335,-0.6325356,7.92136529261081,0.7694008149084594,jump
10/07/2020, 09:28:22,6.7932234,-2.012364,3.9218364,0.20270446,-0.38831335,-0.6325356,8.098042539733795,0.7694008149084594,jump
10/07/2020, 09:28:22,6.7932234,-2.012364,3.9218364,0.24910668,-0.4273889,-0.75831,8.098042539733795,0.9054001874807102,jump
10/07/2020, 09:28:22,6.984649,-2.0745773,3.871587,0.24910668,-0.4273889,-0.75831,8.250962458066866,0.9054001874807102,jump
10/07/2020, 09:28:22,6.984649,-2.0745773,3.871587,0.28818223,-0.46035892,-0.88042116,8.250962458066866,1.0344664093145992,jump
10/07/2020, 09:28:22,7.173682,-2.0745773,3.8668015,0.28818223,-0.46035892,-0.88042116,8.409384129536475,1.0344664093145992,jump
10/07/2020, 09:28:22,7.173682,-2.0745773,3.8668015,0.33336335,-0.49577114,-0.9915423,8.409384129536475,1.1576166211309813,jump
10/07/2020, 09:28:22,7.2957163,-2.1176481,3.8739798,0.33336335,-0.49577114,-0.9915423,8.527580503624817,1.1576166211309813,jump
10/07/2020, 09:28:23,-5.2283173,2.4382863,2.1343977,0.63009334,-0.16118668,0.14897557,6.1511133314210715,0.6672274554837732,jump
10/07/2020, 09:28:23,-5.2283173,2.4382863,2.1343977,0.7766267,-0.25643334,-0.1306589,6.1511133314210715,0.8282383981974912,jump
10/07/2020, 09:28:23,-5.5513487,2.5052853,1.9166509,0.7766267,-0.25643334,-0.1306589,6.38494143469045,0.8282383981974912,jump
10/07/2020, 09:28:23,-5.5513487,2.5052853,1.9166509,0.83401895,-0.37854445,-0.4041878,6.38494143469045,1.0011250065360946,jump
10/07/2020, 09:28:23,-5.831309,2.672783,1.6606189,0.83401895,-0.37854445,-0.4041878,6.626129063195069,1.0011250065360946,jump
10/07/2020, 09:28:23,-5.831309,2.672783,1.6606189,0.78029,-0.5128667,-0.67283225,6.626129063195069,1.1509074509224715,jump
10/07/2020, 09:28:23,-6.046663,2.9240294,1.4333007,0.78029,-0.5128667,-0.67283225,6.867782010323323,1.1509074509224715,jump
10/07/2020, 09:28:23,-6.046663,2.9240294,1.4333007,0.60811335,-0.6386411,-0.94880337,6.867782010323323,1.29533476343341,jump
10/07/2020, 09:28:23,-6.1328044,3.2015967,1.3686945,0.60811335,-0.6386411,-0.94880337,7.052292971249625,1.29533476343341,jump
10/07/2020, 09:28:23,-6.1328044,3.2015967,1.3686945,0.3382478,-0.7522045,-1.2272167,7.052292971249625,1.4786088170398382,jump
10/07/2020, 09:28:23,-6.094519,3.4648073,1.3447664,0.3382478,-0.7522045,-1.2272167,7.138378637466438,1.4786088170398382,jump
10/07/2020, 09:28:23,-6.094519,3.4648073,1.3447664,0.02198,-0.8401245,-1.5251678,7.138378637466438,1.741387137709275,jump
10/07/2020, 09:28:23,-5.9413786,3.6993039,1.3710874,0.02198,-0.8401245,-1.5251678,7.131949903454533,1.741387137709275,jump
10/07/2020, 09:28:23,-5.9413786,3.6993039,1.3710874,-0.2942878,-0.8950745,-1.8292245,7.131949903454533,2.057626253278113,jump
10/07/2020, 09:28:23,-5.651847,3.7806597,1.5146568,-0.2942878,-0.8950745,-1.8292245,6.966415575429836,2.057626253278113,jump
10/07/2020, 09:28:23,-5.651847,3.7806597,1.5146568,-0.5678167,-0.92071784,-2.1369445,6.966415575429836,2.3951344519839504,jump
10/07/2020, 09:28:23,-5.4053864,3.7447674,1.7611175,-0.5678167,-0.92071784,-2.1369445,6.807570817769174,2.3951344519839504,jump
10/07/2020, 09:28:23,-5.4053864,3.7447674,1.7611175,-0.74609894,-0.9072856,-2.43978,6.807570817769174,2.7078325580377505,jump
10/07/2020, 09:28:23,-5.1828537,3.562913,2.1296122,-0.74609894,-0.9072856,-2.43978,6.64014828459433,2.7078325580377505,jump
10/07/2020, 09:28:23,-5.1828537,3.562913,2.1296122,-0.80471224,-0.88408446,-2.7401733,6.64014828459433,2.9896014873175534,jump
10/07/2020, 09:28:24,7.30768,-2.2420747,3.4767714,-0.1526389,0.31260446,0.96956223,8.397441695013388,1.0300830560066987,jump
10/07/2020, 09:28:24,7.30768,-2.2420747,3.4767714,-0.117226675,0.26009667,0.8767578,8.397441695013388,0.9220068392214028,jump
10/07/2020, 09:28:24,7.2646093,-2.158326,3.4839497,-0.117226675,0.26009667,0.8767578,8.340912707580651,0.9220068392214028,jump
10/07/2020, 09:28:24,7.2646093,-2.158326,3.4839497,-0.10379445,0.20148334,0.76930004,8.340912707580651,0.8019921324001481,jump
10/07/2020, 09:28:24,7.21436,-2.1367905,3.5389848,-0.10379445,0.20148334,0.76930004,8.314883076338184,0.8019921324001481,jump
10/07/2020, 09:28:24,7.21436,-2.1367905,3.5389848,-0.09036223,0.14164889,0.6557367,8.314883076338184,0.6769197439583667,jump
10/07/2020, 09:28:24,7.1688967,-2.1870399,3.6107693,-0.09036223,0.14164889,0.6557367,8.319487820040392,0.6769197439583667,jump
10/07/2020, 09:28:24,7.1688967,-2.1870399,3.6107693,-0.08059334,0.06594,0.53851,8.319487820040392,0.5484855664663647,jump
10/07/2020, 09:28:24,7.1138616,-2.2779672,3.682554,-0.08059334,0.06594,0.53851,8.328106924662308,0.5484855664663647,jump
10/07/2020, 09:28:24,7.1138616,-2.2779672,3.682554,-0.07448778,-0.008547778,0.41884112,8.328106924662308,0.42549897900448275,jump
10/07/2020, 09:28:24,7.018149,-2.349752,3.7950168,-0.07448778,-0.008547778,0.41884112,8.317325317917154,0.42549897900448275,jump
10/07/2020, 09:28:24,7.018149,-2.349752,3.7950168,-0.070824444,-0.08059334,0.30649891,8.317325317917154,0.3247352356115478,jump
10/07/2020, 09:28:24,6.9320073,-2.3976083,3.9074793,-0.070824444,-0.08059334,0.30649891,8.310814955321293,0.3247352356115478,jump
10/07/2020, 09:28:24,6.9320073,-2.3976083,3.9074793,-0.06594,-0.14042778,0.19904111,8.310814955321293,0.2523596850873982,jump
10/07/2020, 09:28:24,6.8458657,-2.4239295,4.0127635,-0.06594,-0.14042778,0.19904111,8.29720329063556,0.2523596850873982,jump
10/07/2020, 09:28:24,6.8458657,-2.4239295,4.0127635,-0.047623336,-0.2075889,0.09402556,8.29720329063556,0.23281309638867073,jump
10/07/2020, 09:28:24,6.7740808,-2.4311078,4.0845485,-0.047623336,-0.2075889,0.09402556,8.27538465704059,0.23281309638867073,jump
10/07/2020, 09:28:24,6.7740808,-2.4311078,4.0845485,-0.02198,-0.27475002,-0.013432222,8.27538465704059,0.27595492523275983,jump
10/07/2020, 09:28:24,6.721439,-2.4478576,4.1108694,-0.02198,-0.27475002,-0.013432222,8.250393620163747,0.27595492523275983,jump
10/07/2020, 09:28:24,6.721439,-2.4478576,4.1108694,0.03297,-0.34679556,-0.123332225,8.250393620163747,0.3695470447287742,jump
10/07/2020, 09:28:25,-5.871987,3.1561332,-0.37806597,0.123332225,0.012211111,0.61788225,6.677150608789607,0.6301891985161315,jump
10/07/2020, 09:28:25,-5.871987,3.1561332,-0.37806597,0.13310112,-0.24300112,0.34313223,6.677150608789607,0.44102741123108935,jump
10/07/2020, 09:28:25,-6.0394845,2.9910283,-0.047856454,0.13310112,-0.24300112,0.34313223,6.739726524203587,0.44102741123108935,jump
10/07/2020, 09:28:25,-6.0394845,2.9910283,-0.047856454,0.16729222,-0.47745445,0.06716111,6.739726524203587,0.5103528760926558,jump
10/07/2020, 09:28:25,-6.06102,2.9503503,0.27756742,0.16729222,-0.47745445,0.06716111,6.746671228819505,0.5103528760926558,jump
10/07/2020, 09:28:25,-6.06102,2.9503503,0.27756742,0.16362889,-0.7021389,-0.2185789,6.746671228819505,0.7533592686195452,jump
10/07/2020, 09:28:25,-5.938986,2.9479575,0.65324056,0.16362889,-0.7021389,-0.2185789,6.662486725709885,0.7533592686195452,jump
10/07/2020, 09:28:25,-5.938986,2.9479575,0.65324056,0.09280445,-0.8865267,-0.4933289,6.662486725709885,1.0187814607129302,jump
10/07/2020, 09:28:25,-5.7355957,2.9048867,1.0313065,0.09280445,-0.8865267,-0.4933289,6.511452836987546,1.0187814607129302,jump
10/07/2020, 09:28:25,-5.7355957,2.9048867,1.0313065,-0.03174889,-1.0355023,-0.7534256,6.511452836987546,1.2809852331257126,jump
10/07/2020, 09:28:25,-5.541777,2.7756743,1.4069797,-0.03174889,-1.0355023,-0.7534256,6.355726054620224,1.2809852331257126,jump
10/07/2020, 09:28:25,-5.541777,2.7756743,1.4069797,-0.15752333,-1.1686034,-0.99886894,6.355726054620224,1.545375914919588,jump
10/07/2020, 09:28:25,-5.359923,2.589034,1.727618,-0.15752333,-1.1686034,-0.99886894,6.198107347754844,1.545375914919588,jump
10/07/2020, 09:28:25,-5.359923,2.589034,1.727618,-0.2503278,-1.2992623,-1.2272167,6.198107347754844,1.8046626749682146,jump
10/07/2020, 09:28:25,-5.2402816,2.361716,1.8664017,-0.2503278,-1.2992623,-1.2272167,6.043319359087041,1.8046626749682146,jump
10/07/2020, 09:28:25,-5.2402816,2.361716,1.8664017,-0.2955089,-1.4738811,-1.4519012,6.043319359087041,2.0898966873820113,jump
10/07/2020, 09:28:25,-5.1828537,2.0673988,1.9980069,-0.2955089,-1.4738811,-1.4519012,5.9268998588546795,2.0898966873820113,jump
10/07/2020, 09:28:25,-5.1828537,2.0673988,1.9980069,-0.26986557,-1.6643745,-1.6753645,5.9268998588546795,2.3769341586988593,jump
10/07/2020, 09:28:25,-5.111069,1.8376877,2.376073,-0.26986557,-1.6643745,-1.6753645,5.928393284529839,2.3769341586988593,jump
10/07/2020, 09:28:25,-5.111069,1.8376877,2.376073,-0.16607112,-1.8475412,-1.8939434,5.928393284529839,2.6510393927605245,jump
10/07/2020, 09:28:26,7.568498,-1.4213367,4.321438,-0.29917222,0.5470578,0.7204556,8.830469231951836,0.9528024539122836,jump
10/07/2020, 09:28:26,7.568498,-1.4213367,4.321438,-0.32359445,0.5018767,0.64963114,8.830469231951836,0.8823911967124936,jump
10/07/2020, 09:28:26,7.463214,-1.3567305,4.2352962,-0.32359445,0.5018767,0.64963114,8.687808347837997,0.8823911967124936,jump
10/07/2020, 09:28:26,7.463214,-1.3567305,4.2352962,-0.3504589,0.45425335,0.56171113,8.687808347837997,0.8029239890731104,jump
10/07/2020, 09:28:26,7.405786,-1.3710874,4.115655,-0.3504589,0.45425335,0.56171113,8.582782952383749,0.8029239890731104,jump
10/07/2020, 09:28:26,7.405786,-1.3710874,4.115655,-0.36755446,0.39686114,0.46768558,8.582782952383749,0.715069815706483,jump
10/07/2020, 09:28:26,7.3746796,-1.430908,4.06062,-0.36755446,0.39686114,0.46768558,8.539439660119914,0.715069815706483,jump
10/07/2020, 09:28:26,7.3746796,-1.430908,4.06062,-0.36267,0.32725778,0.3724389,8.539439660119914,0.6142783798929391,jump
10/07/2020, 09:28:26,7.4440713,-1.5122639,4.0271206,-0.36267,0.32725778,0.3724389,8.597606628991164,0.6142783798929391,jump
10/07/2020, 09:28:26,7.4440713,-1.5122639,4.0271206,-0.33580557,0.2613178,0.2759711,8.597606628991164,0.507161138905173,jump
10/07/2020, 09:28:26,7.463214,-1.5720844,3.9864426,-0.33580557,0.2613178,0.2759711,8.605970938896897,0.507161138905173,jump
10/07/2020, 09:28:26,7.463214,-1.5720844,3.9864426,-0.3052778,0.19415668,0.1856089,8.605970938896897,0.4066226854378395,jump
10/07/2020, 09:28:26,7.489535,-1.6295122,3.95055,-0.3052778,0.19415668,0.1856089,8.622951249545675,0.4066226854378395,jump
10/07/2020, 09:28:26,7.489535,-1.6295122,3.95055,-0.27841336,0.13188,0.10013112,8.622951249545675,0.3239329737032919,jump
10/07/2020, 09:28:26,7.460821,-1.6582261,4.005585,-0.27841336,0.13188,0.10013112,8.628921074373281,0.3239329737032919,jump
10/07/2020, 09:28:26,7.460821,-1.6582261,4.005585,-0.25765446,0.078151114,0.026864445,8.628921074373281,0.2705829169297298,jump
10/07/2020, 09:28:26,7.372287,-1.6797615,4.007978,-0.25765446,0.078151114,0.026864445,8.557809226251665,0.2705829169297298,jump
10/07/2020, 09:28:26,7.372287,-1.6797615,4.007978,-0.24910668,0.014653334,-0.045181114,8.557809226251665,0.25359453664008635,jump
10/07/2020, 09:28:26,7.259824,-1.6606189,4.0127635,-0.24910668,0.014653334,-0.045181114,8.45960800736694,0.25359453664008635,jump
10/07/2020, 09:28:26,7.259824,-1.6606189,4.0127635,-0.24178001,-0.06227667,-0.12455334,8.45960800736694,0.2790152182676752,jump
10/07/2020, 09:28:27,-4.6564326,1.4907285,2.3258235,-0.3724389,-0.9915423,-1.9452301,5.4142489269386385,2.2149011438356574,jump
10/07/2020, 09:28:27,-4.6564326,1.4907285,2.3258235,-0.5250778,-1.1173167,-2.1906734,5.4142489269386385,2.5145880593287506,jump
10/07/2020, 09:28:27,-4.476971,1.39023,2.3138595,-0.5250778,-1.1173167,-2.1906734,5.227805999985672,2.5145880593287506,jump
10/07/2020, 09:28:27,-4.476971,1.39023,2.3138595,-0.68260115,-1.2321012,-2.481298,5.227805999985672,2.8532187652296885,jump
10/07/2020, 09:28:27,-4.197011,1.1485549,2.3856442,-0.68260115,-1.2321012,-2.481298,4.962396389567468,2.8532187652296885,jump
10/07/2020, 09:28:27,-4.197011,1.1485549,2.3856442,-0.8425667,-1.3126945,-2.8000078,4.962396389567468,3.205172298857242,jump
10/07/2020, 09:28:27,-3.8476589,0.7513463,2.6129622,-0.8425667,-1.3126945,-2.8000078,4.711323778547744,3.205172298857242,jump
10/07/2020, 09:28:27,-3.8476589,0.7513463,2.6129622,-0.9549089,-1.3603178,-3.1065068,4.711323778547744,3.5231662266422434,jump
10/07/2020, 09:28:27,-3.4528432,0.2416751,2.9168508,-0.9549089,-1.3603178,-3.1065068,4.526428123885773,3.5231662266422434,jump
10/07/2020, 09:28:27,-3.4528432,0.2416751,2.9168508,-0.9842156,-1.3835189,-3.3775935,4.526428123885773,3.780336359460501,jump
10/07/2020, 09:28:27,-3.1489546,-0.27756742,3.1322048,-0.9842156,-1.3835189,-3.3775935,4.450130971056617,3.780336359460501,jump
10/07/2020, 09:28:27,-3.1489546,-0.27756742,3.1322048,-0.96223557,-1.4103833,-3.6315846,4.450130971056617,4.012914838008017,jump
10/07/2020, 09:28:27,-2.9790642,-0.7082755,3.1082766,-0.96223557,-1.4103833,-3.6315846,4.3632397710968505,4.012914838008017,jump
10/07/2020, 09:28:27,-2.9790642,-0.7082755,3.1082766,-0.9329289,-1.4885345,-3.867259,4.3632397710968505,4.247562071433885,jump
10/07/2020, 09:28:27,-2.8546374,-0.8781659,2.8115666,-0.9329289,-1.4885345,-3.867259,4.101833327034148,4.247562071433885,jump
10/07/2020, 09:28:27,-2.8546374,-0.8781659,2.8115666,-0.93903446,-1.6338468,-4.11026,4.101833327034148,4.521667646250854,jump
10/07/2020, 09:28:27,-2.7038896,-0.8279166,2.3665016,-0.93903446,-1.6338468,-4.11026,3.6873831679381848,4.521667646250854,jump
10/07/2020, 09:28:27,-2.7038896,-0.8279166,2.3665016,-1.0232911,-1.8182346,-4.360588,3.6873831679381848,4.83402833796261,jump
10/07/2020, 09:28:27,-2.3545375,-0.6891329,1.8400806,-1.0232911,-1.8182346,-4.360588,3.0666997987006743,4.83402833796261,jump
10/07/2020, 09:28:27,-2.3545375,-0.6891329,1.8400806,-1.18692,-1.9940746,-4.6402225,3.0666997987006743,5.188138196753091,jump
10/07/2020, 09:28:28,8.133204,-3.5030923,2.3808584,-0.09402556,-0.26864445,0.6068922,9.17001402386889,0.6703199415824606,jump
10/07/2020, 09:28:28,8.200203,-3.3762727,2.469393,-0.09402556,-0.26864445,0.6068922,9.205457476360124,0.6703199415824606,jump
10/07/2020, 09:28:28,8.200203,-3.3762727,2.469393,0.042738892,-0.23933779,0.50676113,9.205457476360124,0.5620640851379327,jump
10/07/2020, 09:28:28,8.221739,-3.2350962,2.5387847,0.042738892,-0.23933779,0.50676113,9.19283768176265,0.5620640851379327,jump
10/07/2020, 09:28:28,8.221739,-3.2350962,2.5387847,0.16240779,-0.20881,0.38953447,9.19283768176265,0.4708662353536353,jump
10/07/2020, 09:28:28,8.2145605,-3.1058838,2.5603201,0.16240779,-0.20881,0.38953447,9.147718730521426,0.4708662353536353,jump
10/07/2020, 09:28:28,8.2145605,-3.1058838,2.5603201,0.25643334,-0.19049335,0.27475002,9.147718730521426,0.4213470625517732,jump
10/07/2020, 09:28:28,8.154739,-2.9790642,2.5603201,0.25643334,-0.19049335,0.27475002,9.051510218254098,0.4213470625517732,jump
10/07/2020, 09:28:28,8.154739,-2.9790642,2.5603201,0.3174889,-0.16973445,0.16851334,9.051510218254098,0.39749935443366885,jump
10/07/2020, 09:28:28,8.118847,-2.8163524,2.5842485,0.3174889,-0.16973445,0.16851334,8.973620008963715,0.39749935443366885,jump
10/07/2020, 09:28:28,8.118847,-2.8163524,2.5842485,0.3602278,-0.15019667,0.051286668,8.973620008963715,0.39364123967770903,jump
10/07/2020, 09:28:28,8.087741,-2.6321049,2.589034,0.3602278,-0.15019667,0.051286668,8.890592014667565,0.39364123967770903,jump
10/07/2020, 09:28:28,8.087741,-2.6321049,2.589034,0.40540892,-0.13310112,-0.08425667,8.890592014667565,0.4349384858368909,jump
10/07/2020, 09:28:28,8.114061,-2.3425734,2.5459633,0.40540892,-0.13310112,-0.08425667,8.820859986273152,0.4349384858368909,jump
10/07/2020, 09:28:28,8.114061,-2.3425734,2.5459633,0.4713489,-0.11478445,-0.24666445,8.820859986273152,0.5442321351111692,jump
10/07/2020, 09:28:28,8.149954,-1.9525433,2.5124638,0.4713489,-0.11478445,-0.24666445,8.749094078426896,0.5442321351111692,jump
10/07/2020, 09:28:28,8.149954,-1.9525433,2.5124638,0.57270116,-0.09280445,-0.4481478,8.749094078426896,0.7331000841730193,jump
10/07/2020, 09:28:28,8.13799,-1.3639089,2.5028925,0.57270116,-0.09280445,-0.4481478,8.622737355077703,0.7331000841730193,jump
10/07/2020, 09:28:28,8.13799,-1.3639089,2.5028925,0.6935911,-0.08792,-0.6984756,8.622737355077703,0.9882645032777804,jump
10/07/2020, 09:28:28,8.10449,-0.76570326,2.5603201,0.6935911,-0.08792,-0.6984756,8.53371568536448,0.9882645032777804,jump
10/07/2020, 09:28:29,-2.0315065,3.0173492,1.524228,-2.514268,-2.548459,-5.1701846,3.94394297575477,6.2886402068203155,jump
10/07/2020, 09:28:29,-2.0315065,3.0173492,1.524228,-2.9294457,-2.5863135,-5.514538,3.94394297575477,6.758757066567367,jump
10/07/2020, 09:28:29,-1.105484,2.6536403,1.591227,-2.9294457,-2.5863135,-5.514538,3.2857122693214507,6.758757066567367,jump
10/07/2020, 09:28:29,-1.105484,2.6536403,1.591227,-3.3031056,-2.54968,-5.8723235,3.2857122693214507,7.203857166350746,jump
10/07/2020, 09:28:29,-0.031106694,1.9788643,2.0673988,-3.3031056,-2.54968,-5.8723235,2.8619939439114312,7.203857166350746,jump
10/07/2020, 09:28:29,-0.031106694,1.9788643,2.0673988,-3.6645546,-2.3982623,-6.2349935,2.8619939439114312,7.619433422794615,jump
10/07/2020, 09:28:29,1.2777673,0.5288138,2.9718857,-3.6645546,-2.3982623,-6.2349935,3.2778709232626073,7.619433422794615,jump
10/07/2020, 09:28:29,1.2777673,0.5288138,2.9718857,-4.1285768,-2.1430502,-6.606211,3.2778709232626073,8.0795938255691,jump
10/07/2020, 09:28:29,2.7708886,-2.5411777,3.4695928,-4.1285768,-2.1430502,-6.606211,5.116002547963271,8.0795938255691,jump
10/07/2020, 09:28:29,2.7708886,-2.5411777,3.4695928,-5.0834856,-1.9513357,-6.691689,5.116002547963271,8.627180225114465,jump
10/07/2020, 09:28:29,3.9816568,-8.532805,3.199204,-5.0834856,-1.9513357,-6.691689,9.94471043045609,8.627180225114465,jump
10/07/2020, 09:28:29,3.9816568,-8.532805,3.199204,-5.9822235,-1.7376412,-6.14341,9.94471043045609,8.749164764873433,jump
10/07/2020, 09:28:29,4.723432,-11.763116,3.8691943,-5.9822235,-1.7376412,-6.14341,13.253390888007694,8.749164764873433,jump
10/07/2020, 09:28:29,4.723432,-11.763116,3.8691943,-5.6305437,-1.4238156,-5.690378,13.253390888007694,8.13084726687275,jump
10/07/2020, 09:28:29,4.7449675,-10.578669,4.046263,-5.6305437,-1.4238156,-5.690378,12.27986935844623,8.13084726687275,jump
10/07/2020, 09:28:29,4.7449675,-10.578669,4.046263,-4.5779457,-1.2565234,-5.910178,12.27986935844623,7.58067570012832,jump
10/07/2020, 09:28:29,4.359723,-8.350951,3.1657043,-4.5779457,-1.2565234,-5.910178,9.93817159688858,7.58067570012832,jump
10/07/2020, 09:28:29,4.359723,-8.350951,3.1657043,-3.658449,-1.2015734,-6.5170703,9.93817159688858,7.569691696775883,jump
10/07/2020, 09:28:29,4.0677986,-6.5443697,2.3186452,-3.658449,-1.2015734,-6.5170703,8.046855040970408,7.569691696775883,jump
10/07/2020, 09:28:29,4.0677986,-6.5443697,2.3186452,-3.0454512,-1.0965579,-6.9908614,8.046855040970408,7.703853273544277,jump
10/07/2020, 09:28:30,7.9704924,-2.524428,2.2372892,-1.0696933,0.77418447,0.9878789,8.654879987902476,1.6490937384241595,jump
10/07/2020, 09:28:30,7.8604226,-2.507678,2.120041,-1.0696933,0.77418447,0.9878789,8.518759659091483,1.6490937384241595,jump
10/07/2020, 09:28:30,7.8604226,-2.507678,2.120041,-0.8450089,0.63742,0.89019006,8.518759659091483,1.3830338621339398,jump
10/07/2020, 09:28:30,7.752745,-2.4311078,2.07697,-0.8450089,0.63742,0.89019006,8.386247499362497,1.3830338621339398,jump
10/07/2020, 09:28:30,7.752745,-2.4311078,2.07697,-0.63986224,0.5140878,0.79616445,8.386247499362497,1.1434980471523053,jump
10/07/2020, 09:28:30,7.649854,-2.3641088,2.0937197,-0.63986224,0.5140878,0.79616445,8.276046261111013,1.1434980471523053,jump
10/07/2020, 09:28:30,7.649854,-2.3641088,2.0937197,-0.46524334,0.39686114,0.7021389,8.276046261111013,0.9311010483165547,jump
10/07/2020, 09:28:30,7.578069,-2.2779672,2.1487548,-0.46524334,0.39686114,0.7021389,8.19959846117821,0.9311010483165547,jump
10/07/2020, 09:28:30,7.578069,-2.2779672,2.1487548,-0.32970002,0.29062447,0.6032289,8.19959846117821,0.7463577060395625,jump
10/07/2020, 09:28:30,7.475178,-2.1391835,2.201397,-0.32970002,0.29062447,0.6032289,8.080874782551591,0.7463577060395625,jump
10/07/2020, 09:28:30,7.475178,-2.1391835,2.201397,-0.23201112,0.19415668,0.49943447,8.080874782551591,0.5839184599605266,jump
10/07/2020, 09:28:30,7.372287,-2.0219352,2.3306093,-0.23201112,0.19415668,0.49943447,7.991906810829776,0.5839184599605266,jump
10/07/2020, 09:28:30,7.372287,-2.0219352,2.3306093,-0.18072446,0.11356334,0.38465002,7.991906810829776,0.4399018071908959,jump
10/07/2020, 09:28:30,7.2957163,-1.9238294,2.5196424,-0.18072446,0.11356334,0.38465002,7.954696311539188,0.4399018071908959,jump
10/07/2020, 09:28:30,7.2957163,-1.9238294,2.5196424,-0.15996556,0.05372889,0.26986557,7.954696311539188,0.3182816380436116,jump
10/07/2020, 09:28:30,7.2622166,-1.9166509,2.7110682,-0.15996556,0.05372889,0.26986557,7.985188203909125,0.3182816380436116,jump
10/07/2020, 09:28:30,7.2622166,-1.9166509,2.7110682,-0.14164889,0.0048844446,0.15874445,7.985188203909125,0.21280993218197525,jump
10/07/2020, 09:28:30,7.283752,-2.0027926,2.8378878,-0.14164889,0.0048844446,0.15874445,8.069561811409578,0.21280993218197525,jump
10/07/2020, 09:28:30,7.283752,-2.0027926,2.8378878,-0.102573335,-0.04396,0.054950003,8.069561811409578,0.1243916138158532,jump
10/07/2020, 09:28:30,7.372287,-2.1822543,2.9862428,-0.102573335,-0.04396,0.054950003,8.248059916849028,0.1243916138158532,jump
10/07/2020, 09:28:31,-1.105484,-0.27517462,0.4977071,-0.5836911,-1.8353301,-4.9699225,1.2431927928002402,5.330033966506003,jump
10/07/2020, 09:28:31,-0.46899325,-0.09092726,0.30149564,-0.5836911,-1.8353301,-4.9699225,0.5649088894783244,5.330033966506003,jump
10/07/2020, 09:28:31,-0.46899325,-0.09092726,0.30149564,-0.8535567,-2.0172756,-5.2544413,0.5649088894783244,5.692724543530947,jump
10/07/2020, 09:28:31,0.37328035,0.1698904,0.3589234,-0.8535567,-2.0172756,-5.2544413,0.5450018139781883,5.692724543530947,jump
10/07/2020, 09:28:31,0.37328035,0.1698904,0.3589234,-1.0635878,-2.1283967,-5.6146693,0.5450018139781883,6.098016341848031,jump
10/07/2020, 09:28:31,1.4333007,0.3182454,0.9523434,-1.0635878,-2.1283967,-5.6146693,1.750025455275799,6.098016341848031,jump
10/07/2020, 09:28:31,1.4333007,0.3182454,0.9523434,-1.1966889,-2.107638,-6.038395,1.750025455275799,6.506643915983295,jump
10/07/2020, 09:28:31,2.7230322,-0.02871387,1.7180467,-1.1966889,-2.107638,-6.038395,3.219846795887616,6.506643915983295,jump
10/07/2020, 09:28:31,2.7230322,-0.02871387,1.7180467,-1.2870512,-2.0026224,-6.4462457,3.219846795887616,6.871759627370786,jump
10/07/2020, 09:28:31,4.046263,-1.0289137,2.1822543,-1.2870512,-2.0026224,-6.4462457,4.710959923242105,6.871759627370786,jump
10/07/2020, 09:28:31,4.046263,-1.0289137,2.1822543,-1.3932878,-1.9611045,-6.711227,4.710959923242105,7.129358230734292,jump
10/07/2020, 09:28:31,5.2977095,-2.806781,2.199004,-1.3932878,-1.9611045,-6.711227,6.385872200717328,7.129358230734292,jump
10/07/2020, 09:28:31,5.2977095,-2.806781,2.199004,-1.5129567,-1.9952956,-6.7136693,6.385872200717328,7.1654447363376335,jump
10/07/2020, 09:28:31,6.283552,-4.7138605,2.0841484,-1.5129567,-1.9952956,-6.7136693,8.126941821954922,7.1654447363376335,jump
10/07/2020, 09:28:31,6.283552,-4.7138605,2.0841484,-1.5471479,-2.0380344,-6.573241,8.126941821954922,7.0537047871890275,jump
10/07/2020, 09:28:31,7.0301127,-5.95095,2.199004,-1.5471479,-2.0380344,-6.573241,9.469525390799376,7.0537047871890275,jump
10/07/2020, 09:28:31,7.0301127,-5.95095,2.199004,-1.3920667,-2.0661201,-6.537829,9.469525390799376,6.99642117275942,jump
10/07/2020, 09:28:31,7.556534,-6.1160545,2.388037,-1.3920667,-2.0661201,-6.537829,10.010496835859989,6.99642117275942,jump
10/07/2020, 09:28:31,7.556534,-6.1160545,2.388037,-1.0635878,-2.0844367,-6.735649,10.010496835859989,7.130572491942402,jump
10/07/2020, 09:28:31,7.8580294,-5.7858453,2.3377876,-1.0635878,-2.0844367,-6.735649,10.03443481740139,7.130572491942402,jump
10/07/2020, 09:28:32,7.140183,-2.8426733,2.8761728,0.54950005,-0.94514006,-1.0745778,8.205813441656936,1.5329571126814934,jump
10/07/2020, 09:28:32,7.140183,-2.8426733,2.8761728,0.59590226,-1.0623667,-1.1844778,8.205813441656936,1.6990321473700574,jump
10/07/2020, 09:28:32,7.2646093,-2.6871397,2.7708886,0.59590226,-1.0623667,-1.1844778,8.226365680004125,1.6990321473700574,jump
10/07/2020, 09:28:32,7.2646093,-2.6871397,2.7708886,0.6520734,-1.18692,-1.2992623,8.226365680004125,1.8767155832964069,jump
10/07/2020, 09:28:32,7.3986077,-2.5818555,2.6632116,0.6520734,-1.18692,-1.2992623,8.276356100548664,1.8767155832964069,jump
10/07/2020, 09:28:32,7.3986077,-2.5818555,2.6632116,0.7131289,-1.3017045,-1.405499,8.276356100548664,2.0441171499145616,jump
10/07/2020, 09:28:32,7.396215,-2.5459633,2.5627131,0.7131289,-1.3017045,-1.405499,8.23124677643088,2.0441171499145616,jump
10/07/2020, 09:28:32,7.396215,-2.5459633,2.5627131,0.79250115,-1.4274789,-1.5129567,8.23124677643088,2.22593625352577,jump
10/07/2020, 09:28:32,7.4105716,-2.57707,2.5387847,0.79250115,-1.4274789,-1.5129567,8.24641066235202,2.22593625352577,jump
10/07/2020, 09:28:32,7.4105716,-2.57707,2.5387847,0.8730945,-1.5508112,-1.6069822,8.24641066235202,2.397853453680141,jump
10/07/2020, 09:28:32,7.3770723,-2.7421749,2.5627131,0.8730945,-1.5508112,-1.6069822,8.276969123950922,2.397853453680141,jump
10/07/2020, 09:28:32,7.3770723,-2.7421749,2.5627131,0.94880337,-1.6570479,-1.6765857,8.276969123950922,2.5410578476671986,jump
10/07/2020, 09:28:32,7.4010005,-2.9216363,2.7565317,0.94880337,-1.6570479,-1.6765857,8.420762104207348,2.5410578476671986,jump
10/07/2020, 09:28:32,7.4010005,-2.9216363,2.7565317,1.0330601,-1.7339778,-1.7266512,8.420762104207348,2.656165741507168,jump
10/07/2020, 09:28:32,7.5086775,-3.1369905,3.0388846,1.0330601,-1.7339778,-1.7266512,8.686527907312824,2.656165741507168,jump
10/07/2020, 09:28:32,7.5086775,-3.1369905,3.0388846,1.1527289,-1.7852645,-1.7706112,8.686527907312824,2.7660472091117154,jump
10/07/2020, 09:28:32,7.769495,-3.3714871,3.3140593,1.1527289,-1.7852645,-1.7706112,9.09477690865107,2.7660472091117154,jump
10/07/2020, 09:28:32,7.769495,-3.3714871,3.3140593,1.3285689,-1.8365512,-1.801139,9.09477690865107,2.8951886595279483,jump
10/07/2020, 09:28:32,8.178668,-3.7184465,3.5892339,1.3285689,-1.8365512,-1.801139,9.674712127524158,2.8951886595279483,jump
10/07/2020, 09:28:32,8.178668,-3.7184465,3.5892339,1.5727912,-1.8548678,-1.7986968,9.674712127524158,3.0248168298060625,jump
10/07/2020, 09:28:33,1.9453648,-6.166304,3.4600215,-0.7998278,-1.9867479,-5.062727,7.33345072116756,5.497098872426925,jump
10/07/2020, 09:28:33,1.9453648,-6.166304,3.4600215,-0.4163989,-2.041698,-5.215366,7.33345072116756,5.6162229321712855,jump
10/07/2020, 09:28:33,2.3545375,-5.977271,3.6729827,-0.4163989,-2.041698,-5.215366,7.400163390280517,5.6162229321712855,jump
10/07/2020, 09:28:33,2.3545375,-5.977271,3.6729827,0.029306669,-2.152819,-5.4620304,7.400163390280517,5.871053089834536,jump
10/07/2020, 09:28:33,2.6249263,-5.5202417,3.7878382,0.029306669,-2.152819,-5.4620304,7.191037856613765,5.871053089834536,jump
10/07/2020, 09:28:33,2.6249263,-5.5202417,3.7878382,0.37366003,-2.2590556,-5.69282,7.191037856613765,6.136053655235875,jump
10/07/2020, 09:28:33,2.940779,-5.328816,3.9601214,0.37366003,-2.2590556,-5.69282,7.261337459063909,6.136053655235875,jump
10/07/2020, 09:28:33,2.940779,-5.328816,3.9601214,0.4701278,-2.3420913,-5.8161526,7.261337459063909,6.287610249410328,jump
10/07/2020, 09:28:33,3.505485,-6.3481584,3.8787656,0.4701278,-2.3420913,-5.8161526,8.223889742480608,6.287610249410328,jump
10/07/2020, 09:28:33,3.505485,-6.3481584,3.8787656,0.21735778,-2.4116945,-5.7086945,8.223889742480608,6.201024698496007,jump
10/07/2020, 09:28:33,4.386044,-8.626125,3.4313076,0.21735778,-2.4116945,-5.7086945,10.267487133268887,6.201024698496007,jump
10/07/2020, 09:28:33,4.386044,-8.626125,3.4313076,-0.046402223,-2.4800768,-5.361899,10.267487133268887,5.907867115453535,jump
10/07/2020, 09:28:33,5.4676,-10.303494,3.1106694,-0.046402223,-2.4800768,-5.361899,12.07198866111664,5.907867115453535,jump
10/07/2020, 09:28:33,5.4676,-10.303494,3.1106694,0.13432223,-2.5277002,-5.100581,12.07198866111664,5.694140756290502,jump
10/07/2020, 09:28:33,6.6017976,-10.238888,3.2279177,0.13432223,-2.5277002,-5.100581,12.603095131787024,5.694140756290502,jump
10/07/2020, 09:28:33,6.6017976,-10.238888,3.2279177,0.6557367,-2.6205046,-5.2129235,12.603095131787024,5.871252570535545,jump
10/07/2020, 09:28:33,7.372287,-9.18126,3.5102708,0.6557367,-2.6205046,-5.2129235,12.286909746834121,5.871252570535545,jump
10/07/2020, 09:28:33,7.372287,-9.18126,3.5102708,1.1270856,-2.7475002,-5.5633826,12.286909746834121,6.306370220542601,jump
10/07/2020, 09:28:33,7.704889,-8.047063,3.9457645,1.1270856,-2.7475002,-5.5633826,11.819035089720387,6.306370220542601,jump
10/07/2020, 09:28:33,7.704889,-8.047063,3.9457645,1.3884034,-2.8268723,-5.8527856,11.819035089720387,6.646350160203125,jump
10/07/2020, 09:28:34,6.9559355,-3.644269,4.2951164,0.67161113,-1.1820356,-1.8866167,8.950629025149409,2.325423012406982,jump
10/07/2020, 09:28:34,6.9559355,-3.644269,4.2951164,0.94758224,-1.2137845,-1.9195868,8.950629025149409,2.4608937835898566,jump
10/07/2020, 09:28:34,7.1545396,-4.0941195,4.6085763,0.94758224,-1.2137845,-1.9195868,9.443951876575744,2.4608937835898566,jump
10/07/2020, 09:28:34,7.1545396,-4.0941195,4.6085763,1.3126945,-1.2553023,-1.9391245,9.443951876575744,2.656906953701948,jump
10/07/2020, 09:28:34,7.379465,-4.5655055,4.9579287,1.3126945,-1.2553023,-1.9391245,9.994068355498767,2.656906953701948,jump
10/07/2020, 09:28:34,7.379465,-4.5655055,4.9579287,1.724209,-1.3420012,-1.9232501,9.994068355498767,2.9107996485024112,jump
10/07/2020, 09:28:34,7.63789,-5.0416775,5.328816,1.724209,-1.3420012,-1.9232501,10.590191339041935,2.9107996485024112,jump
10/07/2020, 09:28:34,7.63789,-5.0416775,5.328816,2.107638,-1.4457957,-1.867079,10.590191339041935,3.165192977465089,jump
10/07/2020, 09:28:34,8.01117,-5.4221363,5.704489,2.107638,-1.4457957,-1.867079,11.230298771217113,3.165192977465089,jump
10/07/2020, 09:28:34,8.01117,-5.4221363,5.704489,2.3897145,-1.5276101,-1.7681689,11.230298771217113,3.3422670676145887,jump
10/07/2020, 09:28:34,8.374879,-5.6949177,6.168697,2.3897145,-1.5276101,-1.7681689,11.858478185719614,3.3422670676145887,jump
10/07/2020, 09:28:34,8.374879,-5.6949177,6.168697,2.5325844,-1.5349368,-1.6179723,11.858478185719614,3.374588721929701,jump
10/07/2020, 09:28:34,8.793623,-5.936593,6.721439,2.5325844,-1.5349368,-1.6179723,12.559804247648263,3.374588721929701,jump
10/07/2020, 09:28:34,8.793623,-5.936593,6.721439,2.581429,-1.4421322,-1.4116045,12.559804247648263,3.2766062350176868,jump
10/07/2020, 09:28:34,9.147761,-6.1854467,7.350751,2.581429,-1.4421322,-1.4116045,13.26555042661831,3.2766062350176868,jump
10/07/2020, 09:28:34,9.147761,-6.1854467,7.350751,2.6205046,-1.2577446,-1.174709,13.26555042661831,3.13510876248434,jump
10/07/2020, 09:28:34,9.389436,-6.4821568,8.135597,2.6205046,-1.2577446,-1.174709,14.013129646650377,3.13510876248434,jump
10/07/2020, 09:28:34,9.389436,-6.4821568,8.135597,2.688887,-1.0513767,-0.9378134,14.013129646650377,3.0356217814145525,jump
10/07/2020, 09:28:34,9.506684,-6.652047,8.913264,2.688887,-1.0513767,-0.9378134,14.63123569128352,3.0356217814145525,jump
10/07/2020, 09:28:34,9.506684,-6.652047,8.913264,2.8244302,-0.85722005,-0.70458114,14.63123569128352,3.0345785397823573,jump
10/07/2020, 09:28:35,7.001399,-8.532805,5.9294147,1.3261267,-2.207769,-5.569488,12.529418043654587,6.136126850429508,jump
10/07/2020, 09:28:35,7.6019974,-8.932407,6.0083776,1.3261267,-2.207769,-5.569488,13.178727802477702,6.136126850429508,jump
10/07/2020, 09:28:35,7.6019974,-8.932407,6.0083776,1.8304456,-2.3335435,-5.650081,13.178727802477702,6.381173387751447,jump
10/07/2020, 09:28:35,8.269595,-8.662018,6.068198,1.8304456,-2.3335435,-5.650081,13.425341190393583,6.381173387751447,jump
10/07/2020, 09:28:35,8.269595,-8.662018,6.068198,2.2712667,-2.4764135,-5.790509,13.425341190393583,6.694869173869527,jump
10/07/2020, 09:28:35,8.958728,-8.178668,6.0825553,2.2712667,-2.4764135,-5.790509,13.570073469664049,6.694869173869527,jump
10/07/2020, 09:28:35,8.958728,-8.178668,6.0825553,2.5350268,-2.6314945,-5.907736,13.570073469664049,6.946399557496264,jump
10/07/2020, 09:28:35,9.734002,-7.6259255,5.8432727,2.5350268,-2.6314945,-5.907736,13.676599474331258,6.946399557496264,jump
10/07/2020, 09:28:35,9.734002,-7.6259255,5.8432727,2.6107357,-2.8061135,-5.9687915,13.676599474331258,7.093425499714148,jump
10/07/2020, 09:28:35,10.60499,-6.9990063,5.608776,2.6107357,-2.8061135,-5.9687915,13.889214198769741,7.093425499714148,jump
10/07/2020, 09:28:35,10.60499,-6.9990063,5.608776,2.559449,-2.9379935,-5.9907713,13.889214198769741,7.146462454947445,jump
10/07/2020, 09:28:35,11.679367,-6.4438715,5.7667027,2.559449,-2.9379935,-5.9907713,14.532238451439474,7.146462454947445,jump
10/07/2020, 09:28:35,11.679367,-6.4438715,5.7667027,2.4556546,-2.9648578,-5.9724545,14.532238451439474,7.105690312558709,jump
10/07/2020, 09:28:35,12.866207,-6.1806607,6.195018,2.4556546,-2.9648578,-5.9724545,15.560144550858974,7.105690312558709,jump
10/07/2020, 09:28:35,12.866207,-6.1806607,6.195018,2.37384,-2.8415256,-5.878429,15.560144550858974,6.947324018891613,jump
10/07/2020, 09:28:35,14.177474,-6.4414787,7.21436,2.37384,-2.8415256,-5.878429,17.16217968360356,6.947324018891613,jump
10/07/2020, 09:28:35,14.177474,-6.4414787,7.21436,2.4141366,-2.6192834,-5.636649,17.16217968360356,6.667871843247752,jump
10/07/2020, 09:28:35,15.333207,-7.281359,8.420342,2.4141366,-2.6192834,-5.636649,18.94802363147759,6.667871843247752,jump
10/07/2020, 09:28:35,15.333207,-7.281359,8.420342,2.6717913,-2.3579657,-5.243451,18.94802363147759,6.339735857444524,jump
10/07/2020, 09:28:35,16.110874,-8.563912,9.722038,2.6717913,-2.3579657,-5.243451,20.674111595725947,6.339735857444524,jump
10/07/2020, 09:28:36,9.30808,-2.6919255,4.206582,3.7488112,-2.0465822,-2.097869,10.56324494687483,4.758480697090923,jump
10/07/2020, 09:28:36,8.973084,-3.4528432,4.9842496,3.7488112,-2.0465822,-2.097869,10.82964055847555,4.758480697090923,jump
10/07/2020, 09:28:36,8.973084,-3.4528432,4.9842496,4.646328,-2.0624568,-2.13206,10.82964055847555,5.512510492573051,jump
10/07/2020, 09:28:36,8.583055,-4.1898327,5.5465627,4.646328,-2.0624568,-2.13206,11.044812388589056,5.512510492573051,jump
10/07/2020, 09:28:36,8.583055,-4.1898327,5.5465627,5.2422304,-2.0331502,-2.0184968,11.044812388589056,5.974027835918539,jump
10/07/2020, 09:28:36,8.257631,-4.6085763,5.8217373,5.2422304,-2.0331502,-2.0184968,11.104957238872492,5.974027835918539,jump
10/07/2020, 09:28:36,8.257631,-4.6085763,5.8217373,5.540181,-1.9891901,-1.8487623,11.104957238872492,6.16996000722062,jump
10/07/2020, 09:28:36,7.960921,-4.6899323,5.8097734,5.540181,-1.9891901,-1.8487623,10.914448820313472,6.16996000722062,jump
10/07/2020, 09:28:36,7.960921,-4.6899323,5.8097734,5.5523925,-1.9586623,-1.7058923,10.914448820313472,6.12988489280086,jump
10/07/2020, 09:28:36,7.7814593,-4.5798626,5.855237,5.5523925,-1.9586623,-1.7058923,10.761507846172599,6.12988489280086,jump
10/07/2020, 09:28:36,7.7814593,-4.5798626,5.855237,5.2556624,-1.922029,-1.6130879,10.761507846172599,5.823936451663823,jump
10/07/2020, 09:28:36,7.769495,-4.486542,6.128019,5.2556624,-1.922029,-1.6130879,10.86493115265861,5.823936451663823,jump
10/07/2020, 09:28:36,7.769495,-4.486542,6.128019,4.73669,-1.8316667,-1.5288311,10.86493115265861,5.303636498909159,jump
10/07/2020, 09:28:36,7.7910304,-4.4674,6.518049,4.73669,-1.8316667,-1.5288311,11.096971564517178,5.303636498909159,jump
10/07/2020, 09:28:36,7.7910304,-4.4674,6.518049,4.1139235,-1.6546056,-1.4018356,11.096971564517178,4.650508541331818,jump
10/07/2020, 09:28:36,7.8699937,-4.587041,6.977471,4.1139235,-1.6546056,-1.4018356,11.4744431091861,4.650508541331818,jump
10/07/2020, 09:28:36,7.8699937,-4.587041,6.977471,3.4972625,-1.4409112,-1.23088,11.4744431091861,3.9777048003428637,jump
10/07/2020, 09:28:36,7.8699937,-4.682754,7.3172517,3.4972625,-1.4409112,-1.23088,11.72207994372593,3.9777048003428637,jump
10/07/2020, 09:28:36,7.8699937,-4.682754,7.3172517,2.9355512,-1.2626289,-1.0477134,11.72207994372593,3.362944511793527,jump
10/07/2020, 09:28:36,7.8604226,-4.6325045,7.5254273,2.9355512,-1.2626289,-1.0477134,11.827019823285141,3.362944511793527,jump
10/07/2020, 09:28:37,8.437093,-12.887743,5.6877394,1.3664234,-2.1613667,-5.0175457,16.420378597935027,5.631552511600804,jump
10/07/2020, 09:28:37,8.437093,-12.887743,5.6877394,1.7315357,-2.3640711,-4.9821334,16.420378597935027,5.7800260552715415,jump
10/07/2020, 09:28:37,8.781659,-11.440085,5.4580283,1.7315357,-2.3640711,-4.9821334,15.420219334578757,5.7800260552715415,jump
10/07/2020, 09:28:37,8.781659,-11.440085,5.4580283,1.7986968,-2.581429,-5.1347723,15.420219334578757,6.022040543515247,jump
10/07/2020, 09:28:37,8.807981,-9.611969,5.15414,1.7986968,-2.581429,-5.1347723,14.019116526578257,6.022040543515247,jump
10/07/2020, 09:28:37,8.807981,-9.611969,5.15414,1.5776756,-2.5850923,-5.2458935,14.019116526578257,6.057322911709156,jump
10/07/2020, 09:28:37,8.784052,-8.099705,4.941179,1.5776756,-2.5850923,-5.2458935,12.929811774793592,6.057322911709156,jump
10/07/2020, 09:28:37,8.784052,-8.099705,4.941179,1.2040156,-2.4410012,-5.26421,12.929811774793592,5.926217142896283,jump
10/07/2020, 09:28:37,8.812766,-7.2502527,4.599005,1.2040156,-2.4410012,-5.26421,12.303733558859255,5.926217142896283,jump
10/07/2020, 09:28:37,8.812766,-7.2502527,4.599005,0.8303556,-2.3225534,-5.2214713,12.303733558859255,5.774730064067944,jump
10/07/2020, 09:28:37,9.145369,-7.1210403,4.4339004,0.8303556,-2.3225534,-5.2214713,12.409933696261284,5.774730064067944,jump
10/07/2020, 09:28:37,9.145369,-7.1210403,4.4339004,0.6191034,-2.2724879,-5.1604156,12.409933696261284,5.6725108919551515,jump
10/07/2020, 09:28:37,9.686146,-7.585248,4.4674,0.6191034,-2.2724879,-5.1604156,13.088738314403153,5.6725108919551515,jump
10/07/2020, 09:28:37,9.686146,-7.585248,4.4674,0.6557367,-2.2883623,-5.128667,13.088738314403153,5.654185741279058,jump
10/07/2020, 09:28:37,10.339387,-8.23131,4.6396832,0.6557367,-2.2883623,-5.128667,14.006571509170286,5.654185741279058,jump
10/07/2020, 09:28:37,10.339387,-8.23131,4.6396832,0.8645467,-2.3982623,-5.1274457,14.006571509170286,5.726238057156562,jump
10/07/2020, 09:28:37,10.844273,-8.60459,4.95075,0.8645467,-2.3982623,-5.1274457,14.701943717034288,5.726238057156562,jump
10/07/2020, 09:28:37,10.844273,-8.60459,4.95075,1.0635878,-2.5228157,-5.148205,14.701943717034288,5.8309373819685115,jump
10/07/2020, 09:28:37,11.3371935,-8.623733,5.54417,1.0635878,-2.5228157,-5.148205,15.285239268788459,5.8309373819685115,jump
10/07/2020, 09:28:37,11.3371935,-8.623733,5.54417,1.1686034,-2.578987,-5.1604156,15.285239268788459,5.88614449126798,jump
10/07/2020, 09:28:38,7.874779,-9.15494,7.21436,8.08864,-1.174709,-0.44204223,14.066700447736356,8.185440915215649,jump
10/07/2020, 09:28:38,7.7240314,-8.271988,7.3292155,8.08864,-1.174709,-0.44204223,13.483465656757003,8.185440915215649,jump
10/07/2020, 09:28:38,7.7240314,-8.271988,7.3292155,7.701548,-1.1820356,0.11356334,13.483465656757003,7.792557207899251,jump
10/07/2020, 09:28:38,7.8891363,-7.0875406,7.432107,7.701548,-1.1820356,0.11356334,12.950209185920972,7.792557207899251,jump
10/07/2020, 09:28:38,7.8891363,-7.0875406,7.432107,6.996967,-1.1148745,0.4933289,12.950209185920972,7.1023843501652175,jump
10/07/2020, 09:28:38,8.556734,-5.393422,7.972885,6.996967,-1.1148745,0.4933289,12.879192434535806,7.1023843501652175,jump
10/07/2020, 09:28:38,8.556734,-5.393422,7.972885,6.095787,-0.87920004,0.5592689,12.879192434535806,6.184205215277646,jump
10/07/2020, 09:28:38,9.394221,-3.0556345,8.432307,6.095787,-0.87920004,0.5592689,12.98815235429771,6.184205215277646,jump
10/07/2020, 09:28:38,9.394221,-3.0556345,8.432307,5.062727,-0.6325356,0.30649891,12.98815235429771,5.111286262675444,jump
10/07/2020, 09:28:38,10.133604,-0.08853444,8.659625,5.062727,-0.6325356,0.30649891,13.329924060093996,5.111286262675444,jump
10/07/2020, 09:28:38,10.133604,-0.08853444,8.659625,3.944189,-0.38220778,-0.008547778,13.329924060093996,3.9626737545996793,jump
10/07/2020, 09:28:38,10.736595,3.1369905,9.32483,3.944189,-0.38220778,-0.008547778,14.562542386167733,3.9626737545996793,jump
10/07/2020, 09:28:38,10.736595,3.1369905,9.32483,2.5973034,0.045181114,-0.18927222,14.562542386167733,2.6045825405466694,jump
10/07/2020, 09:28:38,11.203196,5.986842,10.4566345,2.5973034,0.045181114,-0.18927222,16.45281360535264,2.6045825405466694,jump
10/07/2020, 09:28:38,11.203196,5.986842,10.4566345,0.81448114,0.6386411,-0.2625389,16.45281360535264,1.067786815888139,jump
10/07/2020, 09:28:38,11.3778715,7.783852,11.107483,0.81448114,0.6386411,-0.2625389,17.70368578275623,1.067786815888139,jump
10/07/2020, 09:28:38,11.3778715,7.783852,11.107483,-1.21989,1.3041468,-0.25887558,17.70368578275623,1.8044242745257566,jump
10/07/2020, 09:28:38,11.279766,8.283952,11.619547,-1.21989,1.3041468,-0.25887558,18.189855677487763,1.8044242745257566,jump
10/07/2020, 09:28:38,11.279766,8.283952,11.619547,-3.118718,1.9293556,-0.18194556,18.189855677487763,3.6717732359571196,jump
10/07/2020, 09:28:38,10.822737,7.5182486,11.741581,-3.118718,1.9293556,-0.18194556,17.649940947214603,3.6717732359571196,jump
10/07/2020, 09:28:39,9.786645,-8.348558,5.532206,2.2273068,-2.9648578,-5.358236,14.00293364835061,6.516284901669942,jump
10/07/2020, 09:28:39,9.786645,-8.348558,5.532206,2.6119568,-3.0417879,-5.2752004,14.00293364835061,6.625898491577233,jump
10/07/2020, 09:28:39,10.947164,-8.949157,5.2331033,2.6119568,-3.0417879,-5.2752004,15.07690840702008,6.625898491577233,jump
10/07/2020, 09:28:39,10.947164,-8.949157,5.2331033,3.0454512,-3.1785524,-5.1689634,15.07690840702008,6.789414632272979,jump
10/07/2020, 09:28:39,11.983255,-9.449257,5.17089,3.0454512,-3.1785524,-5.1689634,16.11288203414248,6.789414632272979,jump
10/07/2020, 09:28:39,11.983255,-9.449257,5.17089,3.515579,-3.3482869,-5.041968,16.11288203414248,6.999411442115331,jump
10/07/2020, 09:28:39,12.818351,-9.676575,5.4173503,3.515579,-3.3482869,-5.041968,16.949746289376172,6.999411442115331,jump
10/07/2020, 09:28:39,12.818351,-9.676575,5.4173503,3.9734957,-3.5070312,-4.8783393,16.949746289376172,7.203202783464742,jump
10/07/2020, 09:28:39,13.438092,-9.659825,5.8743796,3.9734957,-3.5070312,-4.8783393,17.56140325353315,7.203202783464742,jump
10/07/2020, 09:28:39,13.438092,-9.659825,5.8743796,4.3764625,-3.5937302,-4.6438856,17.56140325353315,7.323523337380303,jump
10/07/2020, 09:28:39,13.866407,-9.408579,6.6759753,4.3764625,-3.5937302,-4.6438856,18.037939376236693,7.323523337380303,jump
10/07/2020, 09:28:39,13.866407,-9.408579,6.6759753,4.726921,-3.570529,-4.3202915,18.037939376236693,7.331942372099456,jump
10/07/2020, 09:28:39,14.201403,-9.152547,7.5637126,4.726921,-3.570529,-4.3202915,18.51104265884124,7.331942372099456,jump
10/07/2020, 09:28:39,14.201403,-9.152547,7.5637126,5.061506,-3.504589,-3.922209,18.51104265884124,7.299637605022797,jump
10/07/2020, 09:28:39,14.397614,-8.927621,8.367701,5.061506,-3.504589,-3.922209,18.894763901268945,7.299637605022797,jump
10/07/2020, 09:28:39,14.397614,-8.927621,8.367701,5.3887634,-3.4667346,-3.4874935,18.894763901268945,7.295178641765601,jump
10/07/2020, 09:28:39,14.419149,-8.685946,8.949157,5.3887634,-3.4667346,-3.4874935,19.064232009337175,7.295178641765601,jump
10/07/2020, 09:28:39,14.419149,-8.685946,8.949157,5.679388,-3.4874935,-3.0417879,19.064232009337175,7.326017540210015,jump
10/07/2020, 09:28:39,14.153546,-8.329415,9.090333,5.679388,-3.4874935,-3.0417879,18.770620319573414,7.326017540210015,jump
10/07/2020, 09:28:39,14.153546,-8.329415,9.090333,5.8723235,-3.5534334,-2.6180623,18.770620319573414,7.346109343410655,jump
10/07/2020, 09:28:40,13.58884,7.448857,13.138989,-1.526389,2.4544334,-0.5140878,20.3168666779486,2.935709993711393,jump
10/07/2020, 09:28:40,13.58884,7.448857,13.138989,-2.3628502,2.867169,-0.31138334,20.3168666779486,3.7283613182486364,jump
10/07/2020, 09:28:40,13.093526,6.71426,13.3687,-2.3628502,2.867169,-0.31138334,19.880740662105605,3.7283613182486364,jump
10/07/2020, 09:28:40,13.093526,6.71426,13.3687,-2.9184556,3.1687834,-0.09036223,19.880740662105605,4.308913648300493,jump
10/07/2020, 09:28:40,12.614961,5.649454,13.138989,-2.9184556,3.1687834,-0.09036223,19.070569164674737,4.308913648300493,jump
10/07/2020, 09:28:40,12.614961,5.649454,13.138989,-3.327528,3.41789,0.06960334,19.070569164674737,4.77066659473589,jump
10/07/2020, 09:28:40,12.229716,4.898108,12.80878,-3.327528,3.41789,0.06960334,18.374500283312678,4.77066659473589,jump
10/07/2020, 09:28:40,12.229716,4.898108,12.80878,-3.8428369,3.6315846,0.17584,18.374500283312678,5.290247805595081,jump
10/07/2020, 09:28:40,11.933006,4.462614,12.550355,-3.8428369,3.6315846,0.17584,17.883595075973698,5.290247805595081,jump
10/07/2020, 09:28:40,11.933006,4.462614,12.550355,-4.5816092,3.9075558,0.25765446,17.883595075973698,6.027148712832154,jump
10/07/2020, 09:28:40,11.85165,4.0271206,12.49532,-4.5816092,3.9075558,0.25765446,17.686501731984666,6.027148712832154,jump
10/07/2020, 09:28:40,11.85165,4.0271206,12.49532,-5.4754624,4.2995324,0.3931978,17.686501731984666,6.9728955523262215,jump
10/07/2020, 09:28:40,12.021541,3.1322048,12.547962,-5.4754624,4.2995324,0.3931978,17.657278986847956,6.9728955523262215,jump
10/07/2020, 09:28:40,12.021541,3.1322048,12.547962,-6.3778634,4.7183733,0.6789378,17.657278986847956,7.962483579380265,jump
10/07/2020, 09:28:40,12.191431,1.5074782,12.3708935,-6.3778634,4.7183733,0.6789378,17.43394639854139,7.962483579380265,jump
10/07/2020, 09:28:40,12.191431,1.5074782,12.3708935,-7.2155457,5.084707,1.1942468,17.43394639854139,8.907556764145616,jump
10/07/2020, 09:28:40,12.234502,-0.8470592,11.861222,-7.2155457,5.084707,1.1942468,17.061334595609644,8.907556764145616,jump
10/07/2020, 09:28:40,12.234502,-0.8470592,11.861222,-7.9909515,5.4205127,1.8475412,17.061334595609644,9.831107399025342,jump
10/07/2020, 09:28:40,12.234502,-4.1204405,11.140983,-7.9909515,5.4205127,1.8475412,17.05234760758615,9.831107399025342,jump
10/07/2020, 09:28:40,12.234502,-4.1204405,11.140983,-8.459858,5.631765,2.4678657,17.05234760758615,10.458314074411074,jump
10/07/2020, 09:28:41,9.41815,3.4169507,11.75833,1.0635878,-0.31138334,0.048844445,15.44782939624522,1.1093080447682515,jump
10/07/2020, 09:28:41,9.387043,3.9673,11.942577,1.0635878,-0.31138334,0.048844445,15.699719714649568,1.1093080447682515,jump
10/07/2020, 09:28:41,9.387043,3.9673,11.942577,0.3174889,0.0036633336,-0.12211112,15.699719714649568,0.34018194053707107,jump
10/07/2020, 09:28:41,9.389436,4.3669014,11.842079,0.3174889,0.0036633336,-0.12211112,15.731057521803775,0.34018194053707107,jump
10/07/2020, 09:28:41,9.389436,4.3669014,11.842079,-0.5104245,0.32725778,-0.25521225,15.731057521803775,0.6578480919381043,jump
10/07/2020, 09:28:41,9.437292,4.5415773,11.521441,-0.5104245,0.32725778,-0.25521225,15.570228649502486,0.6578480919381043,jump
10/07/2020, 09:28:41,9.437292,4.5415773,11.521441,-1.2723979,0.6337567,-0.33336335,15.570228649502486,1.4600599410468196,jump
10/07/2020, 09:28:41,9.5353985,4.436293,11.083554,-1.2723979,0.6337567,-0.33336335,15.279060708573008,1.4600599410468196,jump
10/07/2020, 09:28:41,9.5353985,4.436293,11.083554,-1.8878379,0.89263225,-0.3724389,15.279060708573008,2.121187156622015,jump
10/07/2020, 09:28:41,9.722038,4.0127635,10.5690975,-1.8878379,0.89263225,-0.3724389,14.91060432637935,2.121187156622015,jump
10/07/2020, 09:28:41,9.722038,4.0127635,10.5690975,-2.3237746,1.0916734,-0.38709223,14.91060432637935,2.596443612605222,jump
10/07/2020, 09:28:41,9.894321,3.306881,10.028319,-2.3237746,1.0916734,-0.38709223,14.470668525569554,2.596443612605222,jump
10/07/2020, 09:28:41,9.894321,3.306881,10.028319,-2.6156201,1.2504178,-0.3834289,14.470668525569554,2.9243856048149968,jump
10/07/2020, 09:28:41,10.064212,2.4885356,9.533006,-2.6156201,1.2504178,-0.3834289,14.084011064492802,2.9243856048149968,jump
10/07/2020, 09:28:41,10.064212,2.4885356,9.533006,-2.8097768,1.3908457,-0.3284789,14.084011064492802,3.152331771812516,jump
10/07/2020, 09:28:41,10.212567,1.727618,9.056833,-2.8097768,1.3908457,-0.3284789,13.758903450830594,3.152331771812516,jump
10/07/2020, 09:28:41,10.212567,1.727618,9.056833,-2.9282246,1.5178412,-0.2503278,13.758903450830594,3.307719013008531,jump
10/07/2020, 09:28:41,10.363315,1.0959128,8.56152,-2.9282246,1.5178412,-0.2503278,13.486991259699483,3.307719013008531,jump
10/07/2020, 09:28:41,10.363315,1.0959128,8.56152,-3.0002701,1.6204145,-0.16607112,13.486991259699483,3.413933742103052,jump
10/07/2020, 09:28:41,10.514063,0.6053841,8.018349,-3.0002701,1.6204145,-0.16607112,13.236537461661522,3.413933742103052,jump
10/07/2020, 09:28:42,9.705289,-11.992827,5.383851,-2.4983935,3.0283556,5.856449,16.340330288603827,7.0505960222458635,jump
10/07/2020, 09:28:42,9.705289,-11.992827,5.383851,-2.163809,2.887928,5.937042,16.340330288603827,6.947709576111139,jump
10/07/2020, 09:28:42,9.430114,-11.188839,5.2546387,-2.163809,2.887928,5.937042,15.54761688988273,6.947709576111139,jump
10/07/2020, 09:28:42,9.430114,-11.188839,5.2546387,-1.998959,2.790239,5.998098,15.54761688988273,6.910748834453902,jump
10/07/2020, 09:28:42,9.1669035,-10.3848505,4.9459643,-1.998959,2.790239,5.998098,14.70849424200786,6.910748834453902,jump
10/07/2020, 09:28:42,9.1669035,-10.3848505,4.9459643,-1.9281346,2.7255201,6.0677013,14.70849424200786,6.925544197568183,jump
10/07/2020, 09:28:42,8.9826565,-9.568898,4.6899323,-1.9281346,2.7255201,6.0677013,13.937266432545789,6.925544197568183,jump
10/07/2020, 09:28:42,8.9826565,-9.568898,4.6899323,-1.8792901,2.64859,6.1067767,13.937266432545789,6.91660918275399,jump
10/07/2020, 09:28:42,8.736196,-8.769695,4.1850467,-1.8792901,2.64859,6.1067767,13.066877359556353,6.91660918275399,jump
10/07/2020, 09:28:42,8.736196,-8.769695,4.1850467,-1.900049,2.5252578,6.1165457,13.066877359556353,6.884710901772325,jump
10/07/2020, 09:28:42,8.386844,-8.106883,3.6059837,-1.900049,2.5252578,6.1165457,12.209169439250088,6.884710901772325,jump
10/07/2020, 09:28:42,8.386844,-8.106883,3.6059837,-1.9574412,2.3933778,6.1226516,12.209169439250088,6.859059383690581,jump
10/07/2020, 09:28:42,7.9298143,-7.597212,3.0987053,-1.9574412,2.3933778,6.1226516,11.41058971477976,6.859059383690581,jump
10/07/2020, 09:28:42,7.9298143,-7.597212,3.0987053,-1.9977379,2.2590556,6.1116614,11.41058971477976,6.815181172242745,jump
10/07/2020, 09:28:42,7.4010005,-7.0085773,2.6273193,-1.9977379,2.2590556,6.1116614,10.52605204794412,6.815181172242745,jump
10/07/2020, 09:28:42,7.4010005,-7.0085773,2.6273193,-2.0575724,2.0832157,6.0481634,10.52605204794412,6.719648236913986,jump
10/07/2020, 09:28:42,6.719046,-6.326623,2.2061825,-2.0575724,2.0832157,6.0481634,9.488887182227408,6.719648236913986,jump
10/07/2020, 09:28:42,6.719046,-6.326623,2.2061825,-2.11008,1.8976067,5.9724545,9.488887182227408,6.612379469766186,jump
10/07/2020, 09:28:42,5.9413786,-5.6949177,1.8376877,-2.11008,1.8976067,5.9724545,8.432624926748623,6.612379469766186,jump
10/07/2020, 09:28:42,5.9413786,-5.6949177,1.8376877,-2.129618,1.7144401,5.9248314,8.432624926748623,6.52519765306685,jump
10/07/2020, 09:28:43,9.152547,-3.7088752,6.826723,-1.6289623,1.6387311,0.26864445,12.005374538154221,2.3261830616372112,jump
10/07/2020, 09:28:43,9.281759,-3.6059837,6.448657,-1.6289623,1.6387311,0.26864445,11.86336171815753,2.3261830616372112,jump
10/07/2020, 09:28:43,9.281759,-3.6059837,6.448657,-1.2259957,1.6167512,0.34191114,11.86336171815753,2.057632864943243,jump
10/07/2020, 09:28:43,9.415757,-3.2614172,5.9676995,-1.2259957,1.6167512,0.34191114,11.614937052853268,2.057632864943243,jump
10/07/2020, 09:28:43,9.415757,-3.2614172,5.9676995,-0.9549089,1.6326256,0.4383789,11.614937052853268,1.9415183145169987,jump
10/07/2020, 09:28:43,9.585648,-2.8378878,5.4891353,-0.9549089,1.6326256,0.4383789,11.404773233513543,1.9415183145169987,jump
10/07/2020, 09:28:43,9.585648,-2.8378878,5.4891353,-0.74976224,1.7193245,0.5104245,11.404773233513543,1.943901542934413,jump
10/07/2020, 09:28:43,9.805787,-2.3569303,5.2019963,-0.74976224,1.7193245,0.5104245,11.347658189996913,1.943901542934413,jump
10/07/2020, 09:28:43,9.805787,-2.3569303,5.2019963,-0.6679478,1.801139,0.5592689,11.347658189996913,2.000759276400084,jump
10/07/2020, 09:28:43,9.949356,-1.9860427,4.996214,-0.6679478,1.801139,0.5592689,11.309120461373459,2.000759276400084,jump
10/07/2020, 09:28:43,9.949356,-1.9860427,4.996214,-0.73999333,1.8499835,0.59834445,11.309120461373459,2.080395392318448,jump
10/07/2020, 09:28:43,9.949356,-1.7730815,4.8933225,-0.73999333,1.8499835,0.59834445,11.22845088665052,2.080395392318448,jump
10/07/2020, 09:28:43,9.949356,-1.7730815,4.8933225,-0.8743156,1.8927222,0.6447467,11.22845088665052,2.182320702462108,jump
10/07/2020, 09:28:43,9.891929,-1.6151553,4.9052863,-0.8743156,1.8927222,0.6447467,11.158889435833741,2.182320702462108,jump
10/07/2020, 09:28:43,9.891929,-1.6151553,4.9052863,-0.94514006,1.9598835,0.70946556,11.158889435833741,2.2886184192538073,jump
10/07/2020, 09:28:43,9.846465,-1.4811572,4.9986067,-0.94514006,1.9598835,0.70946556,11.141488703940185,2.2886184192538073,jump
10/07/2020, 09:28:43,9.846465,-1.4811572,4.9986067,-0.98910004,2.0087278,0.7631945,11.141488703940185,2.365538430067801,jump
10/07/2020, 09:28:43,9.796216,-1.3639089,5.1062837,-0.98910004,2.0087278,0.7631945,11.13104794937601,2.365538430067801,jump
10/07/2020, 09:28:43,9.796216,-1.3639089,5.1062837,-1.0428289,2.0014012,0.80471224,11.13104794937601,2.3959675793116415,jump
10/07/2020, 09:28:43,9.707682,-1.18684,5.1421757,-1.0428289,2.0014012,0.80471224,11.049418225434074,2.3959675793116415,jump
10/07/2020, 09:28:44,-0.0023928226,-0.3182454,0.92602235,0.21003112,1.6350678,4.536428,0.9791849985219736,4.826669516306218,jump
10/07/2020, 09:28:44,-0.0023928226,-0.3182454,0.92602235,0.31871,1.5312734,4.287321,0.9791849985219736,4.563715187962143,jump
10/07/2020, 09:28:44,-0.5455636,0.37567315,0.66999036,0.31871,1.5312734,4.287321,0.9421555146032898,4.563715187962143,jump
10/07/2020, 09:28:44,-0.5455636,0.37567315,0.66999036,0.37732336,1.4396901,4.0052447,0.9421555146032898,4.272828793848227,jump
10/07/2020, 09:28:44,-1.079163,1.0313065,0.37567315,0.37732336,1.4396901,4.0052447,1.5392582965987813,4.272828793848227,jump
10/07/2020, 09:28:44,-1.079163,1.0313065,0.37567315,0.32237336,1.3139156,3.679208,1.5392582965987813,3.920060027329383,jump
10/07/2020, 09:28:44,-1.6438692,1.5888343,0.086141616,0.32237336,1.3139156,3.679208,2.287820051060512,3.920060027329383,jump
10/07/2020, 09:28:44,-1.6438692,1.5888343,0.086141616,0.14409111,1.1698245,3.3421812,2.287820051060512,3.5439281563945615,jump
10/07/2020, 09:28:44,-2.1487548,1.98365,-0.050249275,0.14409111,1.1698245,3.3421812,2.924814443861949,3.5439281563945615,jump
10/07/2020, 09:28:44,-2.1487548,1.98365,-0.050249275,-0.037854444,1.0867889,3.0393457,2.924814443861949,3.2280281274072684,jump
10/07/2020, 09:28:44,-2.5579274,2.251646,0.014356935,-0.037854444,1.0867889,3.0393457,3.407801116559445,3.2280281274072684,jump
10/07/2020, 09:28:44,-2.5579274,2.251646,0.014356935,-0.15386,1.0355023,2.7548268,3.407801116559445,2.9470338570339645,jump
10/07/2020, 09:28:44,-2.9192436,2.4215364,0.1698904,-0.15386,1.0355023,2.7548268,3.7966675587825987,2.9470338570339645,jump
10/07/2020, 09:28:44,-2.9192436,2.4215364,0.1698904,-0.15874445,0.97078335,2.46176,3.7966675587825987,2.651015396916592,jump
10/07/2020, 09:28:44,-3.3020952,2.5124638,0.30388847,-0.15874445,0.97078335,2.46176,4.160367187200734,2.651015396916592,jump
10/07/2020, 09:28:44,-3.3020952,2.5124638,0.30388847,-0.03052778,0.8730945,2.151598,4.160367187200734,2.322197192960329,jump
10/07/2020, 09:28:44,-3.7950168,2.5914268,0.40677986,-0.03052778,0.8730945,2.151598,4.613362680040068,2.322197192960329,jump
10/07/2020, 09:28:44,-3.7950168,2.5914268,0.40677986,0.2185789,0.7631945,1.8426567,4.613362680040068,2.0063963753833116,jump
10/07/2020, 09:28:44,-4.371687,2.6823542,0.4235296,0.2185789,0.7631945,1.8426567,5.146459763460764,2.0063963753833116,jump
10/07/2020, 09:28:44,-4.371687,2.6823542,0.4235296,0.5153089,0.61299783,1.5300523,5.146459763460764,1.7269538710602874,jump
10/07/2020, 09:28:45,10.057034,-0.21774685,4.7784667,-1.3896245,1.5105145,1.32979,11.136654852813125,2.4456188720420324,jump
10/07/2020, 09:28:45,10.040284,0.1052842,4.766503,-1.3896245,1.5105145,1.32979,11.114762264647581,2.4456188720420324,jump
10/07/2020, 09:28:45,10.040284,0.1052842,4.766503,-1.8487623,1.5850023,1.3627601,11.114762264647581,2.7905679074450207,jump
10/07/2020, 09:28:45,9.877572,0.22253251,4.6396832,-1.8487623,1.5850023,1.3627601,10.91524672833606,2.7905679074450207,jump
10/07/2020, 09:28:45,9.877572,0.22253251,4.6396832,-2.2810357,1.6240778,1.3847401,10.91524672833606,3.123820987883878,jump
10/07/2020, 09:28:45,9.556933,0.078963146,4.3908296,-2.2810357,1.6240778,1.3847401,10.517632599619722,3.123820987883878,jump
10/07/2020, 09:28:45,9.556933,0.078963146,4.3908296,-2.6376002,1.6008767,1.4006145,10.517632599619722,3.3884305923119373,jump
10/07/2020, 09:28:45,9.176475,-0.26081768,4.130012,-2.6376002,1.6008767,1.4006145,10.066414993890174,3.3884305923119373,jump
10/07/2020, 09:28:45,9.176475,-0.26081768,4.130012,-2.8769379,1.51662,1.4079412,10.066414993890174,3.543897052219473,jump
10/07/2020, 09:28:45,8.874979,-0.74177504,3.8763726,-2.8769379,1.51662,1.4079412,9.712967988238475,3.543897052219473,jump
10/07/2020, 09:28:45,8.874979,-0.74177504,3.8763726,-2.9746268,1.4091623,1.4030567,9.712967988238475,3.5780876226161418,jump
10/07/2020, 09:28:45,8.690732,-1.2586247,3.6921253,-2.9746268,1.4091623,1.4030567,9.526003788791886,3.5780876226161418,jump
10/07/2020, 09:28:45,8.690732,-1.2586247,3.6921253,-2.9502046,1.2870512,1.3749712,9.526003788791886,3.5001076706914462,jump
10/07/2020, 09:28:45,8.566305,-1.7108682,3.591627,-2.9502046,1.2870512,1.3749712,9.445021858062002,3.5001076706914462,jump
10/07/2020, 09:28:45,8.566305,-1.7108682,3.591627,-2.8183246,1.1637189,1.3346745,9.445021858062002,3.3284457466461013,jump
10/07/2020, 09:28:45,8.432307,-2.0410776,3.5294135,-2.8183246,1.1637189,1.3346745,9.366245921147382,3.3284457466461013,jump
10/07/2020, 09:28:45,8.432307,-2.0410776,3.5294135,-2.5887556,1.0452712,1.2894934,9.366245921147382,3.0752301907323485,jump
10/07/2020, 09:28:45,8.267202,-2.239682,3.5389848,-2.5887556,1.0452712,1.2894934,9.267536008413082,3.0752301907323485,jump
10/07/2020, 09:28:45,8.267202,-2.239682,3.5389848,-2.3079002,0.9426978,1.2443123,9.267536008413082,2.786287052735347,jump
10/07/2020, 09:28:45,8.035098,-2.3234308,3.5509489,-2.3079002,0.9426978,1.2443123,9.08682394769572,2.786287052735347,jump
10/07/2020, 09:28:46,3.3882368,-3.5150564,1.6127625,0.01099,1.4079412,5.5853624,5.141670192581704,5.760094859350437,jump
10/07/2020, 09:28:46,2.751746,-2.804388,1.5744773,0.01099,1.4079412,5.5853624,4.232691442040896,5.760094859350437,jump
10/07/2020, 09:28:46,2.751746,-2.804388,1.5744773,-0.14531223,1.4262578,5.512096,4.232691442040896,5.695483176891535,jump
10/07/2020, 09:28:46,2.309074,-2.2085752,1.442872,-0.14531223,1.4262578,5.512096,3.5059245236725842,5.695483176891535,jump
10/07/2020, 09:28:46,2.309074,-2.2085752,1.442872,-0.27230778,1.4250367,5.371668,3.5059245236725842,5.564143838473656,jump
10/07/2020, 09:28:46,1.9573289,-1.672583,1.3351951,-0.27230778,1.4250367,5.371668,2.9002441591150303,5.564143838473656,jump
10/07/2020, 09:28:46,1.9573289,-1.672583,1.3351951,-0.26620224,1.3884034,5.148205,2.9002441591150303,5.338777048755716,jump
10/07/2020, 09:28:46,1.5744773,-1.2921243,1.2251252,-0.26620224,1.3884034,5.148205,2.3768667796060665,5.338777048755716,jump
10/07/2020, 09:28:46,1.5744773,-1.2921243,1.2251252,-0.14531223,1.3090311,4.8917713,2.3768667796060665,5.065975202778397,jump
10/07/2020, 09:28:46,1.0552348,-1.119841,1.1485549,-0.14531223,1.3090311,4.8917713,1.9200892396299154,5.065975202778397,jump
10/07/2020, 09:28:46,1.0552348,-1.119841,1.1485549,0.08303556,1.2272167,4.647549,1.9200892396299154,4.807563718452165,jump
10/07/2020, 09:28:46,0.4354937,-0.8350951,1.1437693,0.08303556,1.2272167,4.647549,1.4816365066536232,4.807563718452165,jump
10/07/2020, 09:28:46,0.4354937,-0.8350951,1.1437693,0.42250445,1.1392968,4.4350758,1.4816365066536232,4.59852195174311,jump
10/07/2020, 09:28:46,-0.2727818,-0.37088752,1.1844472,0.42250445,1.1392968,4.4350758,1.2707802927346845,4.59852195174311,jump
10/07/2020, 09:28:46,-0.2727818,-0.37088752,1.1844472,0.7448778,1.0562612,4.254351,1.2707802927346845,4.44635066750078,jump
10/07/2020, 09:28:46,-0.9954142,0.25842485,1.2179468,0.7448778,1.0562612,4.254351,1.594059959949648,4.44635066750078,jump
10/07/2020, 09:28:46,-0.9954142,0.25842485,1.2179468,0.9500245,0.95613,4.07729,1.594059959949648,4.294301499824716,jump
10/07/2020, 09:28:46,-1.6701902,1.1389836,1.2299109,0.9500245,0.95613,4.07729,2.366326205866591,4.294301499824716,jump
10/07/2020, 09:28:46,-1.6701902,1.1389836,1.2299109,1.0342811,0.8498934,3.8709223,2.366326205866591,4.095863267210035,jump
10/07/2020, 09:28:46,-2.2660031,2.268396,1.2011969,1.0342811,0.8498934,3.8709223,3.4239252576733503,4.095863267210035,jump
10/07/2020, 09:28:47,8.360522,-3.6131623,5.575277,-0.78029,1.4189311,1.16494,10.678810151813012,1.9948190997150477,jump
10/07/2020, 09:28:47,8.360522,-3.6131623,5.575277,-0.67039,1.405499,1.2162267,10.678810151813012,1.9758688040187469,jump
10/07/2020, 09:28:47,8.329415,-3.0843484,5.9342003,-0.67039,1.405499,1.2162267,10.68209239524514,1.9758688040187469,jump
10/07/2020, 09:28:47,8.329415,-3.0843484,5.9342003,-0.65329444,1.3383378,1.2369856,10.68209239524514,1.9359945577425237,jump
10/07/2020, 09:28:47,8.350951,-2.5698915,6.0729837,-0.65329444,1.3383378,1.2369856,10.640670066500537,1.9359945577425237,jump
10/07/2020, 09:28:47,8.350951,-2.5698915,6.0729837,-0.6838223,1.2833878,1.2565234,10.640670066500537,1.9218605772182609,jump
10/07/2020, 09:28:47,8.484949,-2.1176481,6.017949,-0.6838223,1.2833878,1.2565234,10.615766879235034,1.9218605772182609,jump
10/07/2020, 09:28:47,8.484949,-2.1176481,6.017949,-0.7522045,1.2479756,1.2833878,10.615766879235034,1.941736037312823,jump
10/07/2020, 09:28:47,8.678768,-1.7611175,5.790631,-0.7522045,1.2479756,1.2833878,10.580829679437338,1.941736037312823,jump
10/07/2020, 09:28:47,8.678768,-1.7611175,5.790631,-0.8669889,1.2223322,1.3163579,10.580829679437338,1.9946337615999898,jump
10/07/2020, 09:28:47,8.815159,-1.4883357,5.4891353,-0.8669889,1.2223322,1.3163579,10.4906041126011,1.9946337615999898,jump
10/07/2020, 09:28:47,8.815159,-1.4883357,5.4891353,-1.0428289,1.1954678,1.3493278,10.4906041126011,2.0826235862644937,jump
10/07/2020, 09:28:47,8.788837,-1.2849457,5.1589255,-1.0428289,1.1954678,1.3493278,10.271770129784066,2.0826235862644937,jump
10/07/2020, 09:28:47,8.788837,-1.2849457,5.1589255,-1.2638501,1.1624979,1.3688656,10.271770129784066,2.196021727985948,jump
10/07/2020, 09:28:47,8.609376,-1.1653047,4.7952166,-1.2638501,1.1624979,1.3688656,9.923375994336201,2.196021727985948,jump
10/07/2020, 09:28:47,8.609376,-1.1653047,4.7952166,-1.4885345,1.1160955,1.3603178,9.923375994336201,2.3047491533325104,jump
10/07/2020, 09:28:47,8.315059,-1.1772687,4.3812585,-1.4885345,1.1160955,1.3603178,9.472148064255263,2.3047491533325104,jump
10/07/2020, 09:28:47,8.315059,-1.1772687,4.3812585,-1.6753645,1.0306178,1.3371167,9.472148064255263,2.3784239372236122,jump
10/07/2020, 09:28:47,7.9944205,-1.3184453,3.9960139,-1.6753645,1.0306178,1.3371167,9.034222965324703,2.3784239372236122,jump
10/07/2020, 09:28:47,7.9944205,-1.3184453,3.9960139,-1.7938123,0.9268234,1.29682,9.034222965324703,2.3996887879150592,jump
10/07/2020, 09:28:48,-6.4151573,6.113662,-0.13399807,0.11234222,-0.1306589,0.15508112,8.862790705392875,0.23182466805144414,jump
10/07/2020, 09:28:48,-6.4151573,6.113662,-0.13399807,0.102573335,-0.32237336,-0.2515489,8.862790705392875,0.42157171961485657,jump
10/07/2020, 09:28:48,-6.5347986,6.2117677,0.06460621,0.102573335,-0.32237336,-0.2515489,9.016308813693916,0.42157171961485657,jump
10/07/2020, 09:28:48,-6.5347986,6.2117677,0.06460621,0.07326667,-0.5043189,-0.67161113,9.016308813693916,0.8430700214097484,jump
10/07/2020, 09:28:48,-6.5371914,6.2524457,0.22971097,0.07326667,-0.5043189,-0.67161113,9.048796362735398,0.8430700214097484,jump
10/07/2020, 09:28:48,-6.5371914,6.2524457,0.22971097,0.017095556,-0.6752745,-1.0928944,9.048796362735398,1.2847980940848798,jump
10/07/2020, 09:28:48,-6.4941206,6.209375,0.32542387,0.017095556,-0.6752745,-1.0928944,8.990875359966719,1.2847980940848798,jump
10/07/2020, 09:28:48,-6.4941206,6.209375,0.32542387,-0.06716111,-0.82425004,-1.4836501,8.990875359966719,1.6985630197627224,jump
10/07/2020, 09:28:48,-6.4965134,6.0825553,0.4235296,-0.06716111,-0.82425004,-1.4836501,8.909631987162776,1.6985630197627224,jump
10/07/2020, 09:28:48,-6.4965134,6.0825553,0.4235296,-0.1746189,-0.96712005,-1.8365512,8.909631987162776,2.082962607761757,jump
10/07/2020, 09:28:48,-6.570691,5.855237,0.6053841,-0.1746189,-0.96712005,-1.8365512,8.821806616455184,2.082962607761757,jump
10/07/2020, 09:28:48,-6.570691,5.855237,0.6053841,-0.25887558,-1.1185378,-2.174799,8.821806616455184,2.4592466079572173,jump
10/07/2020, 09:28:48,-6.6831536,5.601598,0.7680961,-0.25887558,-1.1185378,-2.174799,8.753994047914192,2.4592466079572173,jump
10/07/2020, 09:28:48,-6.6831536,5.601598,0.7680961,-0.30405667,-1.2797245,-2.5032778,8.753994047914192,2.8278162669364844,jump
10/07/2020, 09:28:48,-6.786045,5.326423,0.8997013,-0.30405667,-1.2797245,-2.5032778,8.67356062661264,2.8278162669364844,jump
10/07/2020, 09:28:48,-6.786045,5.326423,0.8997013,-0.31016225,-1.4470167,-2.8244302,8.67356062661264,3.1886461240076653,jump
10/07/2020, 09:28:48,-6.843473,5.0273204,1.0073783,-0.31016225,-1.4470167,-2.8244302,8.551133462542538,3.1886461240076653,jump
10/07/2020, 09:28:48,-6.843473,5.0273204,1.0073783,-0.26498112,-1.6216357,-3.1236024,8.551133462542538,3.5294205120448487,jump
10/07/2020, 09:28:48,-6.829116,4.685147,1.1174482,-0.26498112,-1.6216357,-3.1236024,8.356800503500285,3.5294205120448487,jump
10/07/2020, 09:28:48,-6.829116,4.685147,1.1174482,-0.19293556,-1.7999178,-3.394689,8.356800503500285,3.8471862767639373,jump
10/07/2020, 09:28:49,7.436893,-2.9168508,4.668397,-0.8425667,0.34679556,1.0037534,9.25253078841265,1.3556204437062271,jump
10/07/2020, 09:28:49,7.314859,-3.1322048,4.6564326,-0.8425667,0.34679556,1.0037534,9.2195570650648,1.3556204437062271,jump
10/07/2020, 09:28:49,7.314859,-3.1322048,4.6564326,-0.54339445,0.28329778,0.97811,9.2195570650648,1.1542245696191638,jump
10/07/2020, 09:28:49,7.1473613,-3.306881,4.752146,-0.54339445,0.28329778,0.97811,9.197995665487404,1.1542245696191638,jump
10/07/2020, 09:28:49,7.1473613,-3.306881,4.752146,-0.22468445,0.21613668,0.9426978,9.197995665487404,0.9929135664080507,jump
10/07/2020, 09:28:49,6.948757,-3.4193435,4.871787,-0.22468445,0.21613668,0.9426978,9.149395896667214,0.9929135664080507,jump
10/07/2020, 09:28:49,6.948757,-3.4193435,4.871787,0.09036223,0.12699556,0.90362227,9.149395896667214,0.9169658726765981,jump
10/07/2020, 09:28:49,6.7334027,-3.4217365,4.965107,0.09036223,0.12699556,0.90362227,9.038765402798305,0.9169658726765981,jump
10/07/2020, 09:28:49,6.7334027,-3.4217365,4.965107,0.35656446,0.04029667,0.8535567,9.038765402798305,0.9259163379015201,jump
10/07/2020, 09:28:49,6.587441,-3.306881,5.0775695,0.35656446,0.04029667,0.8535567,8.950505683857159,0.9259163379015201,jump
10/07/2020, 09:28:49,6.587441,-3.306881,5.0775695,0.51653004,-0.0024422223,0.79128003,8.950505683857159,0.944951496786728,jump
10/07/2020, 09:28:49,6.539584,-3.1226335,5.1876397,0.51653004,-0.0024422223,0.79128003,8.912272801400048,0.944951496786728,jump
10/07/2020, 09:28:49,6.539584,-3.1226335,5.1876397,0.5556056,-0.014653334,0.7326667,8.912272801400048,0.9196264151428974,jump
10/07/2020, 09:28:49,6.5922265,-2.9312077,5.2977095,0.5556056,-0.014653334,0.7326667,8.950706910651359,0.9196264151428974,jump
10/07/2020, 09:28:49,6.5922265,-2.9312077,5.2977095,0.50676113,-0.009768889,0.6777167,8.950706910651359,0.8462872832991843,jump
10/07/2020, 09:28:49,6.678368,-2.7326035,5.35753,0.50676113,-0.009768889,0.6777167,8.987260510458821,0.8462872832991843,jump
10/07/2020, 09:28:49,6.678368,-2.7326035,5.35753,0.3834289,0.0012211112,0.6325356,8.987260510458821,0.7396759219487892,jump
10/07/2020, 09:28:49,6.7501526,-2.6009982,5.3790655,0.3834289,0.0012211112,0.6325356,9.014660126960681,0.7396759219487892,jump
10/07/2020, 09:28:49,6.7501526,-2.6009982,5.3790655,0.2503278,0.01099,0.5836911,9.014660126960681,0.6352008415993756,jump
10/07/2020, 09:28:49,6.8051877,-2.5148566,5.4053864,0.2503278,0.01099,0.5836911,9.047280581234032,0.6352008415993756,jump
10/07/2020, 09:28:50,-3.4169507,-1.2323036,1.6845472,-1.3810767,-1.4225945,-1.9183656,4.003975966002194,2.758853864539925,jump
10/07/2020, 09:28:50,-3.0556345,-1.6295122,2.0410776,-1.3810767,-1.4225945,-1.9183656,4.019727602054463,2.758853864539925,jump
10/07/2020, 09:28:50,-3.0556345,-1.6295122,2.0410776,-1.3322322,-1.5312734,-2.0807734,4.019727602054463,2.9067608433291263,jump
10/07/2020, 09:28:50,-2.7206392,-2.012364,2.239682,-1.3322322,-1.5312734,-2.0807734,4.058036668210128,2.9067608433291263,jump
10/07/2020, 09:28:50,-2.7206392,-2.012364,2.239682,-1.2430911,-1.636289,-2.229749,4.058036668210128,3.032243004094749,jump
10/07/2020, 09:28:50,-2.5028925,-2.225325,2.2588246,-1.2430911,-1.636289,-2.229749,4.039657310487238,3.032243004094749,jump
10/07/2020, 09:28:50,-2.5028925,-2.225325,2.2588246,-1.1002212,-1.7706112,-2.3897145,4.039657310487238,3.171164737488637,jump
10/07/2020, 09:28:50,-2.4191437,-2.2779672,2.1559331,-1.1002212,-1.7706112,-2.3897145,3.9609895822931716,3.171164737488637,jump
10/07/2020, 09:28:50,-2.4191437,-2.2779672,2.1559331,-0.9549089,-1.9476722,-2.5679967,3.9609895822931716,3.3615302267045637,jump
10/07/2020, 09:28:50,-2.3928227,-2.2229323,1.9549361,-0.9549089,-1.9476722,-2.5679967,3.8064161881174856,3.3615302267045637,jump
10/07/2020, 09:28:50,-2.3928227,-2.2229323,1.9549361,-0.8584412,-2.162588,-2.75849,3.8064161881174856,3.6087359483708124,jump
10/07/2020, 09:28:50,-2.3449662,-2.2348964,2.0003998,-0.8584412,-2.162588,-2.75849,3.8072598859998648,3.6087359483708124,jump
10/07/2020, 09:28:50,-2.3449662,-2.2348964,2.0003998,-0.8853056,-2.349418,-2.9367723,3.8072598859998648,3.8636980183542664,jump
10/07/2020, 09:28:50,-2.1487548,-2.7038896,2.3306093,-0.8853056,-2.349418,-2.9367723,4.166522070710033,3.8636980183542664,jump
10/07/2020, 09:28:50,-2.1487548,-2.7038896,2.3306093,-1.0416079,-2.493509,-3.0246923,4.166522070710033,4.056019948417764,jump
10/07/2020, 09:28:50,-1.7898313,-3.7878382,2.7637103,-1.0416079,-2.493509,-3.0246923,5.018895177447323,4.056019948417764,jump
10/07/2020, 09:28:50,-1.7898313,-3.7878382,2.7637103,-1.1954678,-2.57166,-2.977069,5.018895177447323,4.111632029275715,jump
10/07/2020, 09:28:50,-1.3567305,-5.2307105,3.2398818,-1.1954678,-2.57166,-2.977069,6.3006256614482,4.111632029275715,jump
10/07/2020, 09:28:50,-1.3567305,-5.2307105,3.2398818,-1.17593,-2.5973034,-2.8647268,6.3006256614482,4.04171446992314,jump
10/07/2020, 09:28:50,-0.95712906,-6.4008007,3.7710886,-1.17593,-2.5973034,-2.8647268,7.490490967530007,4.04171446992314,jump
10/07/2020, 09:28:51,6.6759753,-3.3403804,3.900301,1.2638501,-1.1722667,-0.6801589,8.422537364701848,1.8531439424058156,jump
10/07/2020, 09:28:51,6.652047,-3.3164523,3.938586,1.2638501,-1.1722667,-0.6801589,8.411958550790256,1.8531439424058156,jump
10/07/2020, 09:28:51,6.652047,-3.3164523,3.938586,1.3896245,-1.2638501,-0.6984756,8.411958550790256,2.0040562381320237,jump
10/07/2020, 09:28:51,6.678368,-3.3020952,4.005585,1.3896245,-1.2638501,-0.6984756,8.458672806859546,2.0040562381320237,jump
10/07/2020, 09:28:51,6.678368,-3.3020952,4.005585,1.5215045,-1.3468856,-0.70946556,8.458672806859546,2.1523053015370577,jump
10/07/2020, 09:28:51,6.8243303,-3.333202,4.1228333,1.5215045,-1.3468856,-0.70946556,8.641728605006767,2.1523053015370577,jump
10/07/2020, 09:28:51,6.8243303,-3.333202,4.1228333,1.6753645,-1.4409112,-0.70580226,8.641728605006767,2.3197474070434545,jump
10/07/2020, 09:28:51,7.0731835,-3.4073794,4.2855453,1.6753645,-1.4409112,-0.70580226,8.944610588510143,2.3197474070434545,jump
10/07/2020, 09:28:51,7.0731835,-3.4073794,4.2855453,1.8487623,-1.515399,-0.6972545,8.944610588510143,2.4900842996763024,jump
10/07/2020, 09:28:51,7.367501,-3.4719856,4.4889355,1.8487623,-1.515399,-0.6972545,9.299746947609426,2.4900842996763024,jump
10/07/2020, 09:28:51,7.367501,-3.4719856,4.4889355,2.0087278,-1.5666857,-0.6789378,9.299746947609426,2.6363702064859624,jump
10/07/2020, 09:28:51,7.692925,-3.5102708,4.7808595,2.0087278,-1.5666857,-0.6789378,9.713892798201377,2.6363702064859624,jump
10/07/2020, 09:28:51,7.692925,-3.5102708,4.7808595,2.1369445,-1.5862234,-0.65329444,9.713892798201377,2.740333944122282,jump
10/07/2020, 09:28:51,7.9776707,-3.505485,5.1421757,2.1369445,-1.5862234,-0.65329444,10.117985247535726,2.740333944122282,jump
10/07/2020, 09:28:51,7.9776707,-3.505485,5.1421757,2.2712667,-1.5495901,-0.61544,10.117985247535726,2.8175607066823747,jump
10/07/2020, 09:28:51,8.29113,-3.493521,5.6183476,2.2712667,-1.5495901,-0.61544,10.607231346181665,2.8175607066823747,jump
10/07/2020, 09:28:51,8.29113,-3.493521,5.6183476,2.4226844,-1.4360267,-0.5556056,10.607231346181665,2.870587062929295,jump
10/07/2020, 09:28:51,8.69791,-3.562913,6.4199433,2.4226844,-1.4360267,-0.5556056,11.382603602001842,2.870587062929295,jump
10/07/2020, 09:28:51,8.69791,-3.562913,6.4199433,2.5948613,-1.2687345,-0.4689067,11.382603602001842,2.9262374505155155,jump
10/07/2020, 09:28:51,9.073584,-3.7040894,7.3842506,2.5948613,-1.2687345,-0.4689067,12.270996505281637,2.9262374505155155,jump
10/07/2020, 09:28:52,-2.495714,-4.359723,3.9098723,0.78273225,-3.4227746,-3.6706603,6.365757998762122,5.079547434571405,jump
10/07/2020, 09:28:52,-2.225325,-3.0699914,2.9790642,0.78273225,-3.4227746,-3.6706603,4.822006054338165,5.079547434571405,jump
10/07/2020, 09:28:52,-2.225325,-3.0699914,2.9790642,0.82547116,-3.6987457,-3.9368625,4.822006054338165,5.464522732609715,jump
10/07/2020, 09:28:52,-1.7946169,-2.1248264,2.2325034,0.82547116,-3.6987457,-3.9368625,3.5664560575039546,5.464522732609715,jump
10/07/2020, 09:28:52,-1.7946169,-2.1248264,2.2325034,0.65085226,-3.889239,-3.9796014,3.5664560575039546,5.602411659531156,jump
10/07/2020, 09:28:52,-1.1174482,-1.9286151,2.0578275,0.65085226,-3.889239,-3.9796014,3.033628287845521,5.602411659531156,jump
10/07/2020, 09:28:52,-1.1174482,-1.9286151,2.0578275,0.28085557,-3.9600635,-3.790329,3.033628287845521,5.488859281236781,jump
10/07/2020, 09:28:52,-0.18903299,-2.6823542,2.4909284,0.28085557,-3.9600635,-3.790329,3.665444303058033,5.488859281236781,jump
10/07/2020, 09:28:52,-0.18903299,-2.6823542,2.4909284,-0.117226675,-3.888018,-3.5082524,3.665444303058033,5.238154255666254,jump
10/07/2020, 09:28:52,0.90448695,-4.0414777,3.7423747,-0.117226675,-3.888018,-3.5082524,5.581846161903953,5.238154255666254,jump
10/07/2020, 09:28:52,0.90448695,-4.0414777,3.7423747,-0.3614489,-3.7048512,-3.2933369,5.581846161903953,4.97017455355084,jump
10/07/2020, 09:28:52,1.9980069,-5.65424,5.4149575,-0.3614489,-3.7048512,-3.2933369,8.079865603756597,4.97017455355084,jump
10/07/2020, 09:28:52,1.9980069,-5.65424,5.4149575,-0.36511225,-3.635248,-3.2799046,8.079865603756597,4.90979722492824,jump
10/07/2020, 09:28:52,2.6895328,-6.7764735,6.491728,-0.36511225,-3.635248,-3.2799046,9.76200338313647,4.90979722492824,jump
10/07/2020, 09:28:52,2.6895328,-6.7764735,6.491728,-0.14531223,-3.7952135,-3.4679556,9.76200338313647,5.143099924058897,jump
10/07/2020, 09:28:52,2.8761728,-6.9320073,7.01097,-0.14531223,-3.7952135,-3.4679556,10.270287104710016,5.143099924058897,jump
10/07/2020, 09:28:52,2.8761728,-6.9320073,7.01097,0.17584,-4.008908,-3.690198,10.270287104710016,5.451588968963079,jump
10/07/2020, 09:28:52,2.8546374,-6.350551,7.24786,0.17584,-4.008908,-3.690198,10.050369553187936,5.451588968963079,jump
10/07/2020, 09:28:52,2.8546374,-6.350551,7.24786,0.40540892,-4.111481,-3.812309,10.050369553187936,5.621595332303034,jump
10/07/2020, 09:28:52,2.8354948,-5.515456,7.2382884,0.40540892,-4.111481,-3.812309,9.531689598600833,5.621595332303034,jump
10/07/2020, 09:28:53,10.480563,-8.188239,15.778273,-2.7169724,5.107908,2.471529,20.635972254709344,6.291352493434982,jump
10/07/2020, 09:28:53,10.480563,-8.188239,15.778273,-2.3274379,5.22025,2.6669068,20.635972254709344,6.307168187890283,jump
10/07/2020, 09:28:53,10.3848505,-9.131011,15.192031,-2.3274379,5.22025,2.6669068,20.543083630970543,6.307168187890283,jump
10/07/2020, 09:28:53,10.3848505,-9.131011,15.192031,-2.0697834,5.3081703,2.9379935,20.543083630970543,6.410341770864264,jump
10/07/2020, 09:28:53,10.3441725,-10.040284,14.349757,-2.0697834,5.3081703,2.9379935,20.34022472195898,6.410341770864264,jump
10/07/2020, 09:28:53,10.3441725,-10.040284,14.349757,-1.9317979,5.4131856,3.2469347,20.34022472195898,6.6012882014127685,jump
10/07/2020, 09:28:53,10.41835,-10.755738,13.426127,-1.9317979,5.4131856,3.2469347,20.111907533878533,6.6012882014127685,jump
10/07/2020, 09:28:53,10.41835,-10.755738,13.426127,-1.7986968,5.573151,3.558318,20.111907533878533,6.852514108665779,jump
10/07/2020, 09:28:53,10.557134,-11.370693,12.509677,-1.7986968,5.573151,3.558318,19.930824177689082,6.852514108665779,jump
10/07/2020, 09:28:53,10.557134,-11.370693,12.509677,-1.5679067,5.711137,3.8562691,19.930824177689082,7.067264451326745,jump
10/07/2020, 09:28:53,10.60499,-11.904293,11.4903345,-1.5679067,5.711137,3.8562691,19.652119311981018,7.067264451326745,jump
10/07/2020, 09:28:53,10.60499,-11.904293,11.4903345,-1.1661612,5.723348,4.100491,19.652119311981018,7.13657289336191,jump
10/07/2020, 09:28:53,10.411171,-12.224931,10.260424,-1.1661612,5.723348,4.100491,19.05564763008308,7.13657289336191,jump
10/07/2020, 09:28:53,10.411171,-12.224931,10.260424,-0.61544,5.6305437,4.2555723,19.05564763008308,7.084608996013275,jump
10/07/2020, 09:28:53,9.997213,-12.220145,8.9013,-0.61544,5.6305437,4.2555723,18.124827550121164,7.084608996013275,jump
10/07/2020, 09:28:53,9.997213,-12.220145,8.9013,0.019537779,5.491337,4.3202915,18.124827550121164,6.987136797974726,jump
10/07/2020, 09:28:53,9.473185,-11.801401,7.585248,0.019537779,5.491337,4.3202915,16.927796139543293,6.987136797974726,jump
10/07/2020, 09:28:53,9.473185,-11.801401,7.585248,0.65940005,5.3411403,4.315407,16.927796139543293,6.8982116269645,jump
10/07/2020, 09:28:53,8.841479,-10.992627,6.5108705,0.65940005,5.3411403,4.315407,15.537086015910804,6.8982116269645,jump
10/07/2020, 09:28:53,8.841479,-10.992627,6.5108705,1.2125634,5.194607,4.294648,15.537086015910804,6.848229881181745,jump
10/07/2020, 09:28:54,8.140383,-0.21774685,8.508878,-2.1064167,0.93537116,-0.40052447,11.77770121531521,2.3393012590007514,jump
10/07/2020, 09:28:54,7.9226356,-0.6771688,7.989635,-2.1064167,0.93537116,-0.40052447,11.272132850154092,2.3393012590007514,jump
10/07/2020, 09:28:54,7.9226356,-0.6771688,7.989635,-2.0050645,1.02207,-0.35900667,11.272132850154092,2.2789902539913642,jump
10/07/2020, 09:28:54,7.800602,-1.0289137,7.429714,-2.0050645,1.02207,-0.35900667,10.821677667517427,2.2789902539913642,jump
10/07/2020, 09:28:54,7.800602,-1.0289137,7.429714,-1.9464512,1.1112112,-0.32359445,10.821677667517427,2.2645476105978117,jump
10/07/2020, 09:28:54,7.7742805,-1.3280165,6.8482585,-1.9464512,1.1112112,-0.32359445,10.445176414764772,2.2645476105978117,jump
10/07/2020, 09:28:54,7.7742805,-1.3280165,6.8482585,-1.91226,1.1966889,-0.30405667,10.445176414764772,2.2762366488825703,jump
10/07/2020, 09:28:54,7.8197446,-1.6295122,6.314659,-1.91226,1.1966889,-0.30405667,10.182270629376108,2.2762366488825703,jump
10/07/2020, 09:28:54,7.8197446,-1.6295122,6.314659,-1.8695211,1.2870512,-0.2955089,10.182270629376108,2.2888721229804663,jump
10/07/2020, 09:28:54,7.9298143,-1.9740787,5.9030933,-1.8695211,1.2870512,-0.2955089,10.080945042027322,2.2888721229804663,jump
10/07/2020, 09:28:54,7.9298143,-1.9740787,5.9030933,-1.8157923,1.3749712,-0.29306668,10.080945042027322,2.296417972286405,jump
10/07/2020, 09:28:54,8.075776,-2.3282163,5.639883,-1.8157923,1.3749712,-0.29306668,10.121612102160752,2.296417972286405,jump
10/07/2020, 09:28:54,8.075776,-2.3282163,5.639883,-1.7522945,1.4213734,-0.2820767,10.121612102160752,2.2738526035708637,jump
10/07/2020, 09:28:54,8.228917,-2.5746772,5.4436717,-1.7522945,1.4213734,-0.2820767,10.196940788578525,2.2738526035708637,jump
10/07/2020, 09:28:54,8.228917,-2.5746772,5.4436717,-1.6753645,1.4384689,-0.2515489,10.196940788578525,2.222457176763712,jump
10/07/2020, 09:28:54,8.377272,-2.725425,5.3072805,-1.6753645,1.4384689,-0.2515489,10.284641390344422,2.222457176763712,jump
10/07/2020, 09:28:54,8.377272,-2.725425,5.3072805,-1.6008767,1.4567856,-0.18438779,10.284641390344422,2.1723326624834316,jump
10/07/2020, 09:28:54,8.547162,-2.8163524,5.312066,-1.6008767,1.4567856,-0.18438779,10.450065353258848,2.1723326624834316,jump
10/07/2020, 09:28:54,8.547162,-2.8163524,5.312066,-1.6167512,1.4824289,-0.08669889,10.450065353258848,2.195221307542392,jump
10/07/2020, 09:28:54,8.6548395,-2.8307092,5.3886366,-1.6167512,1.4824289,-0.08669889,10.580952982295313,2.195221307542392,jump
10/07/2020, 09:28:55,3.7016966,0.021535404,-0.23928227,-0.35290113,3.5851824,3.6938612,3.709484835991314,5.159717352561869,jump
10/07/2020, 09:28:55,2.8402805,0.5982057,-0.7178468,-0.35290113,3.5851824,3.6938612,2.9900414029434894,5.159717352561869,jump
10/07/2020, 09:28:55,2.8402805,0.5982057,-0.7178468,-0.51653004,3.3812568,3.5644236,2.9900414029434894,4.940123103368229,jump
10/07/2020, 09:28:55,2.009971,1.0695918,-1.0863415,-0.51653004,3.3812568,3.5644236,2.522726188502356,4.940123103368229,jump
10/07/2020, 09:28:55,2.009971,1.0695918,-1.0863415,-0.72778225,3.1553512,3.4203324,2.522726188502356,4.710051157031526,jump
10/07/2020, 09:28:55,1.2155539,1.3830515,-1.4069797,-0.72778225,3.1553512,3.4203324,2.3173248686274626,4.710051157031526,jump
10/07/2020, 09:28:55,1.2155539,1.3830515,-1.4069797,-0.9952056,2.8964758,3.2420502,2.3173248686274626,4.459921016418781,jump
10/07/2020, 09:28:55,0.47138608,1.5481563,-1.7060826,-0.9952056,2.8964758,3.2420502,2.351533631439591,4.459921016418781,jump
10/07/2020, 09:28:55,0.47138608,1.5481563,-1.7060826,-1.2467545,2.625389,3.0491145,2.351533631439591,4.212382199852186,jump
10/07/2020, 09:28:55,-0.1794617,1.538585,-1.875973,-1.2467545,2.625389,3.0491145,2.4328429436994248,4.212382199852186,jump
10/07/2020, 09:28:55,-0.1794617,1.538585,-1.875973,-1.3993934,2.3823879,2.8403046,2.4328429436994248,3.962499752347512,jump
10/07/2020, 09:28:55,-0.7082755,1.4069797,-1.8281165,-1.3993934,2.3823879,2.8403046,2.4131423640989627,3.962499752347512,jump
10/07/2020, 09:28:55,-0.7082755,1.4069797,-1.8281165,-1.4030567,2.107638,2.6278312,2.4131423640989627,3.6491372383780836,jump
10/07/2020, 09:28:55,-1.2131611,1.2729816,-1.7036897,-1.4030567,2.107638,2.6278312,2.4484282143663405,3.6491372383780836,jump
10/07/2020, 09:28:55,-1.2131611,1.2729816,-1.7036897,-1.2614079,1.7938123,2.4153578,2.4484282143663405,3.2623405225668214,jump
10/07/2020, 09:28:55,-1.7419748,1.2610176,-1.5026926,-1.2614079,1.7938123,2.4153578,2.6234951096283083,3.2623405225668214,jump
10/07/2020, 09:28:55,-1.7419748,1.2610176,-1.5026926,-1.0086378,1.4873134,2.1943367,2.6234951096283083,2.8362941751886668,jump
10/07/2020, 09:28:55,-2.251646,1.4189439,-1.2346965,-1.0086378,1.4873134,2.1943367,2.9339030494583382,2.8362941751886668,jump
10/07/2020, 09:28:55,-2.251646,1.4189439,-1.2346965,-0.71435004,1.2162267,1.9537779,2.9339030494583382,2.409720208573171,jump
10/07/2020, 09:28:55,-2.696711,1.7611175,-0.9595219,-0.71435004,1.2162267,1.9537779,3.3607242550160397,2.409720208573171,jump
10/07/2020, 09:28:56,8.63809,-2.062613,4.6779685,-1.3822979,1.2797245,0.72534,10.037647278828604,2.0185540073989388,jump
10/07/2020, 09:28:56,8.63809,-2.062613,4.6779685,-1.3664234,1.2150056,0.77052116,10.037647278828604,1.984201194932601,jump
10/07/2020, 09:28:56,8.595019,-1.9884356,4.546363,-1.3664234,1.2150056,0.77052116,9.924598183859988,1.984201194932601,jump
10/07/2020, 09:28:56,8.595019,-1.9884356,4.546363,-1.3358957,1.1331911,0.81081784,9.924598183859988,1.9303276568071372,jump
10/07/2020, 09:28:56,8.549556,-1.9286151,4.4147577,-1.3358957,1.1331911,0.81081784,9.813487962473268,1.9303276568071372,jump
10/07/2020, 09:28:56,8.549556,-1.9286151,4.4147577,-1.2809457,1.0513767,0.8486723,9.813487962473268,1.8618430035396858,jump
10/07/2020, 09:28:56,8.5112705,-1.8999012,4.304688,-1.2809457,1.0513767,0.8486723,9.72531176265813,1.8618430035396858,jump
10/07/2020, 09:28:56,8.5112705,-1.8999012,4.304688,-1.2223322,0.9683412,0.87920004,9.72531176265813,1.7901881019516124,jump
10/07/2020, 09:28:56,8.463413,-1.9070797,4.240082,-1.2223322,0.9683412,0.87920004,9.656324879415473,1.7901881019516124,jump
10/07/2020, 09:28:56,8.463413,-1.9070797,4.240082,-1.1392968,0.8877478,0.9060645,9.656324879415473,1.7050062248027278,jump
10/07/2020, 09:28:56,8.398808,-1.9357935,4.23051,-1.1392968,0.8877478,0.9060645,9.601274980332773,1.7050062248027278,jump
10/07/2020, 09:28:56,8.398808,-1.9357935,4.23051,-1.0355023,0.80593336,0.9292656,9.601274980332773,1.6078955835648503,jump
10/07/2020, 09:28:56,8.310273,-1.9812572,4.2424746,-1.0355023,0.80593336,0.9292656,9.538585357347642,1.6078955835648503,jump
10/07/2020, 09:28:56,8.310273,-1.9812572,4.2424746,-0.91217005,0.7119078,0.9414767,9.538585357347642,1.4917256141299955,jump
10/07/2020, 09:28:56,8.224132,-2.0410776,4.2568316,-0.91217005,0.7119078,0.9414767,9.482771419868529,1.4917256141299955,jump
10/07/2020, 09:28:56,8.224132,-2.0410776,4.2568316,-0.76930004,0.61544,0.9524667,9.482771419868529,1.370321797586621,jump
10/07/2020, 09:28:56,8.145168,-2.1176481,4.314259,-0.76930004,0.61544,0.9524667,9.457326866397445,1.370321797586621,jump
10/07/2020, 09:28:56,8.145168,-2.1176481,4.314259,-0.62765115,0.53484666,0.95613,9.457326866397445,1.262612987341037,jump
10/07/2020, 09:28:56,8.04467,-2.1774685,4.3501515,-0.62765115,0.53484666,0.95613,9.401165073762597,1.262612987341037,jump
10/07/2020, 09:28:56,8.04467,-2.1774685,4.3501515,-0.48966557,0.4493689,0.9414767,9.401165073762597,1.1524249012648733,jump
10/07/2020, 09:28:57,-6.611369,0.91884387,1.0336994,-0.34679556,-0.029306669,-0.11600556,6.754480757049506,0.36685600853825573,jump
10/07/2020, 09:28:57,-7.0372915,0.94277215,1.052842,-0.34679556,-0.029306669,-0.11600556,7.177796854268183,0.36685600853825573,jump
10/07/2020, 09:28:57,-7.0372915,0.94277215,1.052842,-0.3504589,-0.14164889,-0.27475002,7.177796854268183,0.46730441586859917,jump
10/07/2020, 09:28:57,-7.463214,1.0504491,1.0743774,-0.3504589,-0.14164889,-0.27475002,7.612968687756459,0.46730441586859917,jump
10/07/2020, 09:28:57,-7.463214,1.0504491,1.0743774,-0.34801668,-0.26986557,-0.4359367,7.612968687756459,0.6196642908881326,jump
10/07/2020, 09:28:57,-7.810173,1.1844472,1.1509477,-0.34801668,-0.26986557,-0.4359367,7.982881592098569,0.6196642908881326,jump
10/07/2020, 09:28:57,-7.810173,1.1844472,1.1509477,-0.34557447,-0.37976557,-0.6056711,7.982881592098569,0.7940283951220324,jump
10/07/2020, 09:28:57,-8.047063,1.294517,1.2610176,-0.34557447,-0.37976557,-0.6056711,8.247494198366594,0.7940283951220324,jump
10/07/2020, 09:28:57,-8.047063,1.294517,1.2610176,-0.34069002,-0.46402225,-0.7851745,8.247494198366594,0.9735940187122162,jump
10/07/2020, 09:28:57,-8.16431,1.3375878,1.3184453,-0.34069002,-0.46402225,-0.7851745,8.377553610553685,0.9735940187122162,jump
10/07/2020, 09:28:57,-8.16431,1.3375878,1.3184453,-0.35778558,-0.5580478,-0.95857227,8.377553610553685,1.1654564051092924,jump
10/07/2020, 09:28:57,-8.226524,1.268196,1.3639089,-0.35778558,-0.5580478,-0.95857227,8.434706363801036,1.1654564051092924,jump
10/07/2020, 09:28:57,-8.226524,1.268196,1.3639089,-0.39075556,-0.6520734,-1.12098,8.434706363801036,1.354431918920389,jump
10/07/2020, 09:28:57,-8.226524,1.0552348,1.5266209,-0.39075556,-0.6520734,-1.12098,8.433255282375189,1.354431918920389,jump
10/07/2020, 09:28:57,-8.226524,1.0552348,1.5266209,-0.43471557,-0.7351089,-1.2675134,8.433255282375189,1.5283824597619053,jump
10/07/2020, 09:28:57,-8.13799,0.6795616,1.7060826,-0.43471557,-0.7351089,-1.2675134,8.3426256641491,1.5283824597619053,jump
10/07/2020, 09:28:57,-8.13799,0.6795616,1.7060826,-0.48111778,-0.8095967,-1.394509,8.3426256641491,1.6827288555608528,jump
10/07/2020, 09:28:57,-7.999206,0.22013968,1.875973,-0.48111778,-0.8095967,-1.394509,8.219186931393434,1.6827288555608528,jump
10/07/2020, 09:28:57,-7.999206,0.22013968,1.875973,-0.48111778,-0.8779789,-1.5019667,8.219186931393434,1.805055489777106,jump
10/07/2020, 09:28:57,-7.881958,-0.21774685,2.0267208,-0.48111778,-0.8779789,-1.5019667,8.141269727592766,1.805055489777106,jump
10/07/2020, 09:28:58,8.405986,-2.1822543,5.680561,-0.24055889,1.4311423,0.7668578,10.377456611571736,1.641373766019838,jump
