DATE,TIME,ax,ay,az,gx,gy,gz,ma,mg,label
09/07/2020, 21:52:34,-2.2181466,-0.15553348,9.65504,0.078151114,0.045181114,-0.33214223,9.907782705022559,0.3441909255815157,walk
09/07/2020, 21:52:34,-2.2181466,-0.15553348,9.65504,0.23079,0.078151114,-0.18438779,9.907782705022559,0.3055658343154143,walk
09/07/2020, 21:52:34,-2.359323,-0.46899325,9.561719,0.23079,0.078151114,-0.18438779,9.859656632055534,0.3055658343154143,walk
09/07/2020, 21:52:34,-2.359323,-0.46899325,9.561719,0.26620224,0.06960334,-0.013432222,9.859656632055534,0.27547900570994277,walk
09/07/2020, 21:52:34,-2.388037,-0.39481574,9.571291,0.26620224,0.06960334,-0.013432222,9.872598991802096,0.27547900570994277,walk
09/07/2020, 21:52:34,-2.388037,-0.39481574,9.571291,0.20881,0.07204556,0.014653334,9.872598991802096,0.2213750195806582,walk
09/07/2020, 21:52:34,-2.4478576,-0.1363909,9.561719,0.20881,0.07204556,0.014653334,9.871022160717562,0.2213750195806582,walk
09/07/2020, 21:52:34,-2.4478576,-0.1363909,9.561719,0.16851334,0.058613338,-0.0012211112,9.871022160717562,0.17842018141201488,walk
09/07/2020, 21:52:34,-2.4789643,0.021535404,9.432507,0.16851334,0.058613338,-0.0012211112,9.752841019184984,0.17842018141201488,walk
09/07/2020, 21:52:34,-2.4789643,0.021535404,9.432507,0.16607112,0.036633335,-0.008547778,9.752841019184984,0.17027824766104366,walk
09/07/2020, 21:52:34,-2.4335005,0.07178468,9.375079,0.16607112,0.036633335,-0.008547778,9.686030509139535,0.17027824766104366,walk
09/07/2020, 21:52:34,-2.4335005,0.07178468,9.375079,0.14897557,0.02198,-0.023201112,9.686030509139535,0.1523651249044114,walk
09/07/2020, 21:52:34,-2.28036,0.22731815,9.363115,0.14897557,0.02198,-0.023201112,9.639483571102895,0.1523651249044114,walk
09/07/2020, 21:52:34,-2.28036,0.22731815,9.363115,0.07570889,0.019537779,-0.081814446,9.639483571102895,0.1131687416495343,walk
09/07/2020, 21:52:34,-2.2277179,0.40677986,9.406186,0.07570889,0.019537779,-0.081814446,9.674943607459882,0.1131687416495343,walk
09/07/2020, 21:52:34,-2.2277179,0.40677986,9.406186,0.057392225,-0.01099,-0.14897557,9.674943607459882,0.16002614421895328,walk
09/07/2020, 21:52:34,-2.309074,0.23928227,9.583255,0.057392225,-0.01099,-0.14897557,9.860418410320074,0.16002614421895328,walk
09/07/2020, 21:52:34,-2.309074,0.23928227,9.583255,0.06227667,-0.02075889,-0.12699556,9.860418410320074,0.14295869379362972,walk
09/07/2020, 21:52:34,-2.3353949,0.07178468,9.616755,0.06227667,-0.02075889,-0.12699556,9.89652413302866,0.14295869379362972,walk
09/07/2020, 21:52:34,-2.3353949,0.07178468,9.616755,0.10135223,-0.023201112,-0.11112112,9.89652413302866,0.15217906864356454,walk
09/07/2020, 21:52:35,-8.327023,-3.1513474,4.3932223,-0.6068922,0.123332225,0.2820767,9.928277669149335,0.6805117716586779,walk
09/07/2020, 21:52:35,-8.327023,-3.1513474,4.3932223,-0.66062117,0.11844778,0.29795113,9.928277669149335,0.7343194666469208,walk
09/07/2020, 21:52:35,-8.370093,-3.2398818,4.4315076,-0.66062117,0.11844778,0.29795113,10.00967311612275,0.7343194666469208,walk
09/07/2020, 21:52:35,-8.370093,-3.2398818,4.4315076,-0.70946556,0.07448778,0.31260446,10.00967311612275,0.7788525932080766,walk
09/07/2020, 21:52:35,-8.437093,-3.3164523,4.3525443,-0.70946556,0.07448778,0.31260446,10.056243442334791,0.7788525932080766,walk
09/07/2020, 21:52:35,-8.437093,-3.3164523,4.3525443,-0.78395337,-0.026864445,0.33336335,10.056243442334791,0.8523119784229432,walk
09/07/2020, 21:52:35,-8.396415,-3.345166,4.182654,-0.78395337,-0.026864445,0.33336335,9.959142021338064,0.8523119784229432,walk
09/07/2020, 21:52:35,-8.396415,-3.345166,4.182654,-0.85599893,-0.16607112,0.34679556,9.959142021338064,0.9383927479507486,walk
09/07/2020, 21:52:35,-8.23131,-3.3954153,4.024728,-0.85599893,-0.16607112,0.34679556,9.771475919956984,0.9383927479507486,walk
09/07/2020, 21:52:35,-8.23131,-3.3954153,4.024728,-0.91461223,-0.29306668,0.34191114,9.771475919956984,1.0194639977834048,walk
09/07/2020, 21:52:35,-7.9776707,-3.4049866,3.9314077,-0.91461223,-0.29306668,0.34191114,9.523294052967861,1.0194639977834048,walk
09/07/2020, 21:52:35,-7.9776707,-3.4049866,3.9314077,-0.9280445,-0.3724389,0.32115224,9.523294052967861,1.0502933358825954,walk
09/07/2020, 21:52:35,-7.6713896,-3.4672,3.9673,-0.9280445,-0.3724389,0.32115224,9.306511860377606,1.0502933358825954,walk
09/07/2020, 21:52:35,-7.6713896,-3.4672,3.9673,-0.90240115,-0.38465002,0.28329778,9.306511860377606,1.0210490213628636,walk
09/07/2020, 21:52:35,-7.5110703,-3.4408789,4.0510488,-0.90240115,-0.38465002,0.28329778,9.201457478465958,1.0210490213628636,walk
09/07/2020, 21:52:35,-7.5110703,-3.4408789,4.0510488,-0.85599893,-0.34435335,0.22712667,9.201457478465958,0.9502104649252616,walk
09/07/2020, 21:52:35,-7.487142,-3.3619158,4.1204405,-0.85599893,-0.34435335,0.22712667,9.18356164119198,0.9502104649252616,walk
09/07/2020, 21:52:35,-7.487142,-3.3619158,4.1204405,-0.8205867,-0.28574002,0.16362889,9.18356164119198,0.8841856555416094,walk
09/07/2020, 21:52:35,-7.661818,-3.1800613,4.048656,-0.8205867,-0.28574002,0.16362889,9.23081041480538,0.8841856555416094,walk
09/07/2020, 21:52:35,-7.661818,-3.1800613,4.048656,-0.8205867,-0.26864445,0.09646778,9.23081041480538,0.8688143504141883,walk
09/07/2020, 21:52:36,-10.530812,-3.2614172,3.696911,1.185699,0.8364611,0.6288723,11.627639503113603,1.5814643976043306,walk
09/07/2020, 21:52:36,-10.717453,-3.251846,3.7088752,1.185699,0.8364611,0.6288723,11.798053096228875,1.5814643976043306,walk
09/07/2020, 21:52:36,-10.717453,-3.251846,3.7088752,1.2491968,0.82425004,0.6471889,11.798053096228875,1.6305625323499535,walk
09/07/2020, 21:52:36,-10.863415,-3.2542388,3.7016966,1.2491968,0.82425004,0.6471889,11.929224986103423,1.6305625323499535,walk
09/07/2020, 21:52:36,-10.863415,-3.2542388,3.7016966,1.3114734,0.77906895,0.65085226,11.929224986103423,1.6584690203050856,walk
09/07/2020, 21:52:36,-10.932807,-3.2446675,3.6275191,1.3114734,0.77906895,0.65085226,11.96716468671181,1.6584690203050856,walk
09/07/2020, 21:52:36,-10.932807,-3.2446675,3.6275191,1.3615389,0.70946556,0.63986224,11.96716468671181,1.6632958882119848,walk
09/07/2020, 21:52:36,-10.889736,-3.1896327,3.5940197,1.3615389,0.70946556,0.63986224,11.902818476991897,1.6632958882119848,walk
09/07/2020, 21:52:36,-10.889736,-3.1896327,3.5940197,1.4030567,0.6520734,0.61544,11.902818476991897,1.6650928869625445,walk
09/07/2020, 21:52:36,-10.688739,-3.1274192,3.548556,1.4030567,0.6520734,0.61544,11.688547343683936,1.6650928869625445,walk
09/07/2020, 21:52:36,-10.688739,-3.1274192,3.548556,1.4238156,0.60445005,0.58124894,11.688547343683936,1.6524106856723861,walk
09/07/2020, 21:52:36,-10.447063,-3.0125637,3.5389848,1.4238156,0.60445005,0.58124894,11.434206923375804,1.6524106856723861,walk
09/07/2020, 21:52:36,-10.447063,-3.0125637,3.5389848,1.4177101,0.55438447,0.5360678,11.434206923375804,1.6138812348539044,walk
09/07/2020, 21:52:36,-10.131211,-2.8666015,3.4863427,1.4177101,0.55438447,0.5360678,11.091142014710337,1.6138812348539044,walk
09/07/2020, 21:52:36,-10.131211,-2.8666015,3.4863427,1.3737501,0.5018767,0.47867557,11.091142014710337,1.5388956593997587,walk
09/07/2020, 21:52:36,-9.796216,-2.6919255,3.4408789,1.3737501,0.5018767,0.47867557,10.726227601341815,1.5388956593997587,walk
09/07/2020, 21:52:36,-9.796216,-2.6919255,3.4408789,1.3065889,0.4591378,0.4151778,10.726227601341815,1.4458058786965713,walk
09/07/2020, 21:52:36,-9.4636135,-2.5004997,3.3667014,1.3065889,0.4591378,0.4151778,10.351191120997925,1.4458058786965713,walk
09/07/2020, 21:52:36,-9.4636135,-2.5004997,3.3667014,1.2101212,0.42372558,0.35168,10.351191120997925,1.3295169807753369,walk
09/07/2020, 21:52:36,-9.140582,-2.2779672,3.278167,1.2101212,0.42372558,0.35168,9.97425457957965,1.3295169807753369,walk
09/07/2020, 21:52:37,-8.319844,-4.017549,3.2470603,-2.7450578,-1.5105145,1.90127,9.79305412694283,3.6649453235187286,walk
09/07/2020, 21:52:37,-8.319844,-4.017549,3.2470603,-2.6412635,-1.4787656,1.9586623,9.79305412694283,3.605465075526816,walk
09/07/2020, 21:52:37,-8.329415,-3.9146578,3.3786657,-2.6412635,-1.4787656,1.9586623,9.804034238325999,3.605465075526816,walk
09/07/2020, 21:52:37,-8.329415,-3.9146578,3.3786657,-2.6070724,-1.4421322,2.0111701,9.804034238325999,3.5946316925783535,walk
09/07/2020, 21:52:37,-8.310273,-3.845266,3.3762727,-2.6070724,-1.4421322,2.0111701,9.759402070578039,3.5946316925783535,walk
09/07/2020, 21:52:37,-8.310273,-3.845266,3.3762727,-2.60463,-1.4128256,2.0514667,9.759402070578039,3.603982404217409,walk
09/07/2020, 21:52:37,-8.240881,-3.8763726,3.2949169,-2.60463,-1.4128256,2.0514667,9.684774680568072,3.603982404217409,walk
09/07/2020, 21:52:37,-8.240881,-3.8763726,3.2949169,-2.6021879,-1.3871822,2.0856578,9.684774680568072,3.6118727663984735,walk
09/07/2020, 21:52:37,-8.2049885,-3.9433718,3.2327034,-2.6021879,-1.3871822,2.0856578,9.660351363553376,3.6118727663984735,walk
09/07/2020, 21:52:37,-8.2049885,-3.9433718,3.2327034,-2.591198,-1.3590968,2.1149645,9.660351363553376,3.6103359536882214,walk
09/07/2020, 21:52:37,-8.17149,-4.048656,3.1680973,-2.591198,-1.3590968,2.1149645,9.654102739499232,3.6103359536882214,walk
09/07/2020, 21:52:37,-8.17149,-4.048656,3.1680973,-2.5631123,-1.3383378,2.1381657,9.654102739499232,3.596170890836138,walk
09/07/2020, 21:52:37,-8.149954,-4.2185464,3.2398818,-2.5631123,-1.3383378,2.1381657,9.732148532460092,3.596170890836138,walk
09/07/2020, 21:52:37,-8.149954,-4.2185464,3.2398818,-2.504499,-1.3322322,2.1503768,9.732148532460092,3.5597019726914727,walk
09/07/2020, 21:52:37,-8.145168,-4.3932223,3.4360933,-2.504499,-1.3322322,2.1503768,9.871722572135182,3.5597019726914727,walk
09/07/2020, 21:52:37,-8.145168,-4.3932223,3.4360933,-2.4080312,-1.3163579,2.1393867,9.871722572135182,3.479710854138604,walk
09/07/2020, 21:52:37,-8.159525,-4.4889355,3.6323047,-2.4080312,-1.3163579,2.1393867,9.996100526920012,3.479710854138604,walk
09/07/2020, 21:52:37,-8.159525,-4.4889355,3.6323047,-2.316448,-1.2882723,2.1161857,9.996100526920012,3.3917279375184197,walk
09/07/2020, 21:52:37,-8.159525,-4.4554358,3.735196,-2.316448,-1.2882723,2.1161857,10.019004173862196,3.3917279375184197,walk
09/07/2020, 21:52:37,-8.159525,-4.4554358,3.735196,-2.2993524,-1.27484,2.0734468,10.019004173862196,3.348345851328486,walk
09/07/2020, 21:52:38,-3.9170506,-8.664411,-0.9379865,-0.22590557,-0.26009667,-0.07570889,9.55484772020111,0.35272572702696836,walk
09/07/2020, 21:52:38,-3.9170506,-8.664411,-0.9379865,-0.1856089,-0.2955089,-0.06105556,9.55484772020111,0.35426536328722386,walk
09/07/2020, 21:52:38,-3.6921253,-8.717052,-0.9092726,-0.1856089,-0.2955089,-0.06105556,9.510287569186342,0.35426536328722386,walk
09/07/2020, 21:52:38,-3.6921253,-8.717052,-0.9092726,-0.09646778,-0.25887558,-0.059834447,9.510287569186342,0.2826707597983764,walk
09/07/2020, 21:52:38,-3.586841,-8.743374,-0.7537391,-0.09646778,-0.25887558,-0.059834447,9.48051361620215,0.2826707597983764,walk
09/07/2020, 21:52:38,-3.586841,-8.743374,-0.7537391,0.045181114,-0.22468445,-0.07326667,9.48051361620215,0.24060847611348457,walk
09/07/2020, 21:52:38,-3.8093736,-8.769695,-0.69152576,0.045181114,-0.22468445,-0.07326667,9.586297020594536,0.24060847611348457,walk
09/07/2020, 21:52:38,-3.8093736,-8.769695,-0.69152576,0.22346334,-0.23323223,-0.059834447,9.586297020594536,0.32850159686311803,walk
09/07/2020, 21:52:38,-4.278367,-8.836694,-0.6891329,0.22346334,-0.23323223,-0.059834447,9.842077291828408,0.32850159686311803,walk
09/07/2020, 21:52:38,-4.278367,-8.836694,-0.6891329,0.35168,-0.31993112,-0.014653334,9.842077291828408,0.47565688408170564,walk
09/07/2020, 21:52:38,-4.6971107,-8.839087,-0.9523434,0.35168,-0.31993112,-0.014653334,10.05481263754684,0.47565688408170564,walk
09/07/2020, 21:52:38,-4.6971107,-8.839087,-0.9523434,0.36999667,-0.4713489,0.04029667,10.05481263754684,0.6005756834363063,walk
09/07/2020, 21:52:38,-4.759324,-8.846265,-1.2251252,0.36999667,-0.4713489,0.04029667,10.11970844363275,0.6005756834363063,walk
09/07/2020, 21:52:38,-4.759324,-8.846265,-1.2251252,0.2503278,-0.6056711,0.11234222,10.11970844363275,0.664922755885761,walk
09/07/2020, 21:52:38,-4.388437,-8.829515,-1.4620147,0.2503278,-0.6056711,0.11234222,9.967758404768576,0.664922755885761,walk
09/07/2020, 21:52:38,-4.388437,-8.829515,-1.4620147,0.091583334,-0.6459678,0.18805112,9.967758404768576,0.6789882954570637,walk
09/07/2020, 21:52:38,-3.749553,-8.827123,-1.550549,0.091583334,-0.6459678,0.18805112,9.715011306639493,0.6789882954570637,walk
09/07/2020, 21:52:38,-3.749553,-8.827123,-1.550549,-0.05006556,-0.6227667,0.21613668,9.715011306639493,0.6611051004746323,walk
09/07/2020, 21:52:38,-3.2015967,-8.932407,-1.564906,-0.05006556,-0.6227667,0.21613668,9.61701897913957,0.6611051004746323,walk
09/07/2020, 21:52:38,-3.2015967,-8.932407,-1.564906,-0.098910004,-0.59346,0.20026223,9.61701897913957,0.6341001107567544,walk
09/07/2020, 21:52:39,-3.9888353,-8.082955,1.0217353,0.17217667,-0.45303226,0.15141778,9.071323923839829,0.5077503072117311,walk
09/07/2020, 21:52:39,-3.938586,-8.240881,0.8566305,0.17217667,-0.45303226,0.15141778,9.173788452558531,0.5077503072117311,walk
09/07/2020, 21:52:39,-3.938586,-8.240881,0.8566305,0.15386,-0.45181113,0.13676445,9.173788452558531,0.4964984564770271,walk
09/07/2020, 21:52:39,-3.9050865,-8.408379,0.6364908,0.15386,-0.45181113,0.13676445,9.292774180682052,0.4964984564770271,walk
09/07/2020, 21:52:39,-3.9050865,-8.408379,0.6364908,0.12943779,-0.4151778,0.13676445,9.292774180682052,0.4558851344639751,walk
09/07/2020, 21:52:39,-3.9673,-8.592627,0.45224348,0.12943779,-0.4151778,0.13676445,9.475084398682585,0.4558851344639751,walk
09/07/2020, 21:52:39,-3.9673,-8.592627,0.45224348,0.10867889,-0.38709223,0.15019667,9.475084398682585,0.4291975516787975,walk
09/07/2020, 21:52:39,-4.048656,-8.786445,0.30388847,0.10867889,-0.38709223,0.15019667,9.679130815060624,0.4291975516787975,walk
09/07/2020, 21:52:39,-4.048656,-8.786445,0.30388847,0.13310112,-0.38465002,0.16729222,9.679130815060624,0.4400661714286223,walk
09/07/2020, 21:52:39,-4.0869412,-8.891729,0.28235307,0.13310112,-0.38465002,0.16729222,9.790079820687271,0.4400661714286223,walk
09/07/2020, 21:52:39,-4.0869412,-8.891729,0.28235307,0.19293556,-0.36267,0.18805112,9.790079820687271,0.45179296633441324,walk
09/07/2020, 21:52:39,-4.031906,-8.922835,0.37806597,0.19293556,-0.36267,0.18805112,9.798785209842798,0.45179296633441324,walk
09/07/2020, 21:52:39,-4.031906,-8.922835,0.37806597,0.27108666,-0.34069002,0.21247335,9.798785209842798,0.48446113351802333,walk
09/07/2020, 21:52:39,-3.9194436,-8.906086,0.6436693,0.27108666,-0.34069002,0.21247335,9.751651944046943,0.48446113351802333,walk
09/07/2020, 21:52:39,-3.9194436,-8.906086,0.6436693,0.34435335,-0.31138334,0.2185789,9.751651944046943,0.5131428147884813,walk
09/07/2020, 21:52:39,-3.7974095,-8.827123,0.86859465,0.34435335,-0.31138334,0.2185789,9.648464685451161,0.5131428147884813,walk
09/07/2020, 21:52:39,-3.7974095,-8.827123,0.86859465,0.39930335,-0.2869611,0.20026223,9.648464685451161,0.5309376637577221,walk
09/07/2020, 21:52:39,-3.7136607,-8.709874,1.1222339,0.39930335,-0.2869611,0.20026223,9.534809517669693,0.5309376637577221,walk
09/07/2020, 21:52:39,-3.7136607,-8.709874,1.1222339,0.38709223,-0.28574002,0.16118668,9.534809517669693,0.507413933901468,walk
09/07/2020, 21:52:39,-3.735196,-8.595019,1.3519448,0.38709223,-0.28574002,0.16118668,9.468569175137342,0.507413933901468,walk
09/07/2020, 21:52:40,-7.623533,-3.6610186,-1.3495519,0.48111778,0.6020078,1.5727912,8.56402939998559,1.7514451003870284,walk
09/07/2020, 21:52:40,-7.274181,-4.6325045,-1.1940185,0.48111778,0.6020078,1.5727912,8.706289987557282,1.7514451003870284,walk
09/07/2020, 21:52:40,-7.274181,-4.6325045,-1.1940185,1.13197,1.0440501,1.4787656,8.706289987557282,2.134981151103469,walk
09/07/2020, 21:52:40,-6.984649,-5.1493545,-1.0336994,1.13197,1.0440501,1.4787656,8.738976482119716,2.134981151103469,walk
09/07/2020, 21:52:40,-6.984649,-5.1493545,-1.0336994,1.7278723,1.4860923,1.3334534,8.738976482119716,2.6404755151419774,walk
09/07/2020, 21:52:40,-6.9702926,-5.1828537,-1.0815558,1.7278723,1.4860923,1.3334534,8.753097394130519,2.6404755151419774,walk
09/07/2020, 21:52:40,-6.9702926,-5.1828537,-1.0815558,2.174799,1.8597523,1.2479756,8.753097394130519,3.1218379547450597,walk
09/07/2020, 21:52:40,-7.240681,-5.046463,-1.2299109,2.174799,1.8597523,1.2479756,8.911056809652647,3.1218379547450597,walk
09/07/2020, 21:52:40,-7.240681,-5.046463,-1.2299109,2.4300113,2.152819,1.24187,8.911056809652647,3.4758920134452227,walk
09/07/2020, 21:52:40,-7.645068,-4.8693943,-1.4524434,2.4300113,2.152819,1.24187,9.179741820597318,3.4758920134452227,walk
09/07/2020, 21:52:40,-7.645068,-4.8693943,-1.4524434,2.537469,2.394599,1.2626289,9.179741820597318,3.710402191879733,walk
09/07/2020, 21:52:40,-8.018349,-4.881358,-1.6175481,2.537469,2.394599,1.2626289,9.525651422038608,3.710402191879733,walk
09/07/2020, 21:52:40,-8.018349,-4.881358,-1.6175481,2.6217256,2.6290524,1.2760612,9.525651422038608,3.926027707630317,walk
09/07/2020, 21:52:40,-8.267202,-5.1421757,-1.6103697,2.6217256,2.6290524,1.2760612,9.868226605021338,3.926027707630317,walk
09/07/2020, 21:52:40,-8.267202,-5.1421757,-1.6103697,2.790239,2.9196768,1.2589656,9.868226605021338,4.230241260933131,walk
09/07/2020, 21:52:40,-8.405986,-5.6039906,-1.4189439,2.790239,2.9196768,1.2589656,10.201897357355445,4.230241260933131,walk
09/07/2020, 21:52:40,-8.405986,-5.6039906,-1.4189439,3.053999,3.240829,1.1905833,10.201897357355445,4.60948704595586,walk
09/07/2020, 21:52:40,-8.595019,-6.0777693,-1.1365907,3.053999,3.240829,1.1905833,10.587987313056423,4.60948704595586,walk
09/07/2020, 21:52:40,-8.595019,-6.0777693,-1.1365907,3.4301012,3.5741923,1.0416079,10.587987313056423,5.062152838787526,walk
09/07/2020, 21:52:40,-8.817552,-6.491728,-0.9212367,3.4301012,3.5741923,1.0416079,10.98819474240439,5.062152838787526,walk
09/07/2020, 21:52:41,-10.403993,-4.867001,2.132005,0.52141446,0.62643003,2.1809046,11.682303181562357,2.328225207640112,walk
09/07/2020, 21:52:41,-10.403993,-4.867001,2.132005,0.48966557,0.66306335,1.8939434,11.682303181562357,2.0655379645927856,walk
09/07/2020, 21:52:41,-9.961321,-4.7449675,2.536392,0.48966557,0.66306335,1.8939434,11.32148020630368,2.0655379645927856,walk
09/07/2020, 21:52:41,-9.961321,-4.7449675,2.536392,0.49821335,0.71435004,1.6057612,11.32148020630368,1.8267406673126154,walk
09/07/2020, 21:52:41,-9.568898,-4.749753,2.9958138,0.49821335,0.71435004,1.6057612,11.094992876502879,1.8267406673126154,walk
09/07/2020, 21:52:41,-9.568898,-4.749753,2.9958138,0.56293225,0.80227005,1.3163579,11.094992876502879,1.6411361778224156,walk
09/07/2020, 21:52:41,-9.236296,-4.8646083,3.4073794,0.56293225,0.80227005,1.3163579,10.981065811309731,1.6411361778224156,walk
09/07/2020, 21:52:41,-9.236296,-4.8646083,3.4073794,0.6520734,0.88408446,1.0464922,10.981065811309731,1.5172181779644645,walk
09/07/2020, 21:52:41,-8.9108715,-5.127819,3.711268,0.6520734,0.88408446,1.0464922,10.930309652519023,1.5172181779644645,walk
09/07/2020, 21:52:41,-8.9108715,-5.127819,3.711268,0.7436567,0.9378134,0.7949434,10.930309652519023,1.4368208838577714,walk
09/07/2020, 21:52:41,-8.678768,-5.410172,3.9338005,0.7436567,0.9378134,0.7949434,10.957452427647723,1.4368208838577714,walk
09/07/2020, 21:52:41,-8.678768,-5.410172,3.9338005,0.83524,0.96589893,0.57270116,10.957452427647723,1.3994903456511394,walk
09/07/2020, 21:52:41,-8.437093,-5.721239,4.0941195,0.83524,0.96589893,0.57270116,10.985396042051955,1.3994903456511394,walk
09/07/2020, 21:52:41,-8.437093,-5.721239,4.0941195,0.94880337,0.9915423,0.38220778,10.985396042051955,1.424593523171135,walk
09/07/2020, 21:52:41,-8.26481,-6.0418773,4.1850467,0.94880337,0.9915423,0.38220778,11.060107343983343,1.424593523171135,walk
09/07/2020, 21:52:41,-8.26481,-6.0418773,4.1850467,1.1148745,0.99886894,0.20881,11.060107343983343,1.51138542124311,walk
09/07/2020, 21:52:41,-8.054241,-6.34098,4.168297,1.1148745,0.99886894,0.20881,11.065872191271954,1.51138542124311,walk
09/07/2020, 21:52:41,-8.054241,-6.34098,4.168297,1.3444434,0.98055226,0.045181114,11.065872191271954,1.6646477779322748,walk
09/07/2020, 21:52:41,-7.865208,-6.587441,4.063013,1.3444434,0.98055226,0.045181114,11.034670497554394,1.6646477779322748,walk
09/07/2020, 21:52:41,-7.865208,-6.587441,4.063013,1.6191934,0.95613,-0.11600556,11.034670497554394,1.883992913867347,walk
09/07/2020, 21:52:42,-9.104691,-4.551149,2.201397,-1.0379444,-0.03297,4.4143167,10.414148778093326,4.534821627900468,walk
09/07/2020, 21:52:42,-9.104691,-4.551149,2.201397,-1.0355023,-0.028085556,4.5913777,10.414148778093326,4.706782696135901,walk
09/07/2020, 21:52:42,-9.602397,-4.651647,2.143969,-1.0355023,-0.028085556,4.5913777,10.88303502972651,4.706782696135901,walk
09/07/2020, 21:52:42,-9.602397,-4.651647,2.143969,-1.0355023,-0.029306669,4.737911,10.88303502972651,4.849837800821417,walk
09/07/2020, 21:52:42,-10.107283,-4.8239303,2.1008983,-1.0355023,-0.029306669,4.737911,11.39478999570555,4.849837800821417,walk
09/07/2020, 21:52:42,-10.107283,-4.8239303,2.1008983,-1.0196278,-0.017095556,4.855138,11.39478999570555,4.961078151760111,walk
09/07/2020, 21:52:42,-10.578669,-5.0177493,2.0027926,-1.0196278,-0.017095556,4.855138,11.878434894739211,4.961078151760111,walk
09/07/2020, 21:52:42,-10.578669,-5.0177493,2.0027926,-0.98055226,0.0012211112,4.938174,11.878434894739211,5.034584829925822,walk
09/07/2020, 21:52:42,-11.062019,-5.2235317,2.0075781,-0.98055226,0.0012211112,4.938174,12.396932107840875,5.034584829925822,walk
09/07/2020, 21:52:42,-11.062019,-5.2235317,2.0075781,-0.8987378,0.037854444,5.00045,12.396932107840875,5.080714921768589,walk
09/07/2020, 21:52:42,-11.62194,-5.4484572,2.105684,-0.8987378,0.037854444,5.00045,13.007270006902772,5.080714921768589,walk
09/07/2020, 21:52:42,-11.62194,-5.4484572,2.105684,-0.79250115,0.09402556,5.0370836,13.007270006902772,5.09991277713105,walk
09/07/2020, 21:52:42,-12.260823,-5.709275,2.239682,-0.79250115,0.09402556,5.0370836,13.709113043059855,5.09991277713105,walk
09/07/2020, 21:52:42,-12.260823,-5.709275,2.239682,-0.6557367,0.15630223,5.0358624,13.709113043059855,5.080780605357938,walk
09/07/2020, 21:52:42,-12.96192,-6.0346985,2.37368,-0.6557367,0.15630223,5.0358624,14.493560901622292,5.080780605357938,walk
09/07/2020, 21:52:42,-12.96192,-6.0346985,2.37368,-0.4823389,0.18194556,4.98946,14.493560901622292,5.016020934325697,walk
09/07/2020, 21:52:42,-13.682159,-6.3194447,2.5316064,-0.4823389,0.18194556,4.98946,15.28220855798204,5.016020934325697,walk
09/07/2020, 21:52:42,-13.682159,-6.3194447,2.5316064,-0.29917222,0.16485001,4.9015403,15.28220855798204,4.913428197860648,walk
09/07/2020, 21:52:42,-14.266008,-6.558727,2.6488547,-0.29917222,0.16485001,4.9015403,15.923326395030944,4.913428197860648,walk
09/07/2020, 21:52:42,-14.266008,-6.558727,2.6488547,-0.13920668,0.109900005,4.7635546,15.923326395030944,4.76685521919389,walk
09/07/2020, 21:52:43,-6.005985,-2.1655045,3.2207394,0.15019667,0.4163989,0.3712178,7.15083385470657,0.5777107755436335,walk
09/07/2020, 21:52:43,-6.0514483,-1.820938,3.196811,0.15019667,0.4163989,0.3712178,7.082050731314792,0.5777107755436335,walk
09/07/2020, 21:52:43,-6.0514483,-1.820938,3.196811,0.29795113,0.5556056,0.34557447,7.082050731314792,0.7189535188789095,walk
09/07/2020, 21:52:43,-6.3481584,-1.524228,2.9862428,0.29795113,0.5556056,0.34557447,7.179138623200875,0.7189535188789095,walk
09/07/2020, 21:52:43,-6.3481584,-1.524228,2.9862428,0.38831335,0.6191034,0.3284789,7.179138623200875,0.8012331963585739,walk
09/07/2020, 21:52:43,-6.869794,-1.3016955,2.656033,0.38831335,0.6191034,0.3284789,7.479504710095849,0.8012331963585739,walk
09/07/2020, 21:52:43,-6.869794,-1.3016955,2.656033,0.4163989,0.59834445,0.32970002,7.479504710095849,0.8000663939518315,walk
09/07/2020, 21:52:43,-7.513463,-1.0767702,2.2157538,0.4163989,0.59834445,0.32970002,7.907030129355,0.8000663939518315,walk
09/07/2020, 21:52:43,-7.513463,-1.0767702,2.2157538,0.35168,0.5140878,0.35168,7.907030129355,0.7152928923625071,walk
09/07/2020, 21:52:43,-8.16431,-0.87338024,1.7706888,0.35168,0.5140878,0.35168,8.399648622954842,0.7152928923625071,walk
09/07/2020, 21:52:43,-8.16431,-0.87338024,1.7706888,0.20514667,0.38831335,0.38709223,8.399648622954842,0.5854167858356096,walk
09/07/2020, 21:52:43,-8.721839,-0.6580262,1.3016955,0.20514667,0.38831335,0.38709223,8.842956761148843,0.5854167858356096,walk
09/07/2020, 21:52:43,-8.721839,-0.6580262,1.3016955,-0.013432222,0.2625389,0.43105224,8.842956761148843,0.5048892309065869,walk
09/07/2020, 21:52:43,-9.159725,-0.49052864,0.95473623,-0.013432222,0.2625389,0.43105224,9.222402353275521,0.5048892309065869,walk
09/07/2020, 21:52:43,-9.159725,-0.49052864,0.95473623,-0.27841336,0.14164889,0.4933289,9.222402353275521,0.5839107866853162,walk
09/07/2020, 21:52:43,-9.533006,-0.37567315,0.6771688,-0.27841336,0.14164889,0.4933289,9.564407238739813,0.5839107866853162,walk
09/07/2020, 21:52:43,-9.533006,-0.37567315,0.6771688,-0.57636446,0.03297,0.5580478,9.564407238739813,0.8029323284819152,walk
09/07/2020, 21:52:43,-9.817751,-0.3684947,0.44506502,-0.57636446,0.03297,0.5580478,9.834739678735357,0.8029323284819152,walk
09/07/2020, 21:52:43,-9.817751,-0.3684947,0.44506502,-0.88896894,-0.06105556,0.6349778,9.834739678735357,1.094161959904283,walk
09/07/2020, 21:52:43,-10.054641,-0.44506502,0.29192436,-0.88896894,-0.06105556,0.6349778,10.068719070305782,1.094161959904283,walk
09/07/2020, 21:52:44,-8.690732,-3.438486,1.4715859,-0.58979666,-0.14409111,-0.6984756,9.46137275250944,0.9254677276642067,walk
09/07/2020, 21:52:44,-8.690732,-3.438486,1.4715859,-0.57514334,0.02198,-0.5690378,9.46137275250944,0.8093682666291754,walk
09/07/2020, 21:52:44,-8.956335,-3.35713,1.4931214,-0.57514334,0.02198,-0.5690378,9.680685486828361,0.8093682666291754,walk
09/07/2020, 21:52:44,-8.956335,-3.35713,1.4931214,-0.5556056,0.12089001,-0.4371578,9.680685486828361,0.7172300302452507,walk
09/07/2020, 21:52:44,-9.241081,-3.3164523,1.4069797,-0.5556056,0.12089001,-0.4371578,9.918469130273955,0.7172300302452507,walk
09/07/2020, 21:52:44,-9.241081,-3.3164523,1.4069797,-0.56171113,0.09768889,-0.33214223,9.918469130273955,0.6598340543906219,walk
09/07/2020, 21:52:44,-9.430114,-3.2566316,1.2418749,-0.56171113,0.09768889,-0.33214223,10.053603779199735,0.6598340543906219,walk
09/07/2020, 21:52:44,-9.430114,-3.2566316,1.2418749,-0.58613336,0.0012211112,-0.22346334,10.053603779199735,0.6272875519767229,walk
09/07/2020, 21:52:44,-9.454042,-3.199204,1.1700903,-0.58613336,0.0012211112,-0.22346334,10.049026606481615,0.6272875519767229,walk
09/07/2020, 21:52:44,-9.454042,-3.199204,1.1700903,-0.64108336,0.013432222,-0.07204556,10.049026606481615,0.645258755089167,walk
09/07/2020, 21:52:44,-9.425328,-3.1322048,1.3160524,-0.64108336,0.013432222,-0.07204556,10.018957702928015,0.645258755089167,walk
09/07/2020, 21:52:44,-9.425328,-3.1322048,1.3160524,-0.7265611,0.16118668,0.14287001,10.018957702928015,0.7578153202716215,walk
09/07/2020, 21:52:44,-9.501899,-3.1489546,1.4739788,-0.7265611,0.16118668,0.14287001,10.118033840168748,0.7578153202716215,walk
09/07/2020, 21:52:44,-9.501899,-3.1489546,1.4739788,-0.8437878,0.3309211,0.37610224,10.118033840168748,0.981294813449167,walk
09/07/2020, 21:52:44,-9.769895,-3.1944182,1.5553347,-0.8437878,0.3309211,0.37610224,10.395874858209568,0.981294813449167,walk
09/07/2020, 21:52:44,-9.769895,-3.1944182,1.5553347,-0.97078335,0.40907225,0.5788067,10.395874858209568,1.201989025749273,walk
09/07/2020, 21:52:44,-10.100104,-3.3547373,1.5457634,-0.97078335,0.40907225,0.5788067,10.754336527794043,1.201989025749273,walk
09/07/2020, 21:52:44,-10.100104,-3.3547373,1.5457634,-1.0672512,0.33336335,0.7424356,10.754336527794043,1.342150082434867,walk
09/07/2020, 21:52:44,-10.289138,-3.5437703,1.564906,-1.0672512,0.33336335,0.7424356,10.994252876913048,1.342150082434867,walk
09/07/2020, 21:52:44,-10.289138,-3.5437703,1.564906,-1.1038845,0.15996556,0.8877478,10.994252876913048,1.425568685648987,walk
09/07/2020, 21:52:45,-9.556933,-1.8400806,0.7537391,1.3481067,-1.3200212,-1.4873134,9.761608239037068,2.402488033273294,walk
09/07/2020, 21:52:45,-9.556933,-1.8400806,0.7537391,0.9866578,-1.350549,-1.5251678,9.761608239037068,2.2635399385041604,walk
09/07/2020, 21:52:45,-9.353543,-1.7419748,0.67477596,0.9866578,-1.350549,-1.5251678,9.538268754026744,2.2635399385041604,walk
09/07/2020, 21:52:45,-9.353543,-1.7419748,0.67477596,0.67283225,-1.3847401,-1.5569167,9.538268754026744,2.1895657274429303,walk
09/07/2020, 21:52:45,-9.111869,-1.7395821,0.58624154,0.67283225,-1.3847401,-1.5569167,9.294943732387251,2.1895657274429303,walk
09/07/2020, 21:52:45,-9.111869,-1.7395821,0.58624154,0.39686114,-1.3981723,-1.5776756,9.294943732387251,2.1450978222012926,walk
09/07/2020, 21:52:45,-8.913264,-1.8592232,0.66999036,0.39686114,-1.3981723,-1.5776756,9.129724979039244,2.1450978222012926,walk
09/07/2020, 21:52:45,-8.913264,-1.8592232,0.66999036,0.15874445,-1.3810767,-1.5935501,9.129724979039244,2.1147043556681084,walk
09/07/2020, 21:52:45,-8.666803,-2.0051854,0.80159557,0.15874445,-1.3810767,-1.5935501,8.931786175624028,2.1147043556681084,walk
09/07/2020, 21:52:45,-8.666803,-2.0051854,0.80159557,-0.046402223,-1.3456645,-1.5911078,8.931786175624028,2.08436807965777,walk
09/07/2020, 21:52:45,-8.49452,-2.2157538,0.90448695,-0.046402223,-1.3456645,-1.5911078,8.825221512148008,2.08436807965777,walk
09/07/2020, 21:52:45,-8.49452,-2.2157538,0.90448695,-0.20636779,-1.2980411,-1.5727912,8.825221512148008,2.0496757289412058,walk
09/07/2020, 21:52:45,-8.305488,-2.4335005,1.012164,-0.20636779,-1.2980411,-1.5727912,8.713640203462937,2.0496757289412058,walk
09/07/2020, 21:52:45,-8.305488,-2.4335005,1.012164,-0.3309211,-1.2430911,-1.5422634,8.713640203462937,2.0083228431011064,walk
09/07/2020, 21:52:45,-8.2049885,-2.6632116,1.0743774,-0.3309211,-1.2430911,-1.5422634,8.693032769270602,2.0083228431011064,walk
09/07/2020, 21:52:45,-8.2049885,-2.6632116,1.0743774,-0.40540892,-1.1942468,-1.5080723,8.693032769270602,1.9659256519766226,walk
09/07/2020, 21:52:45,-8.109276,-2.8977082,1.1126626,-0.40540892,-1.1942468,-1.5080723,8.683034315908532,1.9659256519766226,walk
09/07/2020, 21:52:45,-8.109276,-2.8977082,1.1126626,-0.44570556,-1.1454023,-1.4775445,8.683034315908532,1.9219099332439253,walk
09/07/2020, 21:52:45,-8.070991,-3.1202407,1.1509477,-0.44570556,-1.1454023,-1.4775445,8.72934540485086,1.9219099332439253,walk
09/07/2020, 21:52:45,-8.070991,-3.1202407,1.1509477,-0.46158,-1.1014422,-1.4421322,8.72934540485086,1.8724252842877058,walk
09/07/2020, 21:52:46,-11.504691,-3.4767714,3.574877,0.27963445,-1.6900178,-1.2394278,12.538963380001793,2.1143644285972925,walk
09/07/2020, 21:52:46,-11.002198,-3.4408789,3.3834512,0.27963445,-1.6900178,-1.2394278,12.013981655665122,2.1143644285972925,walk
09/07/2020, 21:52:46,-11.002198,-3.4408789,3.3834512,0.20636779,-1.6753645,-1.3774134,12.013981655665122,2.1786926140518297,walk
09/07/2020, 21:52:46,-10.633704,-3.4097722,3.158526,0.20636779,-1.6753645,-1.3774134,11.60510650571612,2.1786926140518297,walk
09/07/2020, 21:52:46,-10.633704,-3.4097722,3.158526,0.1746189,-1.6411734,-1.5251678,11.60510650571612,2.2472380057608174,walk
09/07/2020, 21:52:46,-10.423136,-3.3834512,2.8594232,0.1746189,-1.6411734,-1.5251678,11.325449307211139,2.2472380057608174,walk
09/07/2020, 21:52:46,-10.423136,-3.3834512,2.8594232,0.17828223,-1.6106457,-1.6729223,11.325449307211139,2.3290841196188197,walk
09/07/2020, 21:52:46,-10.3681,-3.347559,2.6368906,0.17828223,-1.6106457,-1.6729223,11.209676375810975,2.3290841196188197,walk
09/07/2020, 21:52:46,-10.3681,-3.347559,2.6368906,0.22590557,-1.5886656,-1.812129,11.209676375810975,2.42047584499983,walk
09/07/2020, 21:52:46,-10.396814,-3.3834512,2.4454648,0.22590557,-1.5886656,-1.812129,11.203650702456772,2.42047584499983,walk
09/07/2020, 21:52:46,-10.396814,-3.3834512,2.4454648,0.29917222,-1.5691278,-1.9317979,11.203650702456772,2.5066928502161927,walk
09/07/2020, 21:52:46,-10.454242,-3.4360933,2.309074,0.29917222,-1.5691278,-1.9317979,11.244097580002661,2.5066928502161927,walk
09/07/2020, 21:52:46,-10.454242,-3.4360933,2.309074,0.39930335,-1.5398211,-2.0258234,11.244097580002661,2.575743115090175,walk
09/07/2020, 21:52:46,-10.516456,-3.5653057,2.3138595,0.39930335,-1.5398211,-2.0258234,11.342891600613186,2.575743115090175,walk
09/07/2020, 21:52:46,-10.516456,-3.5653057,2.3138595,0.5226356,-1.5092934,-2.1125224,11.342891600613186,2.6483703223887596,walk
09/07/2020, 21:52:46,-10.530812,-3.6849468,2.3162522,0.5226356,-1.5092934,-2.1125224,11.394817421399381,2.6483703223887596,walk
09/07/2020, 21:52:46,-10.530812,-3.6849468,2.3162522,0.6655056,-1.4689968,-2.1931157,11.394817421399381,2.722242770378122,walk
09/07/2020, 21:52:46,-10.566705,-3.8380876,2.457429,0.6655056,-1.4689968,-2.1931157,11.507611495889583,2.722242770378122,walk
09/07/2020, 21:52:46,-10.566705,-3.8380876,2.457429,0.8327978,-1.4079412,-2.2566135,11.507611495889583,2.7871410369165504,walk
09/07/2020, 21:52:46,-10.631311,-4.024728,2.5004997,0.8327978,-1.4079412,-2.2566135,11.639403565031403,2.7871410369165504,walk
09/07/2020, 21:52:47,-10.904093,-5.4843497,4.5248275,-0.7216767,1.3029256,1.7498523,13.017349776589885,2.297915452104965,walk
09/07/2020, 21:52:47,-10.743773,-5.1756754,4.855037,-0.7216767,1.3029256,1.7498523,12.875856098394888,2.297915452104965,walk
09/07/2020, 21:52:47,-10.743773,-5.1756754,4.855037,-0.50676113,1.2931567,1.6717012,12.875856098394888,2.1733950600131693,walk
09/07/2020, 21:52:47,-10.561919,-4.8047876,5.1876397,-0.50676113,1.2931567,1.6717012,12.710300054210682,2.1733950600131693,walk
09/07/2020, 21:52:47,-10.561919,-4.8047876,5.1876397,-0.3809867,1.2919356,1.5837811,12.710300054210682,2.0790889840520457,walk
09/07/2020, 21:52:47,-10.387243,-4.412365,5.4699926,-0.3809867,1.2919356,1.5837811,12.541315990031807,2.0790889840520457,walk
09/07/2020, 21:52:47,-10.387243,-4.412365,5.4699926,-0.35900667,1.2772822,1.4885345,12.541315990031807,1.9940086552654144,walk
09/07/2020, 21:52:47,-10.202995,-4.017549,5.5872407,-0.35900667,1.2772822,1.4885345,12.306870924996211,1.9940086552654144,walk
09/07/2020, 21:52:47,-10.202995,-4.017549,5.5872407,-0.42861003,1.2259957,1.3871822,12.306870924996211,1.9002753663911989,walk
09/07/2020, 21:52:47,-9.997213,-3.6753755,5.6279187,-0.42861003,1.2259957,1.3871822,12.046830659702659,1.9002753663911989,walk
09/07/2020, 21:52:47,-9.997213,-3.6753755,5.6279187,-0.56293225,1.1380756,1.2882723,12.046830659702659,1.8087991016841662,walk
09/07/2020, 21:52:47,-9.738789,-3.4121652,5.639883,-0.56293225,1.1380756,1.2882723,11.759896059110805,1.8087991016841662,walk
09/07/2020, 21:52:47,-9.738789,-3.4121652,5.639883,-0.71801335,1.0245123,1.1954678,11.759896059110805,1.7304080245680071,walk
09/07/2020, 21:52:47,-9.377472,-3.3260236,5.6853466,-0.71801335,1.0245123,1.1954678,11.459606386285607,1.7304080245680071,walk
09/07/2020, 21:52:47,-9.377472,-3.3260236,5.6853466,-0.83524,0.93537116,1.1087689,11.459606386285607,1.6738917642799873,walk
09/07/2020, 21:52:47,-9.018549,-3.3236306,5.7260246,-0.83524,0.93537116,1.1087689,11.187855185605017,1.6738917642799873,walk
09/07/2020, 21:52:47,-9.018549,-3.3236306,5.7260246,-0.8975167,0.8730945,1.02207,11.187855185605017,1.616309830454231,walk
09/07/2020, 21:52:47,-8.673982,-3.37388,5.7930236,-0.8975167,0.8730945,1.02207,10.962670562725751,1.616309830454231,walk
09/07/2020, 21:52:47,-8.673982,-3.37388,5.7930236,-0.8877478,0.8425667,0.9182756,10.962670562725751,1.5301127276544695,walk
09/07/2020, 21:52:47,-8.396415,-3.4839497,5.905486,-0.8877478,0.8425667,0.9182756,10.840316054821011,1.5301127276544695,walk
09/07/2020, 21:52:48,-9.590433,-3.0053852,2.2492533,-1.28583,1.7999178,2.4153578,10.298926531048036,3.275212425017444,walk
09/07/2020, 21:52:48,-10.51167,-3.1226335,2.2947168,-1.28583,1.7999178,2.4153578,11.203203721132299,3.275212425017444,walk
09/07/2020, 21:52:48,-10.51167,-3.1226335,2.2947168,-1.4543434,1.9977379,2.7120879,11.203203721132299,3.668990611054898,walk
09/07/2020, 21:52:48,-11.6339035,-3.2877383,2.306681,-1.4543434,1.9977379,2.7120879,12.307628157570443,3.668990611054898,walk
09/07/2020, 21:52:48,-11.6339035,-3.2877383,2.306681,-1.6179723,2.1332812,2.988059,12.307628157570443,4.012134080151464,walk
09/07/2020, 21:52:48,-12.918849,-3.4504502,2.201397,-1.6179723,2.1332812,2.988059,13.55169414565926,4.012134080151464,walk
09/07/2020, 21:52:48,-12.918849,-3.4504502,2.201397,-1.7547368,2.0929844,3.19809,13.55169414565926,4.205646818927111,walk
09/07/2020, 21:52:48,-14.086547,-3.6586258,2.009971,-1.7547368,2.0929844,3.19809,14.69204987686766,4.205646818927111,walk
09/07/2020, 21:52:48,-14.086547,-3.6586258,2.009971,-1.867079,1.834109,3.3189802,14.69204987686766,4.226768195875479,walk
09/07/2020, 21:52:48,-14.770894,-3.8811584,1.8400806,-1.867079,1.834109,3.3189802,15.382737009076207,4.226768195875479,walk
09/07/2020, 21:52:48,-14.770894,-3.8811584,1.8400806,-1.9171445,1.4311423,3.3617191,15.382737009076207,4.126107980135133,walk
09/07/2020, 21:52:48,-14.636896,-4.1204405,1.9166509,-1.9171445,1.4311423,3.3617191,15.326131567830778,4.126107980135133,walk
09/07/2020, 21:52:48,-14.636896,-4.1204405,1.9166509,-1.91226,1.0709145,3.3873622,15.326131567830778,4.034577965281649,walk
09/07/2020, 21:52:48,-13.703695,-4.304688,2.2875385,-1.91226,1.0709145,3.3873622,14.544910996519215,4.034577965281649,walk
09/07/2020, 21:52:48,-13.703695,-4.304688,2.2875385,-1.9024912,0.8914111,3.4264379,14.544910996519215,4.019273936776728,walk
09/07/2020, 21:52:48,-12.399607,-4.4075794,2.8689942,-1.9024912,0.8914111,3.4264379,13.468783564929183,4.019273936776728,walk
09/07/2020, 21:52:48,-12.399607,-4.4075794,2.8689942,-1.8939434,0.9170545,3.4520812,13.468783564929183,4.042879574813669,walk
09/07/2020, 21:52:48,-11.023734,-4.3836513,3.3762727,-1.8939434,0.9170545,3.4520812,12.334436707232486,4.042879574813669,walk
09/07/2020, 21:52:48,-11.023734,-4.3836513,3.3762727,-1.8597523,1.0574822,3.4239957,12.334436707232486,4.0374118049142735,walk
09/07/2020, 21:52:48,-9.925428,-4.304688,3.735196,-1.8597523,1.0574822,3.4239957,11.445355272768037,4.0374118049142735,walk
09/07/2020, 21:52:49,-5.8887367,-2.8546374,3.0556345,0.7485411,0.4921078,-0.051286668,7.22240105506109,0.8972815728406318,walk
09/07/2020, 21:52:49,-6.1830535,-2.7756743,3.0699914,0.7485411,0.4921078,-0.051286668,7.440387453124784,0.8972815728406318,walk
09/07/2020, 21:52:49,-6.1830535,-2.7756743,3.0699914,0.7631945,0.58491224,0.07204556,7.440387453124784,0.9642503504652769,walk
09/07/2020, 21:52:49,-6.570691,-2.7493532,2.9862428,0.7631945,0.58491224,0.07204556,7.723378172133937,0.9642503504652769,walk
09/07/2020, 21:52:49,-6.570691,-2.7493532,2.9862428,0.76441556,0.6191034,0.18927222,7.723378172133937,1.0017205758709085,walk
09/07/2020, 21:52:49,-6.9559355,-2.7613173,2.9479575,0.76441556,0.6191034,0.18927222,8.043653701138242,1.0017205758709085,walk
09/07/2020, 21:52:49,-6.9559355,-2.7613173,2.9479575,0.77052116,0.6252089,0.29795113,8.043653701138242,1.0360327831060707,walk
09/07/2020, 21:52:49,-7.2789664,-2.7062824,2.9766715,0.77052116,0.6252089,0.29795113,8.316723484234961,1.0360327831060707,walk
09/07/2020, 21:52:49,-7.2789664,-2.7062824,2.9766715,0.7754056,0.61299783,0.40663,8.316723484234961,1.068816226706573,walk
09/07/2020, 21:52:49,-7.52782,-2.6129622,3.0436704,0.7754056,0.61299783,0.40663,8.529922444697876,1.068816226706573,walk
09/07/2020, 21:52:49,-7.52782,-2.6129622,3.0436704,0.76441556,0.61299783,0.5092034,8.529922444697876,1.1042579262232097,walk
09/07/2020, 21:52:49,-7.6953177,-2.5172493,3.1322048,0.76441556,0.61299783,0.5092034,8.68131131778425,1.1042579262232097,walk
09/07/2020, 21:52:49,-7.6953177,-2.5172493,3.1322048,0.7265611,0.6288723,0.6068922,8.68131131778425,1.136525226106541,walk
09/07/2020, 21:52:49,-7.769495,-2.3377876,3.2805598,0.7265611,0.6288723,0.6068922,8.751707043150612,1.136525226106541,walk
09/07/2020, 21:52:49,-7.769495,-2.3377876,3.2805598,0.65329444,0.6618422,0.7021389,8.751707043150612,1.1652586837453334,walk
09/07/2020, 21:52:49,-7.836494,-2.1463618,3.345166,0.65329444,0.6618422,0.7021389,8.786787932727684,1.1652586837453334,walk
09/07/2020, 21:52:49,-7.836494,-2.1463618,3.345166,0.5519422,0.7167922,0.7998278,8.786787932727684,1.2075412422295997,walk
09/07/2020, 21:52:49,-7.9106717,-2.0171494,3.4097722,0.5519422,0.7167922,0.7998278,8.847268786641681,1.2075412422295997,walk
09/07/2020, 21:52:49,-7.9106717,-2.0171494,3.4097722,0.43471557,0.77906895,0.8975167,8.847268786641681,1.265488967128413,walk
09/07/2020, 21:52:49,-8.078169,-1.9190438,3.493521,0.43471557,0.77906895,0.8975167,9.00800921997115,1.265488967128413,walk
09/07/2020, 21:52:50,-10.243673,-3.1896327,4.438686,0.9536878,-0.81448114,-0.7106867,11.610707649200119,1.4415184645327503,walk
09/07/2020, 21:52:50,-10.243673,-3.1896327,4.438686,0.87920004,-0.8730945,-0.7631945,11.610707649200119,1.4552500005005748,walk
09/07/2020, 21:52:50,-10.269995,-3.0580273,4.28076,0.87920004,-0.8730945,-0.7631945,11.539030600665058,1.4552500005005748,walk
09/07/2020, 21:52:50,-10.269995,-3.0580273,4.28076,0.7754056,-0.8743156,-0.8083756,11.539030600665058,1.4209689407967665,walk
09/07/2020, 21:52:50,-10.4351,-2.9886355,4.1180477,0.7754056,-0.8743156,-0.8083756,11.60954620413978,1.4209689407967665,walk
09/07/2020, 21:52:50,-10.4351,-2.9886355,4.1180477,0.7070234,-0.85722005,-0.8450089,11.60954620413978,1.3959757665711974,walk
09/07/2020, 21:52:50,-10.801202,-3.1082766,3.9960139,0.7070234,-0.85722005,-0.8450089,11.928766539284817,1.3959757665711974,walk
09/07/2020, 21:52:50,-10.801202,-3.1082766,3.9960139,0.71557117,-0.8621045,-0.8816423,11.928766539284817,1.4256785515680441,walk
09/07/2020, 21:52:50,-11.356337,-3.400201,3.9720855,0.71557117,-0.8621045,-0.8816423,12.502208255160198,1.4256785515680441,walk
09/07/2020, 21:52:50,-11.356337,-3.400201,3.9720855,0.7937223,-0.9329289,-0.92071784,12.502208255160198,1.5323422420586725,walk
09/07/2020, 21:52:50,-11.877972,-3.7304106,3.9338005,0.7937223,-0.9329289,-0.92071784,13.056682565396464,1.5323422420586725,walk
09/07/2020, 21:52:50,-11.877972,-3.7304106,3.9338005,0.9194967,-1.1002212,-0.95735115,13.056682565396464,1.72408875186822,walk
09/07/2020, 21:52:50,-12.196217,-3.9649072,3.9050865,0.9194967,-1.1002212,-0.95735115,13.40589006798704,1.72408875186822,walk
09/07/2020, 21:52:50,-12.196217,-3.9649072,3.9050865,1.0391656,-1.2992623,-0.9878789,13.40589006798704,1.9349037240355738,walk
09/07/2020, 21:52:50,-12.119647,-4.125226,3.9290147,1.0391656,-1.2992623,-0.9878789,13.391806828675017,1.9349037240355738,walk
09/07/2020, 21:52:50,-12.119647,-4.125226,3.9290147,1.1234223,-1.4457957,-1.0086378,13.391806828675017,2.0903953801915782,walk
09/07/2020, 21:52:50,-11.772687,-4.141976,3.9242291,1.1234223,-1.4457957,-1.0086378,13.082495816512013,2.0903953801915782,walk
09/07/2020, 21:52:50,-11.772687,-4.141976,3.9242291,1.1429601,-1.50563,-1.0318389,13.082495816512013,2.153594895563793,walk
09/07/2020, 21:52:50,-11.351551,-4.0677986,3.8237305,1.1429601,-1.50563,-1.0318389,12.650122989152388,2.153594895563793,walk
09/07/2020, 21:52:50,-11.351551,-4.0677986,3.8237305,1.1063267,-1.4921979,-1.0599245,12.650122989152388,2.1387036172934555,walk
09/07/2020, 21:52:51,-9.485149,-4.6468616,5.2546387,0.6191034,0.28085557,0.4041878,11.79714409061202,0.7909087247585802,walk
09/07/2020, 21:52:51,-9.669396,-4.735396,5.288138,0.6191034,0.28085557,0.4041878,11.995232542231353,0.7909087247585802,walk
09/07/2020, 21:52:51,-9.669396,-4.735396,5.288138,0.7436567,0.28574002,0.3284789,11.995232542231353,0.8617256101084162,walk
09/07/2020, 21:52:51,-10.013963,-4.8239303,5.2809596,0.7436567,0.28574002,0.3284789,12.306026467584896,0.8617256101084162,walk
09/07/2020, 21:52:51,-10.013963,-4.8239303,5.2809596,0.8755367,0.23323223,0.2283478,12.306026467584896,0.9344005919138965,walk
09/07/2020, 21:52:51,-10.540383,-4.85743,5.087141,0.8755367,0.23323223,0.2283478,12.67175247881383,0.9344005919138965,walk
09/07/2020, 21:52:51,-10.540383,-4.85743,5.087141,0.9964267,0.12455334,0.12699556,12.67175247881383,1.0121796177725941,walk
09/07/2020, 21:52:51,-11.07159,-4.8622155,4.85743,0.9964267,0.12455334,0.12699556,13.031342228753608,1.0121796177725941,walk
09/07/2020, 21:52:51,-11.07159,-4.8622155,4.85743,1.0953367,-0.012211111,0.02075889,13.031342228753608,1.0956014219367092,walk
09/07/2020, 21:52:51,-11.612369,-4.776074,4.618148,1.0953367,-0.012211111,0.02075889,13.378537883421133,1.0956014219367092,walk
09/07/2020, 21:52:51,-11.612369,-4.776074,4.618148,1.1588345,-0.16729222,-0.078151114,13.378537883421133,1.1734528469370664,walk
09/07/2020, 21:52:51,-12.102897,-4.685147,4.3501515,1.1588345,-0.16729222,-0.078151114,13.687750995946992,1.1734528469370664,walk
09/07/2020, 21:52:51,-12.102897,-4.685147,4.3501515,1.1991311,-0.32725778,-0.17584,13.687750995946992,1.2553616344411473,walk
09/07/2020, 21:52:51,-12.638889,-4.618148,4.0941195,1.1991311,-0.32725778,-0.17584,14.065227602297897,1.2553616344411473,walk
09/07/2020, 21:52:51,-12.638889,-4.618148,4.0941195,1.2345434,-0.52141446,-0.27719223,14.065227602297897,1.3685050547637039,walk
09/07/2020, 21:52:51,-13.076776,-4.6037908,3.912265,1.2345434,-0.52141446,-0.27719223,14.404956302859222,1.3685050547637039,walk
09/07/2020, 21:52:51,-13.076776,-4.6037908,3.912265,1.28583,-0.77052116,-0.3931978,14.404956302859222,1.549731015483673,walk
09/07/2020, 21:52:51,-13.371093,-4.615755,3.792624,1.28583,-0.77052116,-0.3931978,14.644975736339372,1.549731015483673,walk
09/07/2020, 21:52:51,-13.371093,-4.615755,3.792624,1.3236845,-1.0428289,-0.51775116,14.644975736339372,1.7628666840451976,walk
09/07/2020, 21:52:51,-13.344772,-4.551149,3.6227336,1.3236845,-1.0428289,-0.51775116,14.557475869603527,1.7628666840451976,walk
09/07/2020, 21:52:52,-8.702696,-4.5918264,4.388437,-1.6790278,0.48966557,0.8999589,10.774050424056247,1.9669348602574144,walk
09/07/2020, 21:52:52,-8.702696,-4.5918264,4.388437,-1.4177101,0.5458367,0.8547778,10.774050424056247,1.7431249608920414,walk
09/07/2020, 21:52:52,-8.750552,-4.5966125,4.493721,-1.4177101,0.5458367,0.8547778,10.857925122124605,1.7431249608920414,walk
09/07/2020, 21:52:52,-8.750552,-4.5966125,4.493721,-1.1270856,0.5788067,0.8034911,10.857925122124605,1.5003123145139006,walk
09/07/2020, 21:52:52,-8.810373,-4.5248275,4.5535417,-1.1270856,0.5788067,0.8034911,10.900985422185704,1.5003123145139006,walk
09/07/2020, 21:52:52,-8.810373,-4.5248275,4.5535417,-0.8730945,0.58491224,0.7485411,10.900985422185704,1.2902442159851701,walk
09/07/2020, 21:52:52,-8.810373,-4.4339004,4.5559344,-0.8730945,0.58491224,0.7485411,10.864561136480859,1.2902442159851701,walk
09/07/2020, 21:52:52,-8.810373,-4.4339004,4.5559344,-0.6935911,0.5653745,0.7119078,10.864561136480859,1.1434726398994464,walk
09/07/2020, 21:52:52,-8.755338,-4.316652,4.54397,-0.6935911,0.5653745,0.7119078,10.767408499445002,1.1434726398994464,walk
09/07/2020, 21:52:52,-8.755338,-4.316652,4.54397,-0.5788067,0.5140878,0.69237006,10.767408499445002,1.0385950857832327,walk
09/07/2020, 21:52:52,-8.633304,-4.1611185,4.429115,-0.5788067,0.5140878,0.69237006,10.557741097805456,1.0385950857832327,walk
09/07/2020, 21:52:52,-8.633304,-4.1611185,4.429115,-0.5104245,0.45181113,0.6789378,10.557741097805456,0.9620930271233118,walk
09/07/2020, 21:52:52,-8.453842,-4.0558343,4.302295,-0.5104245,0.45181113,0.6789378,10.31634543771162,0.9620930271233118,walk
09/07/2020, 21:52:52,-8.453842,-4.0558343,4.302295,-0.47867557,0.40174556,0.67039,10.31634543771162,0.9164892600313148,walk
09/07/2020, 21:52:52,-8.2049885,-3.9146578,4.15394,-0.47867557,0.40174556,0.67039,9.995078842999943,0.9164892600313148,walk
09/07/2020, 21:52:52,-8.2049885,-3.9146578,4.15394,-0.47623336,0.36267,0.66062117,9.995078842999943,0.8914864404559886,walk
09/07/2020, 21:52:52,-8.015956,-3.8093736,4.0127635,-0.47623336,0.36267,0.66062117,9.740079448094944,0.8914864404559886,walk
09/07/2020, 21:52:52,-8.015956,-3.8093736,4.0127635,-0.49821335,0.33214223,0.6423045,9.740079448094944,0.8781173335720734,walk
09/07/2020, 21:52:52,-7.84128,-3.6993039,3.897908,-0.49821335,0.33214223,0.6423045,9.506009016909466,0.8781173335720734,walk
09/07/2020, 21:52:52,-7.84128,-3.6993039,3.897908,-0.5238567,0.29306668,0.63131446,9.506009016909466,0.8711325178721128,walk
09/07/2020, 21:52:53,-6.4151573,-2.6703901,1.7587247,-0.4689067,-0.84623003,-0.9317078,7.167868538910619,1.3431523298496026,walk
09/07/2020, 21:52:53,-6.4151573,-2.6703901,1.7587247,-0.4921078,-0.76441556,-0.8083756,7.167868538910619,1.2165411430617417,walk
09/07/2020, 21:52:53,-6.245267,-2.7565317,1.7826529,-0.4921078,-0.76441556,-0.8083756,7.055471432215979,1.2165411430617417,walk
09/07/2020, 21:52:53,-6.245267,-2.7565317,1.7826529,-0.4933289,-0.6789378,-0.67283225,7.055471432215979,1.0756547618241101,walk
09/07/2020, 21:52:53,-6.111269,-2.8594232,1.8137596,-0.4933289,-0.6789378,-0.67283225,6.986675413103324,1.0756547618241101,walk
09/07/2020, 21:52:53,-6.111269,-2.8594232,1.8137596,-0.4798967,-0.5836911,-0.5336256,6.986675413103324,0.925068886589977,walk
09/07/2020, 21:52:53,-5.9557357,-2.9503503,1.8233309,-0.4798967,-0.5836911,-0.5336256,6.892016383309055,0.925068886589977,walk
09/07/2020, 21:52:53,-5.9557357,-2.9503503,1.8233309,-0.44692668,-0.48722336,-0.3931978,6.892016383309055,0.7692428571829932,walk
09/07/2020, 21:52:53,-5.8504515,-3.0293136,1.8113668,-0.44692668,-0.48722336,-0.3931978,6.832684153270171,0.7692428571829932,walk
09/07/2020, 21:52:53,-5.8504515,-3.0293136,1.8113668,-0.39686114,-0.38953447,-0.25643334,6.832684153270171,0.6123674746567154,walk
09/07/2020, 21:52:53,-5.759524,-3.0939198,1.8640088,-0.39686114,-0.38953447,-0.25643334,6.798454485014502,0.6123674746567154,walk
09/07/2020, 21:52:53,-5.759524,-3.0939198,1.8640088,-0.32970002,-0.29062447,-0.12699556,6.798454485014502,0.4574850386159045,walk
09/07/2020, 21:52:53,-5.6614184,-3.1441689,1.9046868,-0.32970002,-0.29062447,-0.12699556,6.750206541240283,0.4574850386159045,walk
09/07/2020, 21:52:53,-5.6614184,-3.1441689,1.9046868,-0.25643334,-0.17828223,0.0036633336,6.750206541240283,0.3123396080177319,walk
09/07/2020, 21:52:53,-5.5944195,-3.1322048,1.9334008,-0.25643334,-0.17828223,0.0036633336,6.696736107956872,0.3123396080177319,walk
09/07/2020, 21:52:53,-5.5944195,-3.1322048,1.9334008,-0.18316667,-0.047623336,0.14164889,6.696736107956872,0.2363946234581334,walk
09/07/2020, 21:52:53,-5.5800624,-3.0987053,1.995614,-0.18316667,-0.047623336,0.14164889,6.687417004959987,0.2363946234581334,walk
09/07/2020, 21:52:53,-5.5800624,-3.0987053,1.995614,-0.109900005,0.089141116,0.28329778,6.687417004959987,0.3166729861674166,walk
09/07/2020, 21:52:53,-5.6614184,-3.103491,2.0267208,-0.109900005,0.089141116,0.28329778,6.766898298795771,0.3166729861674166,walk
09/07/2020, 21:52:53,-5.6614184,-3.103491,2.0267208,-0.047623336,0.22346334,0.4273889,6.766898298795771,0.4846288524007236,walk
09/07/2020, 21:52:54,-9.176475,-3.1226335,2.617748,1.1979101,-1.1527289,-0.93415004,10.040474588953426,1.906937016866407,walk
09/07/2020, 21:52:54,-8.953942,-3.0197423,2.3784657,1.1979101,-1.1527289,-0.93415004,9.744179021903474,1.906937016866407,walk
09/07/2020, 21:52:54,-8.874979,-2.9838498,2.1798615,1.1979101,-1.1527289,-0.93415004,9.613553368125197,1.906937016866407,walk
09/07/2020, 21:52:54,-8.851051,-2.9647074,2.065006,1.1979101,-1.1527289,-0.93415004,9.560065341107373,1.906937016866407,walk
09/07/2020, 21:52:54,-8.851051,-2.9647074,2.065006,1.0086378,-1.0696933,-1.3932878,9.560065341107373,2.025548031752777,walk
09/07/2020, 21:52:54,-8.841479,-2.9958138,1.9932213,1.0086378,-1.0696933,-1.3932878,9.545658066590551,2.025548031752777,walk
09/07/2020, 21:52:54,-8.817552,-3.050849,1.9908284,1.0086378,-1.0696933,-1.3932878,9.54045562461903,2.025548031752777,walk
09/07/2020, 21:52:54,-8.855837,-3.1561332,2.0889342,1.0086378,-1.0696933,-1.3932878,9.630714889185892,2.025548031752777,walk
09/07/2020, 21:52:54,-8.855837,-3.1561332,2.0889342,1.2528601,-0.91094893,-1.56058,9.630714889185892,2.198839760872482,walk
09/07/2020, 21:52:54,-8.939586,-3.347559,2.239682,1.2528601,-0.91094893,-1.56058,9.805025170963837,2.198839760872482,walk
09/07/2020, 21:52:54,-8.939586,-3.347559,2.239682,1.3884034,-0.8535567,-1.6008767,9.805025170963837,2.2845194780086673,walk
09/07/2020, 21:52:54,-9.097511,-3.5676985,2.4095724,1.3884034,-0.8535567,-1.6008767,10.06475151735008,2.2845194780086673,walk
09/07/2020, 21:52:54,-9.097511,-3.5676985,2.4095724,1.5630223,-0.7949434,-1.6191934,10.06475151735008,2.3867888361521437,walk
09/07/2020, 21:52:54,-9.286545,-3.8500516,2.565106,1.5630223,-0.7949434,-1.6191934,10.375094231680302,2.3867888361521437,walk
09/07/2020, 21:52:54,-9.286545,-3.8500516,2.565106,1.7608423,-0.7326667,-1.6204145,10.375094231680302,2.5026204817866304,walk
09/07/2020, 21:52:54,-9.518648,-4.113262,2.6632116,1.7608423,-0.7326667,-1.6204145,10.705899505966833,2.5026204817866304,walk
09/07/2020, 21:52:54,-9.518648,-4.113262,2.6632116,1.9867479,-0.66428447,-1.5972134,10.705899505966833,2.6342990570592617,walk
09/07/2020, 21:52:54,-9.889536,-4.398008,2.7852457,1.9867479,-0.66428447,-1.5972134,11.176000491540398,2.6342990570592617,walk
09/07/2020, 21:52:54,-9.889536,-4.398008,2.7852457,2.218759,-0.6007867,-1.5495901,11.176000491540398,2.77219514452817,walk
09/07/2020, 21:52:54,-10.277173,-4.6229334,2.8354948,2.218759,-0.6007867,-1.5495901,11.620319675646678,2.77219514452817,walk
09/07/2020, 21:52:55,-7.972885,-3.7471602,4.091727,0.13310112,0.7570889,1.0428289,9.713410055375903,1.2955275610345778,walk
09/07/2020, 21:52:55,-8.149954,-3.5676985,3.9481573,0.13310112,0.7570889,1.0428289,9.733353287158586,1.2955275610345778,walk
09/07/2020, 21:52:55,-8.149954,-3.5676985,3.9481573,0.12455334,0.7082445,1.0391656,9.733353287158586,1.2637202961356793,walk
09/07/2020, 21:52:55,-8.348558,-3.3762727,3.7615173,0.12455334,0.7082445,1.0391656,9.759439393971517,1.2637202961356793,walk
09/07/2020, 21:52:55,-8.348558,-3.3762727,3.7615173,0.06105556,0.63742,1.0403867,9.759439393971517,1.221653172253998,walk
09/07/2020, 21:52:55,-8.539984,-3.1226335,3.5988052,0.06105556,0.63742,1.0403867,9.779241327275422,1.221653172253998,walk
09/07/2020, 21:52:55,-8.539984,-3.1226335,3.5988052,-0.04396,0.5568267,1.0330601,9.779241327275422,1.1743941347155644,walk
09/07/2020, 21:52:55,-8.71466,-2.9455647,3.4480574,-0.04396,0.5568267,1.0330601,9.823988249657758,1.1743941347155644,walk
09/07/2020, 21:52:55,-8.71466,-2.9455647,3.4480574,-0.18316667,0.47623336,1.02207,9.823988249657758,1.142355212696674,walk
09/07/2020, 21:52:55,-8.834301,-2.7900312,3.3260236,-0.18316667,0.47623336,1.02207,9.843352121154426,1.142355212696674,walk
09/07/2020, 21:52:55,-8.834301,-2.7900312,3.3260236,-0.3309211,0.40296668,1.0049745,9.843352121154426,1.1321946128781089,walk
09/07/2020, 21:52:55,-8.941978,-2.7110682,3.211168,-0.3309211,0.40296668,1.0049745,9.880307154379755,1.1321946128781089,walk
09/07/2020, 21:52:55,-8.941978,-2.7110682,3.211168,-0.46280113,0.33580557,0.98055226,9.880307154379755,1.1350916214911042,walk
09/07/2020, 21:52:55,-9.008977,-2.7038896,3.1752756,-0.46280113,0.33580557,0.98055226,9.927490083722086,1.1350916214911042,walk
09/07/2020, 21:52:55,-9.008977,-2.7038896,3.1752756,-0.5702589,0.27230778,0.94880337,9.927490083722086,1.1399888531801898,walk
09/07/2020, 21:52:55,-9.047262,-2.778067,3.2015967,-0.5702589,0.27230778,0.94880337,9.991037569294736,1.1399888531801898,walk
09/07/2020, 21:52:55,-9.047262,-2.778067,3.2015967,-0.6337567,0.2185789,0.9097278,9.991037569294736,1.1300570695577592,walk
09/07/2020, 21:52:55,-8.987442,-2.9647074,3.2685957,-0.6337567,0.2185789,0.9097278,10.012358445403043,1.1300570695577592,walk
09/07/2020, 21:52:55,-8.987442,-2.9647074,3.2685957,-0.6520734,0.18438779,0.8621045,10.012358445403043,1.096550354681347,walk
09/07/2020, 21:52:55,-8.915657,-3.1848469,3.3643086,-0.6520734,0.18438779,0.8621045,10.047425664317947,1.096550354681347,walk
09/07/2020, 21:52:56,-11.655439,-3.4911282,2.5986054,-0.52752,0.8315767,1.6655957,12.441462663814658,1.934943420152176,walk
09/07/2020, 21:52:56,-11.655439,-3.4911282,2.5986054,-0.5238567,0.76930004,1.7413045,12.441462663814658,1.9744340502620195,walk
09/07/2020, 21:52:56,-11.188839,-3.5605202,2.845066,-0.5238567,0.76930004,1.7413045,12.081466057003313,1.9744340502620195,walk
09/07/2020, 21:52:56,-11.188839,-3.5605202,2.845066,-0.5104245,0.6899278,1.7754956,12.081466057003313,1.9720340651456552,walk
09/07/2020, 21:52:56,-10.444671,-3.5581272,3.1226335,-0.5104245,0.6899278,1.7754956,11.467443227849467,1.9720340651456552,walk
09/07/2020, 21:52:56,-10.444671,-3.5581272,3.1226335,-0.5140878,0.6581789,1.7938123,11.467443227849467,1.978698622303102,walk
09/07/2020, 21:52:56,-9.568898,-3.4313076,3.4408789,-0.5140878,0.6581789,1.7938123,10.73207024285915,1.978698622303102,walk
09/07/2020, 21:52:56,-9.568898,-3.4313076,3.4408789,-0.53484666,0.69114894,1.7999178,10.73207024285915,2.0008628025354,walk
09/07/2020, 21:52:56,-8.7266245,-3.318845,3.7280176,-0.53484666,0.69114894,1.7999178,10.053199606001778,2.0008628025354,walk
09/07/2020, 21:52:56,-8.003992,-3.1680973,3.9050865,-0.53484666,0.69114894,1.7999178,9.452535647607457,2.0008628025354,walk
09/07/2020, 21:52:56,-8.003992,-3.1680973,3.9050865,-0.5592689,0.9610145,1.7925912,9.452535647607457,2.1094344837889976,walk
09/07/2020, 21:52:56,-7.5493555,-3.0580273,3.95055,-0.5592689,0.9610145,1.7925912,9.052687184888184,2.1094344837889976,walk
09/07/2020, 21:52:56,-7.5493555,-3.0580273,3.95055,-0.5287411,1.0977789,1.7559578,9.052687184888184,2.137305234397592,walk
09/07/2020, 21:52:56,-7.396215,-3.0412776,3.95055,-0.5287411,1.0977789,1.7559578,8.919653099749342,2.137305234397592,walk
09/07/2020, 21:52:56,-7.396215,-3.0412776,3.95055,-0.46768558,1.1844778,1.6887968,8.919653099749342,2.115124574849583,walk
09/07/2020, 21:52:56,-7.499106,-3.0532417,3.912265,-0.46768558,1.1844778,1.6887968,8.99247978771341,2.115124574849583,walk
09/07/2020, 21:52:56,-7.499106,-3.0532417,3.912265,-0.37488112,1.2223322,1.6094245,8.99247978771341,2.055451066435047,walk
09/07/2020, 21:52:56,-7.769495,-3.1130621,3.897908,-0.37488112,1.2223322,1.6094245,9.233086980271796,2.055451066435047,walk
09/07/2020, 21:52:56,-8.123632,-3.1848469,3.9074793,-0.37488112,1.2223322,1.6094245,9.560598719910633,2.055451066435047,walk
09/07/2020, 21:52:56,-8.123632,-3.1848469,3.9074793,-0.11112112,1.2186689,1.4738811,9.560598719910633,1.915679371531849,walk
09/07/2020, 21:52:57,-8.391629,-1.6773686,2.3353949,-0.6288723,-0.40052447,-0.102573335,8.87057358103095,0.752609777138726,walk
09/07/2020, 21:52:57,-8.082955,-1.4548361,2.2779672,-0.6288723,-0.40052447,-0.102573335,8.52290151032564,0.752609777138726,walk
09/07/2020, 21:52:57,-8.082955,-1.4548361,2.2779672,-0.7167922,-0.34679556,0.009768889,8.52290151032564,0.7963376707857257,walk
09/07/2020, 21:52:57,-7.8029947,-1.2418749,2.2229323,-0.7167922,-0.34679556,0.009768889,8.207947871355849,0.7963376707857257,walk
09/07/2020, 21:52:57,-7.8029947,-1.2418749,2.2229323,-0.8083756,-0.24055889,0.11966889,8.207947871355849,0.8518569895563143,walk
09/07/2020, 21:52:57,-7.661818,-1.0671989,2.2205393,-0.8083756,-0.24055889,0.11966889,8.048177672152214,0.8518569895563143,walk
09/07/2020, 21:52:57,-7.661818,-1.0671989,2.2205393,-0.8669889,-0.085477784,0.23201112,8.048177672152214,0.901557187079689,walk
09/07/2020, 21:52:57,-7.759924,-0.9738788,2.2899313,-0.8669889,-0.085477784,0.23201112,8.149149939788021,0.901557187079689,walk
09/07/2020, 21:52:57,-7.759924,-0.9738788,2.2899313,-0.90362227,0.10745778,0.35290113,8.149149939788021,0.9760223300290318,walk
09/07/2020, 21:52:57,-8.147561,-0.98584294,2.349752,-0.90362227,0.10745778,0.35290113,8.536742468596207,0.9760223300290318,walk
09/07/2020, 21:52:57,-8.147561,-0.98584294,2.349752,-0.94391894,0.28085557,0.48844448,8.536742468596207,1.0992910571110144,walk
09/07/2020, 21:52:57,-8.829515,-1.1294123,2.3377876,-0.94391894,0.28085557,0.48844448,9.203323656761844,1.0992910571110144,walk
09/07/2020, 21:52:57,-8.829515,-1.1294123,2.3377876,-0.99032116,0.38709223,0.6325356,9.203323656761844,1.2372055816415648,walk
09/07/2020, 21:52:57,-9.583255,-1.3950156,2.2492533,-0.99032116,0.38709223,0.6325356,9.942031061904236,1.2372055816415648,walk
09/07/2020, 21:52:57,-9.583255,-1.3950156,2.2492533,-1.0452712,0.43349445,0.7937223,9.942031061904236,1.3822099247814927,walk
09/07/2020, 21:52:57,-10.403993,-1.672583,2.1128623,-1.0452712,0.43349445,0.7937223,10.747315211887516,1.3822099247814927,walk
09/07/2020, 21:52:57,-10.403993,-1.672583,2.1128623,-1.0916734,0.4591378,0.9732256,10.747315211887516,1.5328817073796341,walk
09/07/2020, 21:52:57,-11.100305,-1.9549361,1.9908284,-1.0916734,0.4591378,0.9732256,11.44560768713922,1.5328817073796341,walk
09/07/2020, 21:52:57,-11.100305,-1.9549361,1.9908284,-1.1563922,0.47501224,1.1661612,11.44560768713922,1.7096232000882494,walk
09/07/2020, 21:52:57,-11.71526,-2.2564318,1.8496519,-1.1563922,0.47501224,1.1661612,12.073110750436078,1.7096232000882494,walk
09/07/2020, 21:52:58,-6.4031935,-2.239682,2.4071796,-0.029306669,-0.0048844446,-0.37732336,7.198025808458377,0.3784912892939621,walk
09/07/2020, 21:52:58,-6.458228,-2.225325,2.498107,-0.029306669,-0.0048844446,-0.37732336,7.273329398396941,0.3784912892939621,walk
09/07/2020, 21:52:58,-6.458228,-2.225325,2.498107,0.03052778,0.09280445,-0.22102112,7.273329398396941,0.24165045895050238,walk
09/07/2020, 21:52:58,-6.6185474,-2.2779672,2.5914268,0.03052778,0.09280445,-0.22102112,7.46389964805527,0.24165045895050238,walk
09/07/2020, 21:52:58,-6.6185474,-2.2779672,2.5914268,0.12211112,0.16851334,-0.06716111,7.46389964805527,0.2186743863541955,walk
09/07/2020, 21:52:58,-6.8171515,-2.3234308,2.7062824,0.12211112,0.16851334,-0.06716111,7.69388394029057,0.2186743863541955,walk
09/07/2020, 21:52:58,-6.8171515,-2.3234308,2.7062824,0.20514667,0.23567446,0.08303556,7.69388394029057,0.32329941141300095,walk
09/07/2020, 21:52:58,-7.0325055,-2.3377876,2.7828526,0.20514667,0.23567446,0.08303556,7.916164073841172,0.32329941141300095,walk
09/07/2020, 21:52:58,-7.0325055,-2.3377876,2.7828526,0.2625389,0.2869611,0.23689556,7.916164073841172,0.45540406663026234,walk
09/07/2020, 21:52:58,-7.3052874,-2.3234308,2.7948167,0.2625389,0.2869611,0.23689556,8.159445726903206,0.45540406663026234,walk
09/07/2020, 21:52:58,-7.3052874,-2.3234308,2.7948167,0.28574002,0.3260367,0.3858711,8.159445726903206,0.5803824579363432,walk
09/07/2020, 21:52:58,-7.513463,-2.2612174,2.7900312,0.28574002,0.3260367,0.3858711,8.327634991698364,0.5803824579363432,walk
09/07/2020, 21:52:58,-7.513463,-2.2612174,2.7900312,0.27108666,0.3382478,0.5324045,8.327634991698364,0.6865523212793304,walk
09/07/2020, 21:52:58,-7.664211,-2.1702902,2.6871397,0.27108666,0.3382478,0.5324045,8.406604954100303,0.6865523212793304,walk
09/07/2020, 21:52:58,-7.664211,-2.1702902,2.6871397,0.21125223,0.34313223,0.6777167,8.406604954100303,0.7884586972869074,walk
09/07/2020, 21:52:58,-7.7144604,-2.091327,2.5962126,0.21125223,0.34313223,0.6777167,8.403979251659985,0.7884586972869074,walk
09/07/2020, 21:52:58,-7.7144604,-2.091327,2.5962126,0.11844778,0.36389112,0.81936556,8.403979251659985,0.9043265726228554,walk
09/07/2020, 21:52:58,-7.7742805,-1.9884356,2.5555346,0.11844778,0.36389112,0.81936556,8.42164303312328,0.9043265726228554,walk
09/07/2020, 21:52:58,-7.7742805,-1.9884356,2.5555346,0.01099,0.40052447,0.9646778,8.42164303312328,1.0445783395006958,walk
09/07/2020, 21:52:58,-7.865208,-1.9501505,2.5746772,0.01099,0.40052447,0.9646778,8.50256131953554,1.0445783395006958,walk
09/07/2020, 21:52:59,-9.202796,-3.2303107,2.333002,1.7156612,-1.0086378,-1.911039,10.028422594133897,2.759150859683851,walk
09/07/2020, 21:52:59,-9.202796,-3.2303107,2.333002,1.85731,-0.99032116,-1.9281346,10.028422594133897,2.8544771025658107,walk
09/07/2020, 21:52:59,-9.339187,-3.4193435,2.455036,1.85731,-0.99032116,-1.9281346,10.243999160290212,2.8544771025658107,walk
09/07/2020, 21:52:59,-9.339187,-3.4193435,2.455036,1.9928534,-0.97078335,-1.9379034,10.243999160290212,2.944376777611226,walk
09/07/2020, 21:52:59,-9.554541,-3.6370904,2.5339992,1.9928534,-0.97078335,-1.9379034,10.532750144229327,2.944376777611226,walk
09/07/2020, 21:52:59,-9.554541,-3.6370904,2.5339992,2.1308389,-0.94880337,-1.9354612,10.532750144229327,3.0309589300325555,walk
09/07/2020, 21:52:59,-9.80818,-3.8141594,2.6009982,2.1308389,-0.94880337,-1.9354612,10.840359560342005,3.0309589300325555,walk
09/07/2020, 21:52:59,-9.80818,-3.8141594,2.6009982,2.2688246,-0.93903446,-1.9244711,10.840359560342005,3.119765993118504,walk
09/07/2020, 21:52:59,-10.10489,-3.9553359,2.5698915,2.2688246,-0.93903446,-1.9244711,11.151583882451826,3.119765993118504,walk
09/07/2020, 21:52:59,-10.10489,-3.9553359,2.5698915,2.3994834,-0.9500245,-1.9037123,11.151583882451826,3.20689690045308,walk
09/07/2020, 21:52:59,-10.4016,-4.0701914,2.5387847,2.3994834,-0.9500245,-1.9037123,11.45448235463867,3.20689690045308,walk
09/07/2020, 21:52:59,-10.4016,-4.0701914,2.5387847,2.5093834,-0.9426978,-1.8585312,11.45448235463867,3.2618741226804335,walk
09/07/2020, 21:52:59,-10.746166,-4.1371903,2.5052853,2.5093834,-0.9426978,-1.8585312,11.784434089147613,3.2618741226804335,walk
09/07/2020, 21:52:59,-10.746166,-4.1371903,2.5052853,2.5960822,-0.9182756,-1.7974756,11.784434089147613,3.2884329641161747,walk
09/07/2020, 21:52:59,-11.157732,-4.132405,2.440679,2.5960822,-0.9182756,-1.7974756,12.14613796272308,3.2884329641161747,walk
09/07/2020, 21:52:59,-11.157732,-4.132405,2.440679,2.6559167,-0.9133912,-1.7278723,12.14613796272308,3.2975323234431295,walk
09/07/2020, 21:52:59,-11.614761,-4.101298,2.306681,2.6559167,-0.9133912,-1.7278723,12.531723833185197,3.2975323234431295,walk
09/07/2020, 21:52:59,-11.614761,-4.101298,2.306681,2.6620224,-0.9744467,-1.6655957,12.531723833185197,3.2878744309249703,walk
09/07/2020, 21:52:59,-12.031113,-4.017549,2.158326,2.6620224,-0.9744467,-1.6655957,12.866496924504444,3.2878744309249703,walk
09/07/2020, 21:52:59,-12.031113,-4.017549,2.158326,2.6522534,-1.0330601,-1.6057612,12.866496924504444,3.2680468316527325,walk
09/07/2020, 21:53:00,-9.877572,-1.9645073,3.7974095,-0.97688895,0.39564002,0.9304867,10.763179737416344,1.4059333240172478,walk
09/07/2020, 21:53:00,-9.877572,-1.9645073,3.7974095,-1.1063267,0.27719223,0.84745115,10.763179737416344,1.4209038507135932,walk
09/07/2020, 21:53:00,-9.860822,-1.9070797,3.7256248,-1.1063267,0.27719223,0.84745115,10.712284452395453,1.4209038507135932,walk
09/07/2020, 21:53:00,-9.860822,-1.9070797,3.7256248,-1.1966889,0.16851334,0.77052116,10.712284452395453,1.4332354695947462,walk
09/07/2020, 21:53:00,-9.729217,-1.9501505,3.7663028,-1.1966889,0.16851334,0.77052116,10.613471584287945,1.4332354695947462,walk
09/07/2020, 21:53:00,-9.729217,-1.9501505,3.7663028,-1.2516389,0.08303556,0.69237006,10.613471584287945,1.432784390334481,walk
09/07/2020, 21:53:00,-9.523434,-2.0865414,3.888337,-1.2516389,0.08303556,0.69237006,10.4961234775297,1.432784390334481,walk
09/07/2020, 21:53:00,-9.523434,-2.0865414,3.888337,-1.3029256,0.03174889,0.6117767,10.4961234775297,1.4397547773514991,walk
09/07/2020, 21:53:00,-9.35833,-2.28036,4.106084,-1.3029256,0.03174889,0.6117767,10.470831033890974,1.4397547773514991,walk
09/07/2020, 21:53:00,-9.35833,-2.28036,4.106084,-1.3334534,0.009768889,0.54095227,10.470831033890974,1.4390353711188362,walk
09/07/2020, 21:53:00,-9.243474,-2.5292134,4.328616,-1.3334534,0.009768889,0.54095227,10.515495708035054,1.4390353711188362,walk
09/07/2020, 21:53:00,-9.243474,-2.5292134,4.328616,-1.3151367,-0.024422223,0.48722336,10.515495708035054,1.4027000777489105,walk
09/07/2020, 21:53:00,-9.12144,-2.7900312,4.5559344,-1.3151367,-0.024422223,0.48722336,10.570784221414693,1.4027000777489105,walk
09/07/2020, 21:53:00,-9.12144,-2.7900312,4.5559344,-1.2443123,-0.07693,0.44082114,10.570784221414693,1.3223292212974926,walk
09/07/2020, 21:53:00,-8.973084,-3.0867412,4.7545385,-1.2443123,-0.07693,0.44082114,10.613663482755893,1.3223292212974926,walk
09/07/2020, 21:53:00,-8.973084,-3.0867412,4.7545385,-1.1234223,-0.11478445,0.3834289,10.613663482755893,1.1925899454050553,walk
09/07/2020, 21:53:00,-8.788837,-3.3714871,5.003392,-1.1234223,-0.11478445,0.3834289,10.660418503204179,1.1925899454050553,walk
09/07/2020, 21:53:00,-8.788837,-3.3714871,5.003392,-0.9597934,-0.11112112,0.31993112,10.660418503204179,1.0177952512605637,walk
09/07/2020, 21:53:00,-8.630911,-3.6131623,5.221139,-0.9597934,-0.11112112,0.31993112,10.71484279580411,1.0177952512605637,walk
09/07/2020, 21:53:00,-8.630911,-3.6131623,5.221139,-0.76075226,-0.10379445,0.25521225,10.71484279580411,0.809104802110047,walk
09/07/2020, 21:53:01,-8.992228,-3.7184465,6.195018,0.8547778,1.4262578,0.5568267,11.535391039525532,1.7535428555830395,walk
09/07/2020, 21:53:01,-8.796016,-3.3810585,6.216553,0.8547778,1.4262578,0.5568267,11.289241913838241,1.7535428555830395,walk
09/07/2020, 21:53:01,-8.796016,-3.3810585,6.216553,1.0782411,1.3126945,0.48478112,11.289241913838241,1.766573973000316,walk
09/07/2020, 21:53:01,-8.626125,-3.0293136,6.3074803,1.0782411,1.3126945,0.48478112,11.107253808090002,1.766573973000316,walk
09/07/2020, 21:53:01,-8.626125,-3.0293136,6.3074803,1.27484,1.2430911,0.43471557,11.107253808090002,1.8328857420716942,walk
09/07/2020, 21:53:01,-8.58784,-2.524428,6.3194447,1.27484,1.2430911,0.43471557,10.957148998933368,1.8328857420716942,walk
09/07/2020, 21:53:01,-8.58784,-2.524428,6.3194447,1.3822979,1.16494,0.39808223,10.957148998933368,1.8510273020038603,walk
09/07/2020, 21:53:01,-8.690732,-1.9549361,6.192625,1.3822979,1.16494,0.39808223,10.848926353813491,1.8510273020038603,walk
09/07/2020, 21:53:01,-8.690732,-1.9549361,6.192625,1.3285689,1.0257334,0.36267,10.848926353813491,1.7171935991517924,walk
09/07/2020, 21:53:01,-8.906086,-1.2466606,5.871987,1.3285689,1.0257334,0.36267,10.740240204541614,1.7171935991517924,walk
09/07/2020, 21:53:01,-8.906086,-1.2466606,5.871987,1.1063267,0.81448114,0.34801668,10.740240204541614,1.4171993157758336,walk
09/07/2020, 21:53:01,-9.224331,-0.5096712,5.4388857,1.1063267,0.81448114,0.34801668,10.720518778055201,1.4171993157758336,walk
09/07/2020, 21:53:01,-9.224331,-0.5096712,5.4388857,0.72778225,0.5470578,0.35900667,10.720518778055201,0.9786853624282004,walk
09/07/2020, 21:53:01,-9.482756,0.19621146,4.924429,0.72778225,0.5470578,0.35900667,10.686961880989312,0.9786853624282004,walk
09/07/2020, 21:53:01,-9.482756,0.19621146,4.924429,0.2625389,0.21125223,0.3944189,10.686961880989312,0.518768202317832,walk
09/07/2020, 21:53:01,-9.585648,0.6771688,4.496114,0.2625389,0.21125223,0.3944189,10.60934664568191,0.518768202317832,walk
09/07/2020, 21:53:01,-9.585648,0.6771688,4.496114,-0.18927222,-0.10013112,0.41762,10.60934664568191,0.46931512096374034,walk
09/07/2020, 21:53:01,-9.489935,0.9236295,4.254439,-0.18927222,-0.10013112,0.41762,10.440891076118673,0.46931512096374034,walk
09/07/2020, 21:53:01,-9.489935,0.9236295,4.254439,-0.5641534,-0.33214223,0.37488112,10.440891076118673,0.7544026412204536,walk
09/07/2020, 21:53:01,-9.212367,0.8709874,4.1180477,-0.5641534,-0.33214223,0.37488112,10.128407716022387,0.7544026412204536,walk
09/07/2020, 21:53:02,-11.46162,-4.587041,2.4622145,-1.5092934,1.3065889,2.845189,12.58857358609854,3.4756642797280635,walk
09/07/2020, 21:53:02,-11.46162,-4.587041,2.4622145,-1.2894934,1.2919356,2.9294457,12.58857358609854,3.4516000926409247,walk
09/07/2020, 21:53:02,-10.463814,-4.6037908,2.8666015,-1.2894934,1.2919356,2.9294457,11.785741054023497,3.4516000926409247,walk
09/07/2020, 21:53:02,-10.463814,-4.6037908,2.8666015,-1.0684723,1.3749712,2.997828,11.785741054023497,3.4668647808507975,walk
09/07/2020, 21:53:02,-9.504292,-4.551149,3.211168,-1.0684723,1.3749712,2.997828,11.01617510997887,3.4668647808507975,walk
09/07/2020, 21:53:02,-9.504292,-4.551149,3.211168,-0.8450089,1.5227256,3.03324,11.01617510997887,3.4976104182879597,walk
09/07/2020, 21:53:02,-8.7577305,-4.3764725,3.4025939,-0.8450089,1.5227256,3.03324,10.364796160764598,3.4976104182879597,walk
09/07/2020, 21:53:02,-8.7577305,-4.3764725,3.4025939,-0.64108336,1.7022289,3.0246923,10.364796160764598,3.5294949506070097,walk
09/07/2020, 21:53:02,-8.334201,-4.130012,3.4672,-0.64108336,1.7022289,3.0246923,9.926599593751297,3.5294949506070097,walk
09/07/2020, 21:53:02,-8.334201,-4.130012,3.4672,-0.45425335,1.9232501,2.9917223,9.926599593751297,3.58547619720925,walk
09/07/2020, 21:53:02,-8.370093,-3.8644085,3.4480574,-0.45425335,1.9232501,2.9917223,9.842825587192896,3.58547619720925,walk
09/07/2020, 21:53:02,-8.370093,-3.8644085,3.4480574,-0.2735289,2.16503,2.9502046,9.842825587192896,3.669588562636766,walk
09/07/2020, 21:53:02,-8.927621,-3.682554,3.2542388,-0.2735289,2.16503,2.9502046,10.190863024303688,3.669588562636766,walk
09/07/2020, 21:53:02,-8.927621,-3.682554,3.2542388,-0.12211112,2.3372068,2.9196768,10.190863024303688,3.7419192194083326,walk
09/07/2020, 21:53:02,-9.925428,-3.4887354,2.845066,-0.12211112,2.3372068,2.9196768,10.8986148034031,3.7419192194083326,walk
09/07/2020, 21:53:02,-9.925428,-3.4887354,2.845066,-0.039075557,2.3860512,2.90136,10.8986148034031,3.7566816707648973,walk
09/07/2020, 21:53:02,-11.207981,-3.3092737,2.3042881,-0.039075557,2.3860512,2.90136,11.911333971437674,3.7566816707648973,walk
09/07/2020, 21:53:02,-11.207981,-3.3092737,2.3042881,-0.04396,2.3140056,2.8915913,11.911333971437674,3.70376224495991,walk
09/07/2020, 21:53:02,-12.567104,-3.2015967,1.7826529,-0.04396,2.3140056,2.8915913,13.090461578925146,3.70376224495991,walk
09/07/2020, 21:53:02,-12.567104,-3.2015967,1.7826529,-0.12211112,2.16503,2.8915913,13.090461578925146,3.614355591881023,walk
09/07/2020, 21:53:03,-5.548956,-2.469393,1.2035898,-2.0478034,-0.69481224,-0.78761667,6.191723672318795,2.301434952039792,walk
09/07/2020, 21:53:03,-5.548956,-2.469393,1.2035898,-1.8304456,-0.56171113,-0.6191034,6.191723672318795,2.012297107597358,walk
09/07/2020, 21:53:03,-5.5106707,-2.6775684,1.4261223,-1.8304456,-0.56171113,-0.6191034,6.2905237229221145,2.012297107597358,walk
09/07/2020, 21:53:03,-5.5106707,-2.6775684,1.4261223,-1.5898868,-0.40907225,-0.4566956,6.2905237229221145,1.7040102558960843,walk
09/07/2020, 21:53:03,-5.5800624,-2.792424,1.6007984,-1.5898868,-0.40907225,-0.4566956,6.441838501385989,1.7040102558960843,walk
09/07/2020, 21:53:03,-5.5800624,-2.792424,1.6007984,-1.3493278,-0.24544334,-0.2869611,6.441838501385989,1.401169023336464,walk
09/07/2020, 21:53:03,-5.6327047,-2.8354948,1.7563318,-1.3493278,-0.24544334,-0.2869611,6.546151124240015,1.401169023336464,walk
09/07/2020, 21:53:03,-5.6327047,-2.8354948,1.7563318,-1.1185378,-0.081814446,-0.10745778,6.546151124240015,1.1266621282512175,walk
09/07/2020, 21:53:03,-5.7403817,-2.7900312,1.8783658,-1.1185378,-0.081814446,-0.10745778,6.653158215605883,1.1266621282512175,walk
09/07/2020, 21:53:03,-5.7403817,-2.7900312,1.8783658,-0.92071784,0.06594,0.07326667,6.653158215605883,0.9259791687917421,walk
09/07/2020, 21:53:03,-5.9174504,-2.7445676,1.9669002,-0.92071784,0.06594,0.07326667,6.813043928443353,0.9259791687917421,walk
09/07/2020, 21:53:03,-5.9174504,-2.7445676,1.9669002,-0.76075226,0.21369445,0.25399113,6.813043928443353,0.8300125385104221,walk
09/07/2020, 21:53:03,-6.1567326,-2.7302105,2.105684,-0.76075226,0.21369445,0.25399113,7.056437535864314,0.8300125385104221,walk
09/07/2020, 21:53:03,-6.1567326,-2.7302105,2.105684,-0.6105556,0.36999667,0.45303226,7.056437535864314,0.8455258040132974,walk
09/07/2020, 21:53:03,-6.4295144,-2.7948167,2.2085752,-0.6105556,0.36999667,0.45303226,7.350337456274047,0.8455258040132974,walk
09/07/2020, 21:53:03,-6.4295144,-2.7948167,2.2085752,-0.4701278,0.52752,0.65329444,7.350337456274047,0.9623362832628686,walk
09/07/2020, 21:53:03,-6.7836523,-2.8953154,2.309074,-0.4701278,0.52752,0.65329444,7.728687618891514,0.9623362832628686,walk
09/07/2020, 21:53:03,-6.7836523,-2.8953154,2.309074,-0.34191114,0.6752745,0.86576784,7.728687618891514,1.1499794829171057,walk
09/07/2020, 21:53:03,-7.1712894,-3.0173492,2.3712873,-0.34191114,0.6752745,0.86576784,8.133559640229764,1.1499794829171057,walk
09/07/2020, 21:53:03,-7.1712894,-3.0173492,2.3712873,-0.21491556,0.8083756,1.0941156,8.133559640229764,1.377225029522501,walk
09/07/2020, 21:53:04,-12.873385,-4.8789654,2.6488547,1.3542123,-1.8109078,-2.2236435,14.019443176005149,3.1714143086190543,walk
09/07/2020, 21:53:04,-12.873385,-4.8789654,2.6488547,1.4116045,-1.7999178,-2.1393867,14.019443176005149,3.1319812793934076,walk
09/07/2020, 21:53:04,-12.669996,-4.706682,2.4263222,1.4116045,-1.7999178,-2.1393867,13.732031975400032,3.1319812793934076,walk
09/07/2020, 21:53:04,-12.669996,-4.706682,2.4263222,1.4274789,-1.7938123,-2.0710046,13.732031975400032,3.089420445430636,walk
09/07/2020, 21:53:04,-12.380465,-4.421936,2.120041,1.4274789,-1.7938123,-2.0710046,13.316305578428015,3.089420445430636,walk
09/07/2020, 21:53:04,-12.380465,-4.421936,2.120041,1.4238156,-1.7889278,-2.0172756,13.316305578428015,3.0490841688440766,walk
09/07/2020, 21:53:04,-12.062219,-4.089334,1.8065811,1.4238156,-1.7889278,-2.0172756,12.864039304053634,3.0490841688440766,walk
09/07/2020, 21:53:04,-12.062219,-4.089334,1.8065811,1.3822979,-1.779159,-1.9696523,12.864039304053634,2.9926049093649434,walk
09/07/2020, 21:53:04,-11.696117,-3.7854455,1.4931214,1.3822979,-1.779159,-1.9696523,12.383786618033474,2.9926049093649434,walk
09/07/2020, 21:53:04,-11.696117,-3.7854455,1.4931214,1.3017045,-1.7706112,-1.9403456,12.383786618033474,2.9316275000918064,walk
09/07/2020, 21:53:04,-11.404193,-3.5006995,1.1988041,1.3017045,-1.7706112,-1.9403456,11.989480587398683,2.9316275000918064,walk
09/07/2020, 21:53:04,-11.404193,-3.5006995,1.1988041,1.1832567,-1.7803801,-1.922029,11.989480587398683,2.8747252876763194,walk
09/07/2020, 21:53:04,-11.117054,-3.2614172,0.89013004,1.1832567,-1.7803801,-1.922029,11.619727304963414,2.8747252876763194,walk
09/07/2020, 21:53:04,-11.117054,-3.2614172,0.89013004,1.0513767,-1.7938123,-1.9159234,11.619727304963414,2.8273517209188146,walk
09/07/2020, 21:53:04,-10.796415,-3.034099,0.6436693,1.0513767,-1.7938123,-1.9159234,11.233105158137528,2.8273517209188146,walk
09/07/2020, 21:53:04,-10.796415,-3.034099,0.6436693,0.9072856,-1.8109078,-1.9073756,11.233105158137528,2.7821998303240125,walk
09/07/2020, 21:53:04,-10.490134,-2.8378878,0.44745782,0.9072856,-1.8109078,-1.9073756,10.876430564212546,2.7821998303240125,walk
09/07/2020, 21:53:04,-10.490134,-2.8378878,0.44745782,0.7522045,-1.8206767,-1.9085968,10.876430564212546,2.7428847469604754,walk
09/07/2020, 21:53:04,-10.176675,-2.629712,0.30149564,0.7522045,-1.8206767,-1.9085968,10.515274424984028,2.7428847469604754,walk
09/07/2020, 21:53:04,-10.176675,-2.629712,0.30149564,0.5922389,-1.8218979,-1.9098178,10.515274424984028,2.7050809289564968,walk
09/07/2020, 21:53:05,-10.789237,-4.6301117,4.35733,0.5556056,-0.15141778,-0.31138334,12.523254098253089,0.6546636522832405,walk
09/07/2020, 21:53:05,-10.789237,-4.6301117,4.35733,0.6655056,-0.11234222,-0.4261678,12.523254098253089,0.7982088979998374,walk
09/07/2020, 21:53:05,-11.468799,-4.773681,4.5391846,0.6655056,-0.11234222,-0.4261678,13.225943089317592,0.7982088979998374,walk
09/07/2020, 21:53:05,-11.468799,-4.773681,4.5391846,0.7888378,-0.08059334,-0.53484666,13.225943089317592,0.9564629107302317,walk
09/07/2020, 21:53:05,-12.358929,-4.9674997,4.642076,0.7888378,-0.08059334,-0.53484666,14.10560319370282,0.9564629107302317,walk
09/07/2020, 21:53:05,-12.358929,-4.9674997,4.642076,0.8987378,-0.12455334,-0.63986224,14.10560319370282,1.1102553000232234,walk
09/07/2020, 21:53:05,-13.378271,-5.046463,4.6899323,0.8987378,-0.12455334,-0.63986224,15.047936471643407,1.1102553000232234,walk
09/07/2020, 21:53:05,-13.378271,-5.046463,4.6899323,0.97566783,-0.2942878,-0.74609894,15.047936471643407,1.263010947797007,walk
09/07/2020, 21:53:05,-14.268401,-5.029713,4.5487556,0.97566783,-0.2942878,-0.74609894,15.797989226353566,1.263010947797007,walk
09/07/2020, 21:53:05,-14.268401,-5.029713,4.5487556,0.98910004,-0.57514334,-0.8437878,15.797989226353566,1.4216492461188854,walk
09/07/2020, 21:53:05,-14.806787,-4.9052863,4.347759,0.98910004,-0.57514334,-0.8437878,16.192768993691445,1.4216492461188854,walk
09/07/2020, 21:53:05,-14.806787,-4.9052863,4.347759,0.9500245,-0.9280445,-0.94758224,16.192768993691445,1.6314794587189612,walk
09/07/2020, 21:53:05,-14.809179,-4.6372905,4.1108694,0.9500245,-0.9280445,-0.94758224,16.053519924925965,1.6314794587189612,walk
09/07/2020, 21:53:05,-14.809179,-4.6372905,4.1108694,0.84745115,-1.27484,-1.064809,16.053519924925965,1.8647274874377524,walk
09/07/2020, 21:53:05,-14.155939,-4.2831526,3.8404803,0.84745115,-1.27484,-1.064809,15.28022568671533,1.8647274874377524,walk
09/07/2020, 21:53:05,-14.155939,-4.2831526,3.8404803,0.6838223,-1.5447056,-1.1954678,15.28022568671533,2.0695100183141664,walk
09/07/2020, 21:53:05,-13.055241,-3.8380876,3.586841,0.6838223,-1.5447056,-1.1954678,14.072514102579058,2.0695100183141664,walk
09/07/2020, 21:53:05,-13.055241,-3.8380876,3.586841,0.4823389,-1.6790278,-1.350549,14.072514102579058,2.2081140625195763,walk
09/07/2020, 21:53:05,-11.849257,-3.3667014,3.2973096,0.4823389,-1.6790278,-1.350549,12.751934421545915,2.2081140625195763,walk
09/07/2020, 21:53:05,-11.849257,-3.3667014,3.2973096,0.25521225,-1.7168823,-1.5386001,12.751934421545915,2.319506093227029,walk
09/07/2020, 21:53:06,-7.726424,-3.7950168,4.302295,0.6337567,0.6386411,0.9829945,9.623384409459854,1.3325870368882646,walk
09/07/2020, 21:53:06,-7.726424,-3.7950168,4.302295,0.6935911,0.6252089,0.93415004,9.623384409459854,1.3208297099851682,walk
09/07/2020, 21:53:06,-7.6163545,-3.5437703,4.345366,0.6935911,0.6252089,0.93415004,9.45776765737245,1.3208297099851682,walk
09/07/2020, 21:53:06,-7.6163545,-3.5437703,4.345366,0.6984756,0.61788225,0.8718734,9.45776765737245,1.2766400543599001,walk
09/07/2020, 21:53:06,-7.570891,-3.2638102,4.2999024,0.6984756,0.61788225,0.8718734,9.298387322768274,1.2766400543599001,walk
09/07/2020, 21:53:06,-7.570891,-3.2638102,4.2999024,0.65329444,0.59956557,0.81081784,9.298387322768274,1.2015398720245947,walk
09/07/2020, 21:53:06,-7.556534,-3.050849,4.261617,0.65329444,0.59956557,0.81081784,9.196209201436073,1.2015398720245947,walk
09/07/2020, 21:53:06,-7.556534,-3.050849,4.261617,0.57148004,0.56049,0.7436567,9.196209201436073,1.0925949683627716,walk
09/07/2020, 21:53:06,-7.587641,-2.9168508,4.2329035,0.57148004,0.56049,0.7436567,9.165030432787281,1.0925949683627716,walk
09/07/2020, 21:53:06,-7.587641,-2.9168508,4.2329035,0.4921078,0.5226356,0.68138003,9.165030432787281,0.9897458228600754,walk
09/07/2020, 21:53:06,-7.6809607,-2.8666015,4.2329035,0.4921078,0.5226356,0.68138003,9.22670214289855,0.9897458228600754,walk
09/07/2020, 21:53:06,-7.6809607,-2.8666015,4.2329035,0.41884112,0.48478112,0.6191034,9.22670214289855,0.8909150368100723,walk
09/07/2020, 21:53:06,-7.838887,-2.9096723,4.2855453,0.41884112,0.48478112,0.6191034,9.39575672129777,0.8909150368100723,walk
09/07/2020, 21:53:06,-7.838887,-2.9096723,4.2855453,0.35534334,0.45181113,0.5653745,9.39575672129777,0.8062570992780951,walk
09/07/2020, 21:53:06,-8.059027,-2.955136,4.3070807,0.35534334,0.45181113,0.5653745,9.603732885236825,0.8062570992780951,walk
09/07/2020, 21:53:06,-8.059027,-2.955136,4.3070807,0.32115224,0.40540892,0.5128667,9.603732885236825,0.7283731049207501,walk
09/07/2020, 21:53:06,-8.331808,-3.0364919,4.2975097,0.32115224,0.40540892,0.5128667,9.854333985610928,0.7283731049207501,walk
09/07/2020, 21:53:06,-8.331808,-3.0364919,4.2975097,0.30405667,0.34191114,0.45303226,9.854333985610928,0.643888119981865,walk
09/07/2020, 21:53:06,-8.606983,-3.1465619,4.28076,0.30405667,0.34191114,0.45303226,10.114638681234641,0.643888119981865,walk
09/07/2020, 21:53:06,-8.606983,-3.1465619,4.28076,0.29062447,0.24788557,0.38831335,10.114638681234641,0.5446990896160596,walk
09/07/2020, 21:53:07,-11.162518,-1.1892328,3.8237305,0.068382226,1.7315357,1.5666857,11.859046648583545,2.336107002123212,walk
09/07/2020, 21:53:07,-11.162518,-1.1892328,3.8237305,0.09036223,1.5996556,1.5495901,11.859046648583545,2.228966794862665,walk
09/07/2020, 21:53:07,-11.763116,-1.1964114,3.65384,0.09036223,1.5996556,1.5495901,12.375493633133981,2.228966794862665,walk
09/07/2020, 21:53:07,-11.763116,-1.1964114,3.65384,0.13432223,1.4140468,1.5178412,12.375493633133981,2.078800779555372,walk
09/07/2020, 21:53:07,-12.035898,-1.2418749,3.6681972,0.13432223,1.4140468,1.5178412,12.643605870398519,2.078800779555372,walk
09/07/2020, 21:53:07,-12.035898,-1.2418749,3.6681972,0.21125223,1.2272167,1.4592278,12.643605870398519,1.918341511888981,walk
09/07/2020, 21:53:07,-11.810972,-1.3543376,3.888337,0.21125223,1.2272167,1.4592278,12.50809572714423,1.918341511888981,walk
09/07/2020, 21:53:07,-11.810972,-1.3543376,3.888337,0.32481557,1.0806834,1.3859612,12.50809572714423,1.787252091356591,walk
09/07/2020, 21:53:07,-11.270195,-1.39023,4.3836513,0.32481557,1.0806834,1.3859612,12.172363498084163,1.787252091356591,walk
09/07/2020, 21:53:07,-11.270195,-1.39023,4.3836513,0.4798967,1.0367234,1.3358957,12.172363498084163,1.7577580613057289,walk
09/07/2020, 21:53:07,-10.561919,-1.3112668,4.912465,0.4798967,1.0367234,1.3358957,11.722025052472597,1.7577580613057289,walk
09/07/2020, 21:53:07,-10.561919,-1.3112668,4.912465,0.6252089,1.0709145,1.2907145,11.722025052472597,1.7898849108663404,walk
09/07/2020, 21:53:07,-9.868001,-1.1700903,5.3742795,0.6252089,1.0709145,1.2907145,11.297319810893214,1.7898849108663404,walk
09/07/2020, 21:53:07,-9.868001,-1.1700903,5.3742795,0.7070234,1.1283067,1.229659,11.297319810893214,1.8124622308377791,walk
09/07/2020, 21:53:07,-9.226724,-0.92602235,5.721239,0.7070234,1.1283067,1.229659,10.8959865922713,1.8124622308377791,walk
09/07/2020, 21:53:07,-9.226724,-0.92602235,5.721239,0.7302245,1.1624979,1.1600556,10.8959865922713,1.7973197279103288,walk
09/07/2020, 21:53:07,-8.786445,-0.66999036,6.0011992,0.7302245,1.1624979,1.1600556,10.661373706078608,1.7973197279103288,walk
09/07/2020, 21:53:07,-8.786445,-0.66999036,6.0011992,0.74732006,1.1771512,1.1026634,10.661373706078608,1.777649793957328,walk
09/07/2020, 21:53:07,-8.465807,-0.47138608,6.2404814,0.74732006,1.1771512,1.1026634,10.527853539346811,1.777649793957328,walk
09/07/2020, 21:53:07,-8.465807,-0.47138608,6.2404814,0.80593336,1.1905833,1.0513767,10.527853539346811,1.7811261185293912,walk
09/07/2020, 21:53:08,-5.2402816,0.72023964,4.2592244,-2.9673002,0.96589893,1.7767167,6.791192002234602,3.5908986824549207,walk
09/07/2020, 21:53:08,-5.2402816,0.72023964,4.2592244,-3.4569657,1.0391656,1.8683001,6.791192002234602,4.064606022003753,walk
09/07/2020, 21:53:08,-5.3479586,0.8207382,3.711268,-3.4569657,1.0391656,1.8683001,6.561080839337942,4.064606022003753,walk
09/07/2020, 21:53:08,-5.3479586,0.8207382,3.711268,-3.9466312,1.0684723,1.9171445,6.561080839337942,4.515858050703748,walk
09/07/2020, 21:53:08,-5.548956,0.782453,3.2015967,-3.9466312,1.0684723,1.9171445,6.453941906821686,4.515858050703748,walk
09/07/2020, 21:53:08,-5.548956,0.782453,3.2015967,-4.3898945,1.0794623,1.9525567,6.453941906821686,4.9243162174980215,walk
09/07/2020, 21:53:08,-5.76431,0.567099,2.766103,-4.3898945,1.0794623,1.9525567,6.418737854492284,4.9243162174980215,walk
09/07/2020, 21:53:08,-5.76431,0.567099,2.766103,-4.745238,1.0880101,2.0111701,6.418737854492284,5.267433276614539,walk
09/07/2020, 21:53:08,-6.0323057,0.15553348,2.4382863,-4.745238,1.0880101,2.0111701,6.508313378615032,5.267433276614539,walk
09/07/2020, 21:53:08,-6.0323057,0.15553348,2.4382863,-5.010219,1.1295278,2.1137433,6.508313378615032,5.553921067943259,walk
09/07/2020, 21:53:08,-6.300302,-0.37567315,2.2564318,-5.010219,1.1295278,2.1137433,6.702717397706984,5.553921067943259,walk
09/07/2020, 21:53:08,-6.300302,-0.37567315,2.2564318,-5.1799536,1.2491968,2.2724879,6.702717397706984,5.792806984919852,walk
09/07/2020, 21:53:08,-6.65444,-0.91884387,2.1870399,-5.1799536,1.2491968,2.2724879,7.064629367103236,5.792806984919852,walk
09/07/2020, 21:53:08,-6.65444,-0.91884387,2.1870399,-5.248336,1.416489,2.4764135,7.064629367103236,5.973616487420292,walk
09/07/2020, 21:53:08,-7.1569324,-1.4452649,2.1343977,-5.248336,1.416489,2.4764135,7.606978716122748,5.973616487420292,walk
09/07/2020, 21:53:08,-7.1569324,-1.4452649,2.1343977,-5.228798,1.5972134,2.6974347,7.606978716122748,6.096521301634451,walk
09/07/2020, 21:53:08,-7.850851,-1.8520447,2.1343977,-5.228798,1.5972134,2.6974347,8.34395503709337,6.096521301634451,walk
09/07/2020, 21:53:08,-7.850851,-1.8520447,2.1343977,-5.148205,1.779159,2.9172347,8.34395503709337,6.1789705715503525,walk
09/07/2020, 21:53:08,-8.700303,-2.2157538,2.1463618,-5.148205,1.779159,2.9172347,9.2310187744484,6.1789705715503525,walk
09/07/2020, 21:53:08,-8.700303,-2.2157538,2.1463618,-5.062727,1.9464512,3.118718,9.2310187744484,6.256698653214436,walk
09/07/2020, 21:53:09,-7.4344997,-3.251846,0.95473623,-1.6082034,-1.339559,-1.3334534,8.17054530389498,2.4816999075186725,walk
09/07/2020, 21:53:09,-7.4344997,-3.251846,0.95473623,-1.50563,-1.1588345,-1.2553023,8.17054530389498,2.2771918968726097,walk
09/07/2020, 21:53:09,-7.6139617,-3.3619158,1.0480564,-1.50563,-1.1588345,-1.2553023,8.388880311840541,2.2771918968726097,walk
09/07/2020, 21:53:09,-7.6139617,-3.3619158,1.0480564,-1.3725289,-1.053819,-1.174709,8.388880311840541,2.091485385468348,walk
09/07/2020, 21:53:09,-7.7886376,-3.507878,1.0001999,-1.3725289,-1.053819,-1.174709,8.600493279173081,2.091485385468348,walk
09/07/2020, 21:53:09,-7.7886376,-3.507878,1.0001999,-1.2284378,-0.9976478,-1.1002212,8.600493279173081,1.927393876100592,walk
09/07/2020, 21:53:09,-7.8628154,-3.5772698,0.93320084,-1.2284378,-0.9976478,-1.1002212,8.68858956740795,1.927393876100592,walk
09/07/2020, 21:53:09,-7.8628154,-3.5772698,0.93320084,-1.0843467,-0.93903446,-1.01108,8.68858956740795,1.7549576071206963,walk
09/07/2020, 21:53:09,-7.8556366,-3.5605202,0.9954142,-1.0843467,-0.93903446,-1.01108,8.682118385488385,1.7549576071206963,walk
09/07/2020, 21:53:09,-7.8556366,-3.5605202,0.9954142,-0.9512456,-0.82425004,-0.9182756,8.682118385488385,1.558039281639929,walk
09/07/2020, 21:53:09,-7.776674,-3.4648073,1.1246266,-0.9512456,-0.82425004,-0.9182756,8.587568328602005,1.558039281639929,walk
09/07/2020, 21:53:09,-7.776674,-3.4648073,1.1246266,-0.8437878,-0.6764956,-0.82913446,8.587568328602005,1.3627501993700606,walk
09/07/2020, 21:53:09,-7.6713896,-3.2853456,1.2610176,-0.8437878,-0.6764956,-0.82913446,8.440016515694433,1.3627501993700606,walk
09/07/2020, 21:53:09,-7.6713896,-3.2853456,1.2610176,-0.7387723,-0.53973114,-0.7485411,8.440016515694433,1.182120122339673,walk
09/07/2020, 21:53:09,-7.60439,-3.0867412,1.3686945,-0.7387723,-0.53973114,-0.7485411,8.320339266719682,1.182120122339673,walk
09/07/2020, 21:53:09,-7.60439,-3.0867412,1.3686945,-0.6569578,-0.41762,-0.65940005,8.320339266719682,1.0202001986592109,walk
09/07/2020, 21:53:09,-7.5086775,-2.8977082,1.3734802,-0.6569578,-0.41762,-0.65940005,8.164765647709393,1.0202001986592109,walk
09/07/2020, 21:53:09,-7.5086775,-2.8977082,1.3734802,-0.59468114,-0.28085557,-0.5507211,8.164765647709393,0.8577990741708473,walk
09/07/2020, 21:53:09,-7.4679995,-2.6823542,1.3782659,-0.59468114,-0.28085557,-0.5507211,8.053921827374236,0.8577990741708473,walk
09/07/2020, 21:53:09,-7.4679995,-2.6823542,1.3782659,-0.54095227,-0.10745778,-0.4151778,8.053921827374236,0.6903253775308588,walk
09/07/2020, 21:53:10,-11.0811615,-3.7615173,2.132005,2.7230778,-1.1344123,-2.0331502,11.894813898562225,3.5827005908938183,walk
09/07/2020, 21:53:10,-11.167303,-3.4217365,1.8161523,2.7230778,-1.1344123,-2.0331502,11.820124704545805,3.5827005908938183,walk
09/07/2020, 21:53:10,-11.167303,-3.4217365,1.8161523,2.5765445,-1.1991311,-1.9342401,11.820124704545805,3.437700092377985,walk
09/07/2020, 21:53:10,-11.160125,-3.1561332,1.5696917,2.5765445,-1.1991311,-1.9342401,11.703567558490596,3.437700092377985,walk
09/07/2020, 21:53:10,-11.160125,-3.1561332,1.5696917,2.3860512,-1.2699556,-1.8377723,11.703567558490596,3.2685523374264296,walk
09/07/2020, 21:53:10,-11.059627,-2.9503503,1.4333007,2.3860512,-1.2699556,-1.8377723,11.5357816322849,3.2685523374264296,walk
09/07/2020, 21:53:10,-11.059627,-2.9503503,1.4333007,2.1577034,-1.3334534,-1.7388623,11.5357816322849,3.0752925049337505,walk
09/07/2020, 21:53:10,-10.892129,-2.7708886,1.3351951,2.1577034,-1.3334534,-1.7388623,11.31808474311464,3.0752925049337505,walk
09/07/2020, 21:53:10,-10.892129,-2.7708886,1.3351951,1.9159234,-1.3859612,-1.6533846,11.31808474311464,2.885365005081428,walk
09/07/2020, 21:53:10,-10.643275,-2.6488547,1.253839,1.9159234,-1.3859612,-1.6533846,11.039377335326863,2.885365005081428,walk
09/07/2020, 21:53:10,-10.643275,-2.6488547,1.253839,1.6778067,-1.4128256,-1.5642434,11.039377335326863,2.6940618216253966,walk
09/07/2020, 21:53:10,-10.399207,-2.5698915,1.2897314,1.6778067,-1.4128256,-1.5642434,10.789404883705187,2.6940618216253966,walk
09/07/2020, 21:53:10,-10.399207,-2.5698915,1.2897314,1.4555645,-1.4116045,-1.4763234,10.789404883705187,2.5081519138921937,walk
09/07/2020, 21:53:10,-10.152746,-2.5698915,1.2466606,1.4555645,-1.4116045,-1.4763234,10.546883905648318,2.5081519138921937,walk
09/07/2020, 21:53:10,-10.152746,-2.5698915,1.2466606,1.2601867,-1.4030567,-1.3920667,10.546883905648318,2.344032510781904,walk
09/07/2020, 21:53:10,-9.930214,-2.6225336,1.2155539,1.2601867,-1.4030567,-1.3920667,10.34235960345056,2.344032510781904,walk
09/07/2020, 21:53:10,-9.930214,-2.6225336,1.2155539,1.0867889,-1.40672,-1.3090311,10.34235960345056,2.207608178773936,walk
09/07/2020, 21:53:10,-9.74836,-2.684747,1.2107682,1.0867889,-1.40672,-1.3090311,10.183532908261343,2.207608178773936,walk
09/07/2020, 21:53:10,-9.74836,-2.684747,1.2107682,0.9402556,-1.3981723,-1.23088,10.183532908261343,2.0866317009834088,walk
09/07/2020, 21:53:10,-9.611969,-2.7637103,1.2035898,0.9402556,-1.3981723,-1.23088,10.073562961892037,2.0866317009834088,walk
09/07/2020, 21:53:11,-9.736395,-4.237689,4.388437,0.018316668,0.6252089,0.8266923,11.489724583947348,1.0366493224953146,walk
09/07/2020, 21:53:11,-9.736395,-4.237689,4.388437,0.025643334,0.5519422,0.7216767,11.489724583947348,0.9089087274492476,walk
09/07/2020, 21:53:11,-9.688539,-4.421936,4.520042,0.025643334,0.5519422,0.7216767,11.569445826074078,0.9089087274492476,walk
09/07/2020, 21:53:11,-9.688539,-4.421936,4.520042,0.034191113,0.47501224,0.61788225,11.569445826074078,0.780118029547265,walk
09/07/2020, 21:53:11,-9.686146,-4.5296135,4.658826,0.034191113,0.47501224,0.61788225,11.663767704285128,0.780118029547265,walk
09/07/2020, 21:53:11,-9.686146,-4.5296135,4.658826,0.036633335,0.40907225,0.51775116,11.663767704285128,0.6608694030823976,walk
09/07/2020, 21:53:11,-9.820144,-4.6636114,4.883751,0.036633335,0.40907225,0.51775116,11.917865441814596,0.6608694030823976,walk
09/07/2020, 21:53:11,-9.820144,-4.6636114,4.883751,0.06594,0.3712178,0.42128336,11.917865441814596,0.5653586492045816,walk
09/07/2020, 21:53:11,-10.047462,-4.843073,5.17089,0.06594,0.3712178,0.42128336,12.29410260529356,0.5653586492045816,walk
09/07/2020, 21:53:11,-10.047462,-4.843073,5.17089,0.15386,0.34679556,0.3174889,12.29410260529356,0.49471129695187166,walk
09/07/2020, 21:53:11,-10.506885,-5.144569,5.541777,0.15386,0.34679556,0.3174889,12.944979978600466,0.49471129695187166,walk
09/07/2020, 21:53:11,-10.506885,-5.144569,5.541777,0.30039334,0.30894113,0.20392556,12.944979978600466,0.476724675016059,walk
09/07/2020, 21:53:11,-11.078769,-5.508278,5.838487,0.30039334,0.30894113,0.20392556,13.68094200354575,0.476724675016059,walk
09/07/2020, 21:53:11,-11.078769,-5.508278,5.838487,0.4798967,0.21735778,0.09036223,13.68094200354575,0.5345190138198156,walk
09/07/2020, 21:53:11,-11.674582,-5.8265233,5.9150577,0.4798967,0.21735778,0.09036223,14.325925267503427,0.5345190138198156,walk
09/07/2020, 21:53:11,-11.674582,-5.8265233,5.9150577,0.63986224,0.051286668,-0.014653334,14.325925267503427,0.6420815585583404,walk
09/07/2020, 21:53:11,-12.165111,-5.8767724,5.7427745,0.63986224,0.051286668,-0.014653334,14.680116767533853,0.6420815585583404,walk
09/07/2020, 21:53:11,-12.165111,-5.8767724,5.7427745,0.7302245,-0.18438779,-0.11600556,14.680116767533853,0.7620262153878841,walk
09/07/2020, 21:53:11,-12.327823,-5.733203,5.400601,0.7302245,-0.18438779,-0.11600556,14.62912568253265,0.7620262153878841,walk
09/07/2020, 21:53:11,-12.327823,-5.733203,5.400601,0.73755115,-0.47501224,-0.22590557,14.62912568253265,0.9058982608704685,walk
09/07/2020, 21:53:12,-8.260024,-4.261617,4.6396832,0.01099,0.59834445,1.1002212,10.388264498865006,1.2524469847927058,walk
09/07/2020, 21:53:12,-8.398808,-4.3405805,4.802395,0.01099,0.59834445,1.1002212,10.60394280775008,1.2524469847927058,walk
09/07/2020, 21:53:12,-8.398808,-4.3405805,4.802395,0.11478445,0.57636446,1.0281756,10.60394280775008,1.1842788973279428,walk
09/07/2020, 21:53:12,-8.551949,-4.4434714,4.8909297,0.11478445,0.57636446,1.0281756,10.807472213306045,1.1842788973279428,walk
09/07/2020, 21:53:12,-8.551949,-4.4434714,4.8909297,0.20881,0.5018767,0.9500245,10.807472213306045,1.0945448249764442,walk
09/07/2020, 21:53:12,-8.652447,-4.45065,4.8502517,0.20881,0.5018767,0.9500245,10.871893273562497,1.0945448249764442,walk
09/07/2020, 21:53:12,-8.652447,-4.45065,4.8502517,0.28085557,0.41762,0.8669889,10.871893273562497,1.0024749694011104,walk
09/07/2020, 21:53:12,-8.650054,-4.409972,4.7545385,0.28085557,0.41762,0.8669889,10.810963196535905,1.0024749694011104,walk
09/07/2020, 21:53:12,-8.650054,-4.409972,4.7545385,0.31138334,0.35656446,0.7900589,10.810963196535905,0.9210270792584099,walk
09/07/2020, 21:53:12,-8.623733,-4.3094735,4.7210393,0.31138334,0.35656446,0.7900589,10.734455616551855,0.9210270792584099,walk
09/07/2020, 21:53:12,-8.623733,-4.3094735,4.7210393,0.32481557,0.32725778,0.7119078,10.734455616551855,0.848183666903547,walk
09/07/2020, 21:53:12,-8.647661,-4.173083,4.6707897,0.32481557,0.32725778,0.7119078,10.677684265646162,0.848183666903547,walk
09/07/2020, 21:53:12,-8.647661,-4.173083,4.6707897,0.33580557,0.31382558,0.6191034,10.677684265646162,0.7710647547374173,walk
09/07/2020, 21:53:12,-8.736196,-4.139583,4.587041,0.33580557,0.31382558,0.6191034,10.700383427597567,0.7710647547374173,walk
09/07/2020, 21:53:12,-8.736196,-4.139583,4.587041,0.37610224,0.27841336,0.5140878,10.700383427597567,0.6951641192923891,walk
09/07/2020, 21:53:12,-8.915657,-4.182654,4.54397,0.37610224,0.27841336,0.5140878,10.845791743324094,0.6951641192923891,walk
09/07/2020, 21:53:12,-8.915657,-4.182654,4.54397,0.4383789,0.23689556,0.40785113,10.845791743324094,0.6439239948929304,walk
09/07/2020, 21:53:12,-9.188439,-4.26401,4.5272202,0.4383789,0.23689556,0.40785113,11.095265751727116,0.6439239948929304,walk
09/07/2020, 21:53:12,-9.188439,-4.26401,4.5272202,0.52752,0.20514667,0.30649891,11.095265751727116,0.643664580824585,walk
09/07/2020, 21:53:12,-9.568898,-4.3764725,4.642076,0.52752,0.20514667,0.30649891,11.50070405768717,0.643664580824585,walk
09/07/2020, 21:53:13,-8.999406,-3.845266,3.900301,-0.8266923,0.5910178,1.6167512,10.53507119052375,1.9096090107088477,walk
09/07/2020, 21:53:13,-8.9013,-3.7734814,3.9481573,-0.8266923,0.5910178,1.6167512,10.443191903871806,1.9096090107088477,walk
09/07/2020, 21:53:13,-8.9013,-3.7734814,3.9481573,-0.7851745,0.57148004,1.5947711,10.443191903871806,1.8671859629107348,walk
09/07/2020, 21:53:13,-8.788837,-3.696911,3.9888353,-0.7851745,0.57148004,1.5947711,10.335454629826419,1.8671859629107348,walk
09/07/2020, 21:53:13,-8.788837,-3.696911,3.9888353,-0.7619734,0.5470578,1.57157,10.335454629826419,1.8302207694548804,walk
09/07/2020, 21:53:13,-8.673982,-3.65384,4.046263,-0.7619734,0.5470578,1.57157,10.245035441679196,1.8302207694548804,walk
09/07/2020, 21:53:13,-8.673982,-3.65384,4.046263,-0.7448778,0.5226356,1.5410423,10.245035441679196,1.7896374952815945,walk
09/07/2020, 21:53:13,-8.532805,-3.656233,4.106084,-0.7448778,0.5226356,1.5410423,10.150701145764382,1.7896374952815945,walk
09/07/2020, 21:53:13,-8.532805,-3.656233,4.106084,-0.7302245,0.5043189,1.504409,10.150701145764382,1.74665728104894,walk
09/07/2020, 21:53:13,-8.384451,-3.6466618,4.1874394,-0.7302245,0.5043189,1.504409,10.056431184162761,1.74665728104894,walk
09/07/2020, 21:53:13,-8.384451,-3.6466618,4.1874394,-0.7228978,0.49577114,1.4677756,10.056431184162761,1.7096009637160892,walk
09/07/2020, 21:53:13,-8.216953,-3.656233,4.2281175,-0.7228978,0.49577114,1.4677756,9.937974579911542,1.7096009637160892,walk
09/07/2020, 21:53:13,-8.216953,-3.656233,4.2281175,-0.7082445,0.48356003,1.4287001,9.937974579911542,1.6663206532475467,walk
09/07/2020, 21:53:13,-8.063812,-3.6514473,4.26401,-0.7082445,0.48356003,1.4287001,9.825472829826513,1.6663206532475467,walk
09/07/2020, 21:53:13,-8.063812,-3.6514473,4.26401,-0.6752745,0.47745445,1.3835189,9.825472829826513,1.6118570145662616,walk
09/07/2020, 21:53:13,-7.920243,-3.6586258,4.287938,-0.6752745,0.47745445,1.3835189,9.721224313055249,1.6118570145662616,walk
09/07/2020, 21:53:13,-7.920243,-3.6586258,4.287938,-0.61666113,0.46646446,1.3322322,9.721224313055249,1.5403580026209094,walk
09/07/2020, 21:53:13,-7.752745,-3.723232,4.2831526,-0.61666113,0.46646446,1.3322322,9.60796077041831,1.5403580026209094,walk
09/07/2020, 21:53:13,-7.752745,-3.723232,4.2831526,-0.5372889,0.45059,1.2760612,9.60796077041831,1.4560366945200625,walk
09/07/2020, 21:53:13,-7.594819,-3.8069808,4.2568316,-0.5372889,0.45059,1.2760612,9.502367890740198,1.4560366945200625,walk
09/07/2020, 21:53:14,-6.7381887,-3.3092737,3.897908,-0.47623336,1.0245123,1.5886656,8.458614937301293,1.9494312128688513,walk
09/07/2020, 21:53:14,-7.7072816,-3.6251264,3.8811584,-0.47623336,1.0245123,1.5886656,9.359867562729532,1.9494312128688513,walk
09/07/2020, 21:53:14,-7.7072816,-3.6251264,3.8811584,-0.14897557,1.0843467,1.6582689,9.359867562729532,1.9869215435858023,walk
09/07/2020, 21:53:14,-8.829515,-3.9984066,3.8548372,-0.14897557,1.0843467,1.6582689,10.4310770591528,1.9869215435858023,walk
09/07/2020, 21:53:14,-8.829515,-3.9984066,3.8548372,0.12089001,1.0794623,1.7693901,10.4310770591528,2.076197143023221,walk
09/07/2020, 21:53:14,-9.937392,-4.328616,3.7615173,0.12089001,1.0794623,1.7693901,11.473347132837592,2.076197143023221,walk
09/07/2020, 21:53:14,-9.937392,-4.328616,3.7615173,0.33336335,0.9952056,1.8902801,11.473347132837592,2.1621110598840327,walk
09/07/2020, 21:53:14,-10.8969145,-4.5798626,3.534199,0.33336335,0.9952056,1.8902801,12.337278840304156,2.1621110598840327,walk
09/07/2020, 21:53:14,-10.8969145,-4.5798626,3.534199,0.47501224,0.82791334,1.9891901,12.337278840304156,2.2063441246141893,walk
09/07/2020, 21:53:14,-11.648261,-4.709075,3.2063823,0.47501224,0.82791334,1.9891901,12.96681380922473,2.2063441246141893,walk
09/07/2020, 21:53:14,-11.648261,-4.709075,3.2063823,0.5372889,0.6020078,2.0514667,12.96681380922473,2.204451950175669,walk
09/07/2020, 21:53:14,-11.968899,-4.6492543,2.8402805,0.5372889,0.6020078,2.0514667,13.1505626153135,2.204451950175669,walk
09/07/2020, 21:53:14,-11.968899,-4.6492543,2.8402805,0.50676113,0.36877558,2.1003113,13.1505626153135,2.191827945404369,walk
09/07/2020, 21:53:14,-11.952149,-4.438686,2.5004997,0.50676113,0.36877558,2.1003113,12.99262507775423,2.191827945404369,walk
09/07/2020, 21:53:14,-11.952149,-4.438686,2.5004997,0.36389112,0.15019667,2.1430502,12.99262507775423,2.178907965901312,walk
09/07/2020, 21:53:14,-11.526227,-4.007978,2.225325,0.36389112,0.15019667,2.1430502,12.404429369272316,2.178907965901312,walk
09/07/2020, 21:53:14,-11.526227,-4.007978,2.225325,0.14287001,-0.03052778,2.1699145,12.404429369272316,2.1748270397378566,walk
09/07/2020, 21:53:14,-10.820344,-3.4648073,2.0315065,0.14287001,-0.03052778,2.1699145,11.541739552751732,2.1748270397378566,walk
09/07/2020, 21:53:14,-10.820344,-3.4648073,2.0315065,-0.16973445,-0.16485001,2.1589246,11.541739552751732,2.1718518940466045,walk
09/07/2020, 21:53:14,-9.97807,-2.952743,1.9142581,-0.16973445,-0.16485001,2.1589246,10.580404613925715,2.1718518940466045,walk
09/07/2020, 21:53:15,-8.99462,-2.6751757,1.3016955,-0.30161446,-1.3358957,-1.5215045,9.473867778937175,2.047086832762871,walk
09/07/2020, 21:53:15,-8.82473,-2.713461,1.2993027,-0.30161446,-1.3358957,-1.5215045,9.323460507042448,2.047086832762871,walk
09/07/2020, 21:53:15,-8.82473,-2.713461,1.2993027,-0.3858711,-1.3212423,-1.4470167,9.323460507042448,1.9971067054159435,walk
09/07/2020, 21:53:15,-8.60459,-2.7110682,1.308874,-0.3858711,-1.3212423,-1.4470167,9.116030821327415,1.9971067054159435,walk
09/07/2020, 21:53:15,-8.60459,-2.7110682,1.308874,-0.47745445,-1.29682,-1.3725289,9.116030821327415,1.9477013615441507,walk
09/07/2020, 21:53:15,-8.365308,-2.7038896,1.2969099,-0.47745445,-1.29682,-1.3725289,8.886583657277365,1.9477013615441507,walk
09/07/2020, 21:53:15,-8.365308,-2.7038896,1.2969099,-0.57270116,-1.2553023,-1.29682,8.886583657277365,1.8935450170439156,walk
09/07/2020, 21:53:15,-8.133204,-2.696711,1.2490535,-0.57270116,-1.2553023,-1.29682,8.659180096371475,1.8935450170439156,walk
09/07/2020, 21:53:15,-8.133204,-2.696711,1.2490535,-0.66428447,-1.2089001,-1.2186689,8.659180096371475,1.840616003149114,walk
09/07/2020, 21:53:15,-7.9298143,-2.6775684,1.1772687,-0.66428447,-1.2089001,-1.2186689,8.452058321388213,1.840616003149114,walk
09/07/2020, 21:53:15,-7.9298143,-2.6775684,1.1772687,-0.74976224,-1.1588345,-1.1356333,8.452058321388213,1.7873734405833224,walk
09/07/2020, 21:53:15,-7.728817,-2.6344976,1.1150553,-0.74976224,-1.1588345,-1.1356333,8.241270424235092,1.7873734405833224,walk
09/07/2020, 21:53:15,-7.728817,-2.6344976,1.1150553,-0.8315767,-1.1014422,-1.06603,8.241270424235092,1.7438792362731095,walk
09/07/2020, 21:53:15,-7.570891,-2.5986054,1.0767702,-0.8315767,-1.1014422,-1.06603,8.076544626402768,1.7438792362731095,walk
09/07/2020, 21:53:15,-7.570891,-2.5986054,1.0767702,-0.90118,-1.0477134,-0.9976478,8.076544626402768,1.704444187226096,walk
09/07/2020, 21:53:15,-7.432107,-2.5603201,1.0145568,-0.90118,-1.0477134,-0.9976478,7.92595601071254,1.704444187226096,walk
09/07/2020, 21:53:15,-7.432107,-2.5603201,1.0145568,-0.9610145,-0.9927634,-0.93415004,7.92595601071254,1.6678622104180767,walk
09/07/2020, 21:53:15,-7.2789664,-2.536392,1.0193424,-0.9610145,-0.9927634,-0.93415004,7.775326067805184,1.6678622104180767,walk
09/07/2020, 21:53:15,-7.2789664,-2.536392,1.0193424,-1.0123012,-0.93415004,-0.8730945,7.775326067805184,1.630853774791256,walk
09/07/2020, 21:53:15,-7.099505,-2.5339992,1.0432707,-1.0123012,-0.93415004,-0.8730945,7.61002866218864,1.630853774791256,walk
09/07/2020, 21:53:16,-11.609976,-3.940979,1.8305093,2.8427467,-0.7631945,-0.27475002,12.396516375402102,2.9562074385751558,walk
09/07/2020, 21:53:16,-11.609976,-3.940979,1.8305093,2.7523847,-0.88408446,-0.25277,12.396516375402102,2.901916495226097,walk
09/07/2020, 21:53:16,-11.456835,-3.5988052,1.8376877,2.7523847,-0.88408446,-0.25277,12.148561991503268,2.901916495226097,walk
09/07/2020, 21:53:16,-11.456835,-3.5988052,1.8376877,2.5667756,-0.9866578,-0.24055889,12.148561991503268,2.760380221824763,walk
09/07/2020, 21:53:16,-11.255837,-3.182454,1.7898313,2.5667756,-0.9866578,-0.24055889,11.833232299641,2.760380221824763,walk
09/07/2020, 21:53:16,-11.255837,-3.182454,1.7898313,2.2773724,-1.0684723,-0.22712667,11.833232299641,2.5257957906956947,walk
09/07/2020, 21:53:16,-11.02852,-2.7014968,1.6007984,2.2773724,-1.0684723,-0.22712667,11.466860330065341,2.5257957906956947,walk
09/07/2020, 21:53:16,-11.02852,-2.7014968,1.6007984,1.8976067,-1.1563922,-0.22468445,11.466860330065341,2.233525769504633,walk
09/07/2020, 21:53:16,-10.782059,-2.2636101,1.3878372,1.8976067,-1.1563922,-0.22468445,11.104179977030393,2.233525769504633,walk
09/07/2020, 21:53:16,-10.782059,-2.2636101,1.3878372,1.4433534,-1.2638501,-0.24422224,11.104179977030393,1.9339675898008435,walk
09/07/2020, 21:53:16,-10.523634,-1.8376877,1.119841,1.4433534,-1.2638501,-0.24422224,10.74141572021319,1.9339675898008435,walk
09/07/2020, 21:53:16,-10.523634,-1.8376877,1.119841,0.9329289,-1.3798556,-0.2759711,10.74141572021319,1.6883477108753109,walk
09/07/2020, 21:53:16,-10.260424,-1.4452649,0.8877372,0.9329289,-1.3798556,-0.2759711,10.399671234432857,1.6883477108753109,walk
09/07/2020, 21:53:16,-10.260424,-1.4452649,0.8877372,0.4041878,-1.4482379,-0.31504667,10.399671234432857,1.5362340911521968,walk
09/07/2020, 21:53:16,-10.100104,-1.1174482,0.7393822,0.4041878,-1.4482379,-0.31504667,10.188595784941453,1.5362340911521968,walk
09/07/2020, 21:53:16,-10.100104,-1.1174482,0.7393822,-0.12455334,-1.4702178,-0.35656446,10.188595784941453,1.5179565868557638,walk
09/07/2020, 21:53:16,-10.0163555,-0.8542377,0.68195444,-0.12455334,-1.4702178,-0.35656446,10.075820644635307,1.5179565868557638,walk
09/07/2020, 21:53:16,-10.0163555,-0.8542377,0.68195444,-0.63986224,-1.4860923,-0.41273558,10.075820644635307,1.6698038076072081,walk
09/07/2020, 21:53:16,-10.001999,-0.6891329,0.66759753,-0.63986224,-1.4860923,-0.41273558,10.047913847245583,1.6698038076072081,walk
09/07/2020, 21:53:16,-10.001999,-0.6891329,0.66759753,-1.1124322,-1.559359,-0.50554,10.047913847245583,1.9810796414115923,walk
09/07/2020, 21:53:17,-14.959928,-5.1158547,2.4382863,-0.42006224,-2.9294457,-1.57157,15.99739486267468,3.350811400256457,walk
09/07/2020, 21:53:17,-14.244473,-4.4458647,2.1415763,-0.42006224,-2.9294457,-1.57157,15.075048451438695,3.350811400256457,walk
09/07/2020, 21:53:17,-14.244473,-4.4458647,2.1415763,-0.3614489,-2.8903701,-1.5447056,15.075048451438695,3.2971199993554614,walk
09/07/2020, 21:53:17,-13.416556,-3.6873398,1.6749759,-0.3614489,-2.8903701,-1.5447056,14.014492618769713,3.2971199993554614,walk
09/07/2020, 21:53:17,-13.416556,-3.6873398,1.6749759,-0.3504589,-2.8574002,-1.5324945,14.014492618769713,3.2613029216178715,walk
09/07/2020, 21:53:17,-12.535997,-2.8833513,1.2251252,-0.3504589,-2.8574002,-1.5324945,12.92152766471062,3.2613029216178715,walk
09/07/2020, 21:53:17,-12.535997,-2.8833513,1.2251252,-0.3944189,-2.823209,-1.5288311,12.92152766471062,3.234717946966519,walk
09/07/2020, 21:53:17,-11.676974,-2.091327,0.8350951,-0.3944189,-2.823209,-1.5288311,11.89213021209807,3.234717946966519,walk
09/07/2020, 21:53:17,-11.676974,-2.091327,0.8350951,-0.5226356,-2.7743645,-1.5349368,11.89213021209807,3.2134525210438936,walk
09/07/2020, 21:53:17,-10.801202,-1.3950156,0.4642076,-0.5226356,-2.7743645,-1.5349368,10.900803546873906,3.2134525210438936,walk
09/07/2020, 21:53:17,-10.801202,-1.3950156,0.4642076,-0.75098336,-2.7157512,-1.5471479,10.900803546873906,3.21449015527743,walk
09/07/2020, 21:53:17,-9.956535,-0.7920243,0.09810573,-0.75098336,-2.7157512,-1.5471479,9.988469513014994,3.21449015527743,walk
09/07/2020, 21:53:17,-9.956535,-0.7920243,0.09810573,-1.0599245,-2.6400423,-1.5495901,9.988469513014994,3.2395204573936116,walk
09/07/2020, 21:53:17,-9.150154,-0.3684947,-0.05742774,-1.0599245,-2.6400423,-1.5495901,9.157751175228602,3.2395204573936116,walk
09/07/2020, 21:53:17,-9.150154,-0.3684947,-0.05742774,-1.4018356,-2.5130467,-1.5324945,9.157751175228602,3.2602279666939546,walk
09/07/2020, 21:53:17,-8.472985,-0.16510476,-0.078963146,-1.4018356,-2.5130467,-1.5324945,8.474961599106981,3.2602279666939546,walk
09/07/2020, 21:53:17,-8.472985,-0.16510476,-0.078963146,-1.7156612,-2.339649,-1.4836501,8.474961599106981,3.2586297877711234,walk
09/07/2020, 21:53:17,-7.941778,-0.14356937,-0.0023928226,-1.7156612,-2.339649,-1.4836501,7.943076141893585,3.2586297877711234,walk
09/07/2020, 21:53:17,-7.941778,-0.14356937,-0.0023928226,-1.9513357,-2.1430502,-1.4116045,7.943076141893585,3.2238179780676557,walk
09/07/2020, 21:53:17,-7.62114,-0.29910284,0.086141616,-1.9513357,-2.1430502,-1.4116045,7.627493548803734,3.2238179780676557,walk
09/07/2020, 21:53:18,-8.078169,-2.0051854,2.9096723,0.27475002,-0.10379445,-3.8086457,8.817242952838143,3.8199532881503697,walk
09/07/2020, 21:53:18,-8.535198,-2.2995026,3.0269206,0.27475002,-0.10379445,-3.8086457,9.343423828005948,3.8199532881503697,walk
09/07/2020, 21:53:18,-8.535198,-2.2995026,3.0269206,0.16118668,-0.02198,-3.9209878,9.343423828005948,3.924361087204058,walk
09/07/2020, 21:53:18,-9.111869,-2.7589245,3.1657043,0.16118668,-0.02198,-3.9209878,10.032920900811623,3.924361087204058,walk
09/07/2020, 21:53:18,-9.111869,-2.7589245,3.1657043,0.14653334,0.04151778,-3.98937,10.032920900811623,3.9922762431480687,walk
09/07/2020, 21:53:18,-9.79143,-3.3284163,3.3379877,0.14653334,0.04151778,-3.98937,10.867043191399471,3.9922762431480687,walk
09/07/2020, 21:53:18,-9.79143,-3.3284163,3.3379877,0.26864445,0.11844778,-3.999139,10.867043191399471,4.009901872073576,walk
09/07/2020, 21:53:18,-10.514063,-4.074977,3.5318062,0.26864445,0.11844778,-3.999139,11.81628581378106,4.009901872073576,walk
09/07/2020, 21:53:18,-10.514063,-4.074977,3.5318062,0.54461557,0.21491556,-3.955179,11.81628581378106,3.9982790729954694,walk
09/07/2020, 21:53:18,-11.29173,-4.9316072,3.711268,0.54461557,0.21491556,-3.955179,12.868466286292028,3.9982790729954694,walk
09/07/2020, 21:53:18,-11.29173,-4.9316072,3.711268,0.9817734,0.30039334,-3.8684802,12.868466286292028,4.002406054345304,walk
09/07/2020, 21:53:18,-12.136396,-5.749953,3.830909,0.9817734,0.30039334,-3.8684802,13.965311982509505,4.002406054345304,walk
09/07/2020, 21:53:18,-12.136396,-5.749953,3.830909,1.5349368,0.35656446,-3.7329369,13.965311982509505,4.0519114928684825,walk
09/07/2020, 21:53:18,-12.94517,-6.424729,3.751946,1.5349368,0.35656446,-3.7329369,14.930896704104287,4.0519114928684825,walk
09/07/2020, 21:53:18,-12.94517,-6.424729,3.751946,2.1149645,0.34191114,-3.5851824,14.930896704104287,4.176542953666448,walk
09/07/2020, 21:53:18,-13.643875,-6.719046,3.455236,2.1149645,0.34191114,-3.5851824,15.596139412689611,4.176542953666448,walk
09/07/2020, 21:53:18,-13.643875,-6.719046,3.455236,2.6205046,0.22224224,-3.4349856,15.596139412689611,4.326148679117123,walk
09/07/2020, 21:53:18,-14.160725,-6.6185474,3.1633115,2.6205046,0.22224224,-3.4349856,15.947972663182144,4.326148679117123,walk
09/07/2020, 21:53:18,-14.160725,-6.6185474,3.1633115,3.008818,0.048844445,-3.283568,15.947972663182144,4.453895956558167,walk
09/07/2020, 21:53:18,-14.404793,-6.3122663,2.928815,3.008818,0.048844445,-3.283568,15.99752225553234,4.453895956558167,walk
09/07/2020, 21:53:19,-9.942178,-0.64606214,2.2061825,-0.018316668,1.1392968,0.9597934,10.204486085935182,1.4898107194968873,walk
09/07/2020, 21:53:19,-9.942178,-0.64606214,2.2061825,-0.41884112,1.0819045,0.8364611,10.204486085935182,1.4302491099903938,walk
09/07/2020, 21:53:19,-9.853643,-0.3684947,2.0578275,-0.41884112,1.0819045,0.8364611,10.072970308700333,1.4302491099903938,walk
09/07/2020, 21:53:19,-9.853643,-0.3684947,2.0578275,-0.8486723,1.0232911,0.73999333,10.072970308700333,1.5214990815347706,walk
09/07/2020, 21:53:19,-9.829716,-0.2440679,2.0291135,-0.8486723,1.0232911,0.73999333,10.039929390875304,1.5214990815347706,walk
09/07/2020, 21:53:19,-9.829716,-0.2440679,2.0291135,-1.2809457,0.9536878,0.6691689,10.039929390875304,1.7315106636649318,walk
09/07/2020, 21:53:19,-9.860822,-0.3278167,2.1224337,-1.2809457,0.9536878,0.6691689,10.091976689833468,1.7315106636649318,walk
09/07/2020, 21:53:19,-9.860822,-0.3278167,2.1224337,-1.7034501,0.8816423,0.6435256,10.091976689833468,2.0231560739616654,walk
09/07/2020, 21:53:19,-9.882358,-0.567099,2.2707887,-1.7034501,0.8816423,0.6435256,10.15574094350065,2.0231560739616654,walk
09/07/2020, 21:53:19,-9.882358,-0.567099,2.2707887,-2.0929844,0.7986067,0.6618422,10.15574094350065,2.3358920442049387,walk
09/07/2020, 21:53:19,-9.925428,-0.9236295,2.524428,-2.0929844,0.7986067,0.6618422,10.28299355271825,2.3358920442049387,walk
09/07/2020, 21:53:19,-9.925428,-0.9236295,2.524428,-2.4361167,0.6899278,0.7204556,10.28299355271825,2.632436361655604,walk
09/07/2020, 21:53:19,-9.8727865,-1.3423735,2.8570302,-2.4361167,0.6899278,0.7204556,10.365158059166777,2.632436361655604,walk
09/07/2020, 21:53:19,-9.8727865,-1.3423735,2.8570302,-2.7096457,0.57636446,0.79616445,10.365158059166777,2.882404188288928,walk
09/07/2020, 21:53:19,-9.671789,-1.820938,3.3116665,-2.7096457,0.57636446,0.79616445,10.383951840952824,2.882404188288928,walk
09/07/2020, 21:53:19,-9.671789,-1.820938,3.3116665,-2.9086869,0.45425335,0.88042116,10.383951840952824,3.0727751086487545,walk
09/07/2020, 21:53:19,-9.339187,-2.3353949,3.739982,-2.9086869,0.45425335,0.88042116,10.327726822080674,3.0727751086487545,walk
09/07/2020, 21:53:19,-9.339187,-2.3353949,3.739982,-3.0442302,0.3602278,0.9683412,10.327726822080674,3.2147762498935517,walk
09/07/2020, 21:53:19,-8.9013,-2.914458,4.1371903,-3.0442302,0.3602278,0.9683412,10.239314377535718,3.2147762498935517,walk
09/07/2020, 21:53:19,-8.9013,-2.914458,4.1371903,-3.1004012,0.28085557,1.0623667,10.239314377535718,3.2893753628239373,walk
09/07/2020, 21:53:20,-13.093526,-4.273581,1.4380864,-0.8083756,0.2942878,2.3555233,13.848177042869466,2.5077014690362707,walk
09/07/2020, 21:53:20,-12.452249,-4.412365,1.8448663,-0.8083756,0.2942878,2.3555233,13.339077578476191,2.5077014690362707,walk
09/07/2020, 21:53:20,-12.452249,-4.412365,1.8448663,-0.73633003,0.22102112,2.4019256,13.339077578476191,2.5219592907606465,walk
09/07/2020, 21:53:20,-11.475977,-4.5296135,2.4215364,-0.73633003,0.22102112,2.4019256,12.572958442185174,2.5219592907606465,walk
09/07/2020, 21:53:20,-11.475977,-4.5296135,2.4215364,-0.6764956,0.27963445,2.4300113,12.572958442185174,2.537872439678845,walk
09/07/2020, 21:53:20,-10.449456,-4.5415773,2.9120653,-0.6764956,0.27963445,2.4300113,11.7599823145038,2.537872439678845,walk
09/07/2020, 21:53:20,-10.449456,-4.5415773,2.9120653,-0.6142189,0.40540892,2.426348,11.7599823145038,2.535505021358739,walk
09/07/2020, 21:53:20,-9.592826,-4.426722,3.211168,-0.6142189,0.40540892,2.426348,11.04218170940938,2.535505021358739,walk
09/07/2020, 21:53:20,-9.592826,-4.426722,3.211168,-0.53973114,0.53851,2.3677344,11.04218170940938,2.487462380990139,walk
09/07/2020, 21:53:20,-8.927621,-4.2352962,3.3164523,-0.53973114,0.53851,2.3677344,10.423003629482247,2.487462380990139,walk
09/07/2020, 21:53:20,-8.927621,-4.2352962,3.3164523,-0.46402225,0.7021389,2.2688246,10.423003629482247,2.4198926931191123,walk
09/07/2020, 21:53:20,-8.559127,-3.95055,3.2327034,-0.46402225,0.7021389,2.2688246,9.965734795275292,2.4198926931191123,walk
09/07/2020, 21:53:20,-8.559127,-3.95055,3.2327034,-0.40785113,0.8853056,2.1613667,9.965734795275292,2.370994419421352,walk
09/07/2020, 21:53:20,-8.559127,-3.6658044,3.0580273,-0.40785113,0.8853056,2.1613667,9.800423718790226,2.370994419421352,walk
09/07/2020, 21:53:20,-8.559127,-3.6658044,3.0580273,-0.37854445,1.0513767,2.0600145,9.800423718790226,2.343576017637296,walk
09/07/2020, 21:53:20,-8.9108715,-3.4025939,2.8761728,-0.37854445,1.0513767,2.0600145,9.962612397024394,2.343576017637296,walk
09/07/2020, 21:53:20,-8.9108715,-3.4025939,2.8761728,-0.36877558,1.1698245,1.9696523,9.962612397024394,2.3203480139255515,walk
09/07/2020, 21:53:20,-9.554541,-3.2470603,2.7158537,-0.36877558,1.1698245,1.9696523,10.45028748819916,2.3203480139255515,walk
09/07/2020, 21:53:20,-9.554541,-3.2470603,2.7158537,-0.3382478,1.2003523,1.8805112,10.45028748819916,2.256452855573874,walk
09/07/2020, 21:53:20,-10.375279,-3.2805598,2.6225336,-0.3382478,1.2003523,1.8805112,11.19313083592833,2.256452855573874,walk
09/07/2020, 21:53:21,-13.304094,-4.8191447,-0.1052842,-2.4861822,-1.6680379,3.5619812,14.150412226571275,4.653080966413328,walk
09/07/2020, 21:53:21,-13.304094,-4.8191447,-0.1052842,-2.5350268,-1.8048023,3.6096046,14.150412226571275,4.765807119855657,walk
09/07/2020, 21:53:21,-12.421143,-4.800002,-0.014356935,-2.5350268,-1.8048023,3.6096046,13.316343687713594,4.765807119855657,walk
09/07/2020, 21:53:21,-12.421143,-4.800002,-0.014356935,-2.636379,-1.8133501,3.6486802,13.316343687713594,4.852999077248272,walk
09/07/2020, 21:53:21,-11.466406,-4.6468616,0.13878371,-2.636379,-1.8133501,3.6486802,12.372996676394388,4.852999077248272,walk
09/07/2020, 21:53:21,-11.466406,-4.6468616,0.13878371,-2.8073347,-1.7107767,3.6755445,12.372996676394388,4.931278956546302,walk
09/07/2020, 21:53:21,-10.63849,-4.4004006,0.16271193,-2.8073347,-1.7107767,3.6755445,11.513794532819848,4.931278956546302,walk
09/07/2020, 21:53:21,-10.63849,-4.4004006,0.16271193,-3.0014913,-1.5630223,3.6743236,11.513794532819848,4.995261981168928,walk
09/07/2020, 21:53:21,-10.001999,-4.115655,0.12203395,-3.0014913,-1.5630223,3.6743236,10.816352894491542,4.995261981168928,walk
09/07/2020, 21:53:21,-10.001999,-4.115655,0.12203395,-3.1907635,-1.4225945,3.6401324,10.816352894491542,5.0453256463269005,walk
09/07/2020, 21:53:21,-9.662218,-3.871587,0.059820566,-3.1907635,-1.4225945,3.6401324,10.409189362617294,5.0453256463269005,walk
