DATE,TIME,ax,ay,az,gx,gy,gz,ma,mg,label
10/07/2020, 17:19:58,-3.818945,-1.9310079,9.111869,-0.11234222,0.11600556,0.07204556,10.066741570202261,0.1768293753054506,walk
10/07/2020, 17:19:58,-3.8691943,-2.07697,9.064013,-0.11234222,0.11600556,0.07204556,10.071781976824276,0.1768293753054506,walk
10/07/2020, 17:19:58,-3.8691943,-2.07697,9.064013,-0.07570889,0.12943779,0.07326667,10.071781976824276,0.16689512289614183,walk
10/07/2020, 17:19:58,-3.952943,-2.1918256,9.049655,-0.07570889,0.12943779,0.07326667,10.115637080153414,0.16689512289614183,walk
10/07/2020, 17:19:58,-3.952943,-2.1918256,9.049655,-0.007326667,0.15386,0.04396,10.115637080153414,0.1601844630928747,walk
10/07/2020, 17:19:58,-3.9840498,-2.210968,9.056833,-0.007326667,0.15386,0.04396,10.138405258731202,0.1601844630928747,walk
10/07/2020, 17:19:58,-3.9840498,-2.210968,9.056833,0.08425667,0.21003112,0.06716111,10.138405258731202,0.236056929507348,walk
10/07/2020, 17:19:58,-3.979264,-2.2755744,9.107083,0.08425667,0.21003112,0.06716111,10.195672994701908,0.236056929507348,walk
10/07/2020, 17:19:58,-3.979264,-2.2755744,9.107083,0.20392556,0.2735289,0.24055889,10.195672994701908,0.4174593129165808,walk
10/07/2020, 17:19:58,-4.421936,-2.0147567,9.109476,0.20392556,0.2735289,0.24055889,10.32450083062164,0.4174593129165808,walk
10/07/2020, 17:19:58,-4.421936,-2.0147567,9.109476,0.1856089,0.26009667,0.42372558,10.32450083062164,0.5307017069964584,walk
10/07/2020, 17:19:58,-4.8215375,-2.103291,9.32483,0.1856089,0.26009667,0.42372558,10.706237086301496,0.5307017069964584,walk
10/07/2020, 17:19:58,-4.8215375,-2.103291,9.32483,0.039075557,0.23689556,0.46768558,10.706237086301496,0.5257149494431932,walk
10/07/2020, 17:19:58,-5.178068,-2.3569303,9.559326,0.039075557,0.23689556,0.46768558,11.124218038653176,0.5257149494431932,walk
10/07/2020, 17:19:58,-5.178068,-2.3569303,9.559326,-0.10379445,0.20026223,0.41029334,11.124218038653176,0.46820815357380313,walk
10/07/2020, 17:19:58,-5.532206,-2.6392834,9.707682,-0.10379445,0.20026223,0.41029334,11.4808625098335,0.46820815357380313,walk
10/07/2020, 17:19:58,-5.532206,-2.6392834,9.707682,-0.22712667,0.17339778,0.40296668,11.4808625098335,0.49399945257336897,walk
10/07/2020, 17:19:58,-5.6350975,-2.8666015,9.84168,-0.22712667,0.17339778,0.40296668,11.697452058714065,0.49399945257336897,walk
10/07/2020, 17:19:58,-5.6350975,-2.8666015,9.84168,-0.34679556,0.15386,0.46524334,11.697452058714065,0.6003260989881274,walk
10/07/2020, 17:19:58,-5.6877394,-3.17049,9.877572,-0.34679556,0.15386,0.46524334,11.830841726938226,0.6003260989881274,walk
10/07/2020, 17:19:59,-9.961321,-6.218946,2.3688943,1.3236845,0.6655056,2.0954268,11.979768908730925,2.5662914266733163,walk
10/07/2020, 17:19:59,-9.834501,-6.309873,2.4239295,1.3236845,0.6655056,2.0954268,11.933454979292094,2.5662914266733163,walk
10/07/2020, 17:19:59,-9.834501,-6.309873,2.4239295,1.5312734,0.63742,2.0355923,11.933454979292094,2.6257833986243178,walk
10/07/2020, 17:19:59,-9.678967,-6.381658,2.4765713,1.5312734,0.63742,2.0355923,11.855014834430802,2.6257833986243178,walk
10/07/2020, 17:19:59,-9.678967,-6.381658,2.4765713,1.73642,0.60811335,1.9525567,11.855014834430802,2.682803415275122,walk
10/07/2020, 17:19:59,-9.501899,-6.4055862,2.5220351,1.73642,0.60811335,1.9525567,11.733638669209554,2.682803415275122,walk
10/07/2020, 17:19:59,-9.501899,-6.4055862,2.5220351,1.9501145,0.58979666,1.8548678,11.733638669209554,2.755238871001383,walk
10/07/2020, 17:19:59,-9.257831,-6.391229,2.565106,1.9501145,0.58979666,1.8548678,11.538414372118615,2.755238871001383,walk
10/07/2020, 17:19:59,-9.257831,-6.391229,2.565106,2.1662512,0.5775856,1.7339778,11.538414372118615,2.8342420994206665,walk
10/07/2020, 17:19:59,-8.992228,-6.398408,2.6799614,2.1662512,0.5775856,1.7339778,11.35702310647814,2.8342420994206665,walk
10/07/2020, 17:19:59,-8.992228,-6.398408,2.6799614,2.3750613,0.5641534,1.5935501,11.35702310647814,2.9152336027209644,walk
10/07/2020, 17:19:59,-8.736196,-6.309873,2.845066,2.3750613,0.5641534,1.5935501,11.145851805617687,2.9152336027209644,walk
10/07/2020, 17:19:59,-8.736196,-6.309873,2.845066,2.5606701,0.56171113,1.4335845,11.145851805617687,2.9879282670588587,walk
10/07/2020, 17:19:59,-8.489735,-6.209375,2.9742785,2.5606701,0.56171113,1.4335845,10.930611301573888,2.9879282670588587,walk
10/07/2020, 17:19:59,-8.489735,-6.209375,2.9742785,2.6827812,0.56659555,1.2699556,10.930611301573888,3.0217764491879446,walk
10/07/2020, 17:19:59,-8.281559,-5.9748783,3.0843484,2.6827812,0.56659555,1.2699556,10.667548708409699,3.0217764491879446,walk
10/07/2020, 17:19:59,-8.281559,-5.9748783,3.0843484,2.7120879,0.55438447,1.1124322,10.667548708409699,2.9833317356652547,walk
10/07/2020, 17:19:59,-8.13799,-5.65424,3.2087753,2.7120879,0.55438447,1.1124322,10.41602378445777,2.9833317356652547,walk
10/07/2020, 17:19:59,-8.13799,-5.65424,3.2087753,2.6437056,0.52752,0.9329289,10.41602378445777,2.8526852357737775,walk
10/07/2020, 17:19:59,-8.1020975,-5.288138,3.2733815,2.6437056,0.52752,0.9329289,10.213883342078011,2.8526852357737775,walk
10/07/2020, 17:20:00,-9.923036,-3.318845,2.2851455,1.5092934,1.0745778,2.5069413,10.709960707614528,3.117280693121675,walk
10/07/2020, 17:20:00,-9.923036,-3.318845,2.2851455,1.4995245,1.1283067,2.2932467,10.709960707614528,2.963212851120402,walk
10/07/2020, 17:20:00,-10.3681,-3.1872396,2.2660031,1.4995245,1.1283067,2.2932467,11.081099576275601,2.963212851120402,walk
10/07/2020, 17:20:00,-10.3681,-3.1872396,2.2660031,1.4665545,1.1710457,2.09909,11.081099576275601,2.815725368837495,walk
10/07/2020, 17:20:00,-10.77488,-3.0412776,2.254039,1.4665545,1.1710457,2.09909,11.420512667773721,2.815725368837495,walk
10/07/2020, 17:20:00,-10.77488,-3.0412776,2.254039,1.3786345,1.1930256,1.9293556,11.420512667773721,2.6544973392476963,walk
10/07/2020, 17:20:00,-11.047662,-2.9503503,2.2444677,1.3786345,1.1930256,1.9293556,11.653026776365909,2.6544973392476963,walk
10/07/2020, 17:20:00,-11.047662,-2.9503503,2.2444677,1.2516389,1.1918045,1.7864857,11.653026776365909,2.485664699635819,walk
10/07/2020, 17:20:00,-11.16491,-2.955136,2.3306093,1.2516389,1.1918045,1.7864857,11.782181093583484,2.485664699635819,walk
10/07/2020, 17:20:00,-11.16491,-2.955136,2.3306093,1.0977789,1.1820356,1.6301835,11.782181093583484,2.293430778293449,walk
10/07/2020, 17:20:00,-11.162518,-3.0460632,2.4454648,1.0977789,1.1820356,1.6301835,11.826267257933253,2.293430778293449,walk
10/07/2020, 17:20:00,-11.162518,-3.0460632,2.4454648,0.92560226,1.17593,1.4824289,11.826267257933253,2.106453518685646,walk
10/07/2020, 17:20:00,-11.090733,-3.2446675,2.5387847,0.92560226,1.17593,1.4824289,11.831214831406495,2.106453518685646,walk
10/07/2020, 17:20:00,-11.090733,-3.2446675,2.5387847,0.7766267,1.1710457,1.3578756,11.831214831406495,1.9540529897103307,walk
10/07/2020, 17:20:00,-11.085947,-3.4983068,2.6105695,0.7766267,1.1710457,1.3578756,11.914337783611515,1.9540529897103307,walk
10/07/2020, 17:20:00,-11.085947,-3.4983068,2.6105695,0.6520734,1.1539501,1.2577446,11.914337783611515,1.8272169751388165,walk
10/07/2020, 17:20:00,-11.150554,-3.751946,2.6536403,0.6520734,1.1539501,1.2577446,12.060420936032441,1.8272169751388165,walk
10/07/2020, 17:20:00,-11.150554,-3.751946,2.6536403,0.54950005,1.130749,1.1771512,12.060420936032441,1.722274231958417,walk
10/07/2020, 17:20:00,-11.145768,-3.991228,2.6823542,0.54950005,1.130749,1.1771512,12.138907442348788,1.722274231958417,walk
10/07/2020, 17:20:00,-11.145768,-3.991228,2.6823542,0.46158,1.0941156,1.1124322,12.138907442348788,1.6271602793137072,walk
10/07/2020, 17:20:01,-8.963513,-2.7972097,2.333002,-0.6557367,-0.037854444,2.405589,9.675321859949678,2.49364843042757,walk
10/07/2020, 17:20:01,-9.075976,-2.9312077,2.333002,-0.6557367,-0.037854444,2.405589,9.818768974904085,2.49364843042757,walk
10/07/2020, 17:20:01,-9.075976,-2.9312077,2.333002,-0.5507211,-0.06349778,2.6058512,9.818768974904085,2.6641670454393784,walk
10/07/2020, 17:20:01,-9.107083,-3.0197423,2.3018954,-0.5507211,-0.06349778,2.6058512,9.866941380607178,2.6641670454393784,walk
10/07/2020, 17:20:01,-9.107083,-3.0197423,2.3018954,-0.4713489,-0.081814446,2.7804701,9.866941380607178,2.821325496897409,walk
10/07/2020, 17:20:01,-9.066405,-3.1058838,2.2444677,-0.4713489,-0.081814446,2.7804701,9.842959657509727,2.821325496897409,walk
10/07/2020, 17:20:01,-9.066405,-3.1058838,2.2444677,-0.42128336,-0.09524667,2.9355512,9.842959657509727,2.9671555828808986,walk
10/07/2020, 17:20:01,-9.044869,-3.211168,2.2325034,-0.42128336,-0.09524667,2.9355512,9.854203906049896,2.9671555828808986,walk
10/07/2020, 17:20:01,-9.044869,-3.211168,2.2325034,-0.36633334,-0.098910004,3.0894113,9.854203906049896,3.112626740718879,walk
10/07/2020, 17:20:01,-9.030513,-3.3140593,2.2205393,-0.36633334,-0.098910004,3.0894113,9.872382959136335,3.112626740718879,walk
10/07/2020, 17:20:01,-9.030513,-3.3140593,2.2205393,-0.30894113,-0.08792,3.23106,9.872382959136335,3.246986826451465,walk
10/07/2020, 17:20:01,-9.12144,-3.4504502,2.2636101,-0.30894113,-0.08792,3.23106,10.011503569386148,3.246986826451465,walk
10/07/2020, 17:20:01,-9.12144,-3.4504502,2.2636101,-0.24300112,-0.07326667,3.3653824,10.011503569386148,3.374939476252875,walk
10/07/2020, 17:20:01,-9.281759,-3.574877,2.3401806,-0.24300112,-0.07326667,3.3653824,10.217986403416367,3.374939476252875,walk
10/07/2020, 17:20:01,-9.281759,-3.574877,2.3401806,-0.16362889,-0.051286668,3.49482,10.217986403416367,3.499024491641801,walk
10/07/2020, 17:20:01,-9.45165,-3.6993039,2.3952155,-0.16362889,-0.051286668,3.49482,10.428594720292624,3.499024491641801,walk
10/07/2020, 17:20:01,-9.45165,-3.6993039,2.3952155,-0.081814446,-0.037854444,3.6181524,10.428594720292624,3.6192752323185466,walk
10/07/2020, 17:20:01,-9.640682,-3.8333018,2.495714,-0.081814446,-0.037854444,3.6181524,10.670779931601475,3.6192752323185466,walk
10/07/2020, 17:20:01,-9.640682,-3.8333018,2.495714,0.0024422223,-0.023201112,3.7256103,10.670779931601475,3.725683298013944,walk
10/07/2020, 17:20:01,-9.803394,-3.9050865,2.5962126,0.0024422223,-0.023201112,3.7256103,10.867224155761585,3.725683298013944,walk
10/07/2020, 17:20:02,-11.365908,-4.792824,-0.1698904,1.1771512,0.13188,-1.3847401,12.336283062067608,1.8222465457396464,walk
10/07/2020, 17:20:02,-11.375479,-4.17069,-0.4881358,1.1771512,0.13188,-1.3847401,12.125776214908862,1.8222465457396464,walk
10/07/2020, 17:20:02,-11.375479,-4.17069,-0.4881358,1.0281756,0.051286668,-1.4189311,12.125776214908862,1.7530376245660564,walk
10/07/2020, 17:20:02,-11.066805,-3.603591,-0.5910272,1.0281756,0.051286668,-1.4189311,11.653726930822346,1.7530376245660564,walk
10/07/2020, 17:20:02,-11.066805,-3.603591,-0.5910272,0.82913446,-0.007326667,-1.4409112,11.653726930822346,1.6624507964818644,walk
10/07/2020, 17:20:02,-10.540383,-3.1609187,-0.5288138,0.82913446,-0.007326667,-1.4409112,11.016838568870664,1.6624507964818644,walk
10/07/2020, 17:20:02,-10.540383,-3.1609187,-0.5288138,0.59468114,-0.017095556,-1.4799867,11.016838568870664,1.5950857209465463,walk
10/07/2020, 17:20:02,-10.0163555,-2.9072795,-0.32303107,0.59468114,-0.017095556,-1.4799867,10.43474968101467,1.5950857209465463,walk
10/07/2020, 17:20:02,-10.0163555,-2.9072795,-0.32303107,0.34557447,0.024422223,-1.5080723,10.43474968101467,1.5473526070730175,walk
10/07/2020, 17:20:02,-9.578469,-2.8761728,-0.078963146,0.34557447,0.024422223,-1.5080723,10.001283853783763,1.5473526070730175,walk
10/07/2020, 17:20:02,-9.578469,-2.8761728,-0.078963146,0.11356334,0.078151114,-1.5019667,10.001283853783763,1.5082798946448606,walk
10/07/2020, 17:20:02,-9.322437,-2.9599216,0.15314065,0.11356334,0.078151114,-1.5019667,9.78225050209548,1.5082798946448606,walk
10/07/2020, 17:20:02,-9.322437,-2.9599216,0.15314065,-0.089141116,0.117226675,-1.4751023,9.78225050209548,1.4824355106650882,walk
10/07/2020, 17:20:02,-9.253045,-3.117848,0.3182454,-0.089141116,0.117226675,-1.4751023,9.769396044879644,1.4824355106650882,walk
10/07/2020, 17:20:02,-9.253045,-3.117848,0.3182454,-0.2515489,0.123332225,-1.4323634,9.769396044879644,1.4595042183989066,walk
10/07/2020, 17:20:02,-9.281759,-3.3403804,0.40438703,-0.2515489,0.123332225,-1.4323634,9.872827623610847,1.4595042183989066,walk
10/07/2020, 17:20:02,-9.281759,-3.3403804,0.40438703,-0.3834289,0.10135223,-1.3835189,9.872827623610847,1.4392409938404473,walk
10/07/2020, 17:20:02,-9.2793665,-3.6275191,0.50488555,-0.3834289,0.10135223,-1.3835189,9.97599353358787,1.4392409938404473,walk
10/07/2020, 17:20:02,-9.2793665,-3.6275191,0.50488555,-0.5018767,0.078151114,-1.3310112,9.97599353358787,1.424632788294806,walk
10/07/2020, 17:20:02,-9.183653,-3.8787656,0.59342,-0.5018767,0.078151114,-1.3310112,9.9868138041456,1.424632788294806,walk
10/07/2020, 17:20:03,-10.530812,-6.0107703,1.3040884,-0.46524334,-0.47501224,-3.4813879,12.195409514021774,3.5443122581311965,walk
10/07/2020, 17:20:03,-10.042677,-5.759524,1.3998013,-0.46524334,-0.47501224,-3.4813879,11.661342914825527,3.5443122581311965,walk
10/07/2020, 17:20:03,-10.042677,-5.759524,1.3998013,-0.42128336,-0.46646446,-3.405679,11.661342914825527,3.4631947867970814,walk
10/07/2020, 17:20:03,-9.516255,-5.5513487,1.3950156,-0.42128336,-0.46646446,-3.405679,11.105073488540537,3.4631947867970814,walk
10/07/2020, 17:20:03,-9.516255,-5.5513487,1.3950156,-0.40174556,-0.49455002,-3.3519502,11.105073488540537,3.4119714459286032,walk
10/07/2020, 17:20:03,-9.114262,-5.493921,1.3304094,-0.40174556,-0.49455002,-3.3519502,10.724873891625899,3.4119714459286032,walk
10/07/2020, 17:20:03,-9.114262,-5.493921,1.3304094,-0.3284789,-0.5250778,-3.283568,10.724873891625899,3.3414702296824803,walk
10/07/2020, 17:20:03,-8.810373,-5.4723854,1.3375878,-0.3284789,-0.5250778,-3.283568,10.457476801083263,3.3414702296824803,walk
10/07/2020, 17:20:03,-8.810373,-5.4723854,1.3375878,-0.23567446,-0.5128667,-3.1565723,10.457476801083263,3.206637432898765,walk
10/07/2020, 17:20:03,-8.544769,-5.4125648,1.4093726,-0.23567446,-0.5128667,-3.1565723,10.212505590070998,3.206637432898765,walk
10/07/2020, 17:20:03,-8.544769,-5.4125648,1.4093726,-0.16362889,-0.5092034,-3.0137024,10.212505590070998,3.0607947663185553,walk
10/07/2020, 17:20:03,-8.185846,-5.319245,1.457229,-0.16362889,-0.5092034,-3.0137024,9.870459078830878,3.0607947663185553,walk
10/07/2020, 17:20:03,-8.185846,-5.319245,1.457229,-0.106236674,-0.5690378,-2.9025812,9.870459078830878,2.9597411968299188,walk
10/07/2020, 17:20:03,-7.726424,-5.2426744,1.4931214,-0.106236674,-0.5690378,-2.9025812,9.455827674215433,2.9597411968299188,walk
10/07/2020, 17:20:03,-7.726424,-5.2426744,1.4931214,0.0012211112,-0.62643003,-2.7975657,9.455827674215433,2.8668431972335036,walk
10/07/2020, 17:20:03,-7.1473613,-5.2498527,1.5409778,0.0012211112,-0.62643003,-2.7975657,9.001129865712246,2.8668431972335036,walk
10/07/2020, 17:20:03,-7.1473613,-5.2498527,1.5409778,0.19049335,-0.63619894,-2.6412635,9.001129865712246,2.723473811168451,walk
10/07/2020, 17:20:03,-6.5539412,-5.204389,1.5146568,0.19049335,-0.63619894,-2.6412635,8.504939560602967,2.723473811168451,walk
10/07/2020, 17:20:03,-6.5539412,-5.204389,1.5146568,0.42372558,-0.6007867,-2.449549,8.504939560602967,2.557494498765815,walk
10/07/2020, 17:20:03,-6.0011992,-4.9698925,1.3974084,0.42372558,-0.6007867,-2.449549,7.916247469939009,2.557494498765815,walk
10/07/2020, 17:20:04,-8.4705925,-4.792824,3.6466618,0.40785113,-0.42983112,-2.658359,10.393278556698345,2.723595083018276,walk
10/07/2020, 17:20:04,-8.4705925,-4.792824,3.6466618,0.3724389,-0.3724389,-2.6217256,10.393278556698345,2.674110391843863,walk
10/07/2020, 17:20:04,-8.319844,-4.6492543,3.2063823,0.3724389,-0.3724389,-2.6217256,10.055658174300591,2.674110391843863,walk
10/07/2020, 17:20:04,-8.319844,-4.6492543,3.2063823,0.22468445,-0.3370267,-2.5521224,10.055658174300591,2.584066291689511,walk
10/07/2020, 17:20:04,-8.037491,-4.685147,2.629712,0.22468445,-0.3370267,-2.5521224,9.667845957168703,2.584066291689511,walk
10/07/2020, 17:20:04,-8.037491,-4.685147,2.629712,0.035412222,-0.2845189,-2.49473,9.667845957168703,2.5111516840114905,walk
10/07/2020, 17:20:04,-7.769495,-4.962714,1.9214365,0.035412222,-0.2845189,-2.49473,9.41729808962705,2.5111516840114905,walk
10/07/2020, 17:20:04,-7.769495,-4.962714,1.9214365,-0.12943779,-0.20881,-2.4959512,9.41729808962705,2.508012765020178,walk
10/07/2020, 17:20:04,-7.5326056,-5.4412785,1.1724831,-0.12943779,-0.20881,-2.4959512,9.366022404992448,2.508012765020178,walk
10/07/2020, 17:20:04,-7.5326056,-5.4412785,1.1724831,-0.13432223,-0.13188,-2.5215945,9.366022404992448,2.5286110298488107,walk
10/07/2020, 17:20:04,-7.223932,-5.814559,0.9619147,-0.13432223,-0.13188,-2.5215945,9.323066372599998,2.5286110298488107,walk
10/07/2020, 17:20:04,-7.223932,-5.814559,0.9619147,0.07937223,-0.03052778,-2.4874034,9.323066372599998,2.4888566721012295,walk
10/07/2020, 17:20:04,-6.7836523,-6.013163,0.89730847,0.07937223,-0.03052778,-2.4874034,9.109403462109094,2.4888566721012295,walk
10/07/2020, 17:20:04,-6.7836523,-6.013163,0.89730847,0.3382478,0.098910004,-2.405589,9.109403462109094,2.431265864289024,walk
10/07/2020, 17:20:04,-6.3074803,-6.5108705,0.14356937,0.3382478,0.098910004,-2.405589,9.066220516061946,2.431265864289024,walk
10/07/2020, 17:20:04,-6.3074803,-6.5108705,0.14356937,0.5092034,0.25277,-2.4104733,9.066220516061946,2.4766030178354015,walk
10/07/2020, 17:20:04,-5.977271,-6.95115,-0.7465607,0.5092034,0.25277,-2.4104733,9.198021957312763,2.4766030178354015,walk
10/07/2020, 17:20:04,-5.977271,-6.95115,-0.7465607,0.65451556,0.44448447,-2.4971724,9.198021957312763,2.619508893671033,walk
10/07/2020, 17:20:04,-5.6781683,-7.1569324,-1.6127625,0.65451556,0.44448447,-2.4971724,9.27708352070866,2.619508893671033,walk
10/07/2020, 17:20:04,-5.6781683,-7.1569324,-1.6127625,0.55438447,0.6386411,-2.5215945,9.27708352070866,2.6596322236062027,walk
10/07/2020, 17:20:05,-3.0364919,-4.371687,1.9357935,3.3849201,1.3175789,3.0344613,5.663852583848309,4.733038511004615,walk
10/07/2020, 17:20:05,-3.0364919,-4.371687,1.9357935,3.58274,1.4433534,3.1968691,5.663852583848309,5.013907432623875,walk
10/07/2020, 17:20:05,-3.199204,-4.17069,1.2897314,3.58274,1.4433534,3.1968691,5.412297907919238,5.013907432623875,walk
10/07/2020, 17:20:05,-3.199204,-4.17069,1.2897314,3.5986147,1.4751023,3.2591457,5.412297907919238,5.074247279240083,walk
10/07/2020, 17:20:05,-3.5892339,-4.6803613,0.92602235,3.5986147,1.4751023,3.2591457,5.970418647947684,5.074247279240083,walk
10/07/2020, 17:20:05,-3.5892339,-4.6803613,0.92602235,3.3910258,1.4726601,3.2591457,5.970418647947684,4.928469787962217,walk
10/07/2020, 17:20:05,-4.091727,-6.0753765,1.0073783,3.3910258,1.4726601,3.2591457,7.393729702043956,4.928469787962217,walk
10/07/2020, 17:20:05,-4.091727,-6.0753765,1.0073783,2.9086869,1.5776756,3.229839,7.393729702043956,4.624000444209709,walk
10/07/2020, 17:20:05,-4.615755,-7.207182,1.4069797,2.9086869,1.5776756,3.229839,8.673422517636597,4.624000444209709,walk
10/07/2020, 17:20:05,-4.615755,-7.207182,1.4069797,2.262719,1.6729223,3.3263068,8.673422517636597,4.356935025839501,walk
10/07/2020, 17:20:05,-5.45085,-7.7407813,3.4217365,2.262719,1.6729223,3.3263068,10.066764207391946,4.356935025839501,walk
10/07/2020, 17:20:05,-5.45085,-7.7407813,3.4217365,1.8585312,1.7498523,3.2676935,10.066764207391946,4.146557893761413,walk
10/07/2020, 17:20:05,-5.285745,-7.7623167,3.1106694,1.8585312,1.7498523,3.2676935,9.892872499604827,4.146557893761413,walk
10/07/2020, 17:20:05,-5.285745,-7.7623167,3.1106694,1.2369856,1.8976067,3.3324122,9.892872499604827,4.029393992422257,walk
10/07/2020, 17:20:05,-4.938786,-7.568498,3.1274192,1.2369856,1.8976067,3.3324122,9.563185793599157,4.029393992422257,walk
10/07/2020, 17:20:05,-4.938786,-7.568498,3.1274192,0.42983112,1.9342401,3.4301012,9.563185793599157,3.9612666543211597,walk
10/07/2020, 17:20:05,-4.6564326,-6.893722,2.9168508,0.42983112,1.9342401,3.4301012,8.815542368405561,3.9612666543211597,walk
10/07/2020, 17:20:05,-4.6564326,-6.893722,2.9168508,-0.38953447,1.8719634,3.5094736,8.815542368405561,3.996547096272639,walk
10/07/2020, 17:20:05,-4.551149,-6.448657,3.0269206,-0.38953447,1.8719634,3.5094736,8.453424268093343,3.996547096272639,walk
10/07/2020, 17:20:05,-4.551149,-6.448657,3.0269206,-1.1734878,1.7571789,3.6157103,8.453424268093343,4.187852903907392,walk
10/07/2020, 17:20:06,-9.755538,-5.1900325,2.2372892,0.48600224,-0.047623336,2.843968,11.274414463632658,2.885588268501667,walk
10/07/2020, 17:20:06,-9.755538,-5.1900325,2.2372892,0.5336256,-0.05617111,2.7768068,11.274414463632658,2.8281739084370394,walk
10/07/2020, 17:20:06,-9.710074,-5.2139606,2.4143581,0.5336256,-0.05617111,2.7768068,11.282732656238224,2.8281739084370394,walk
10/07/2020, 17:20:06,-9.710074,-5.2139606,2.4143581,0.6032289,-0.04396,2.680339,11.282732656238224,2.747732756258551,walk
10/07/2020, 17:20:06,-9.726824,-5.2498527,2.6009982,0.6032289,-0.04396,2.680339,11.355053753128887,2.747732756258551,walk
10/07/2020, 17:20:06,-9.726824,-5.2498527,2.6009982,0.68138003,-0.03052778,2.5570068,11.355053753128887,2.6464116562650615,walk
10/07/2020, 17:20:06,-9.848858,-5.276174,2.778067,0.68138003,-0.03052778,2.5570068,11.513282382210493,2.6464116562650615,walk
10/07/2020, 17:20:06,-9.848858,-5.276174,2.778067,0.7546467,-0.02198,2.4129157,11.513282382210493,2.5282675881912664,walk
10/07/2020, 17:20:06,-10.076176,-5.2546387,2.885744,0.7546467,-0.02198,2.4129157,11.724677525738786,2.5282675881912664,walk
10/07/2020, 17:20:06,-10.076176,-5.2546387,2.885744,0.81326,-0.008547778,2.2456234,11.724677525738786,2.3883653726853393,walk
10/07/2020, 17:20:06,-10.427921,-5.194818,2.8953154,0.81326,-0.008547778,2.2456234,12.004604454691767,2.3883653726853393,walk
10/07/2020, 17:20:06,-10.427921,-5.194818,2.8953154,0.8584412,0.0036633336,2.0783312,12.004604454691767,2.2486430084575497,walk
10/07/2020, 17:20:06,-10.724631,-5.089534,2.8115666,0.8584412,0.0036633336,2.0783312,12.199425305434394,2.2486430084575497,walk
10/07/2020, 17:20:06,-10.724631,-5.089534,2.8115666,0.8669889,0.008547778,1.9256923,12.199425305434394,2.1118791924259193,walk
10/07/2020, 17:20:06,-10.827522,-4.9459643,2.696711,0.8669889,0.008547778,1.9256923,12.20532885477593,2.1118791924259193,walk
10/07/2020, 17:20:06,-10.827522,-4.9459643,2.696711,0.8071545,0.0061055557,1.7840434,12.20532885477593,1.9581487664820207,walk
10/07/2020, 17:20:06,-10.6408825,-4.6971107,2.6081767,0.8071545,0.0061055557,1.7840434,11.92031100420881,1.9581487664820207,walk
10/07/2020, 17:20:06,-10.6408825,-4.6971107,2.6081767,0.6691689,0.012211111,1.62652,11.92031100420881,1.7588358498808954,walk
10/07/2020, 17:20:06,-10.296316,-4.4051867,2.5962126,0.6691689,0.012211111,1.62652,11.496091320170446,1.7588358498808954,walk
10/07/2020, 17:20:06,-10.296316,-4.4051867,2.5962126,0.48356003,0.008547778,1.45068,11.496091320170446,1.529174900412202,walk
10/07/2020, 17:20:07,-11.150554,-4.26401,2.009971,0.96223557,0.10501556,2.6510324,12.106056822857859,2.8222151936911426,walk
10/07/2020, 17:20:07,-11.222338,-4.3094735,2.0171494,0.96223557,0.10501556,2.6510324,12.189393661455023,2.8222151936911426,walk
10/07/2020, 17:20:07,-11.222338,-4.3094735,2.0171494,1.0611455,0.13676445,2.5521224,12.189393661455023,2.7673205259476634,walk
10/07/2020, 17:20:07,-11.241481,-4.3405805,2.0410776,1.0611455,0.13676445,2.5521224,12.222009972843031,2.7673205259476634,walk
10/07/2020, 17:20:07,-11.241481,-4.3405805,2.0410776,1.1368545,0.15874445,2.4471068,12.222009972843031,2.702955771089359,walk
10/07/2020, 17:20:07,-11.167303,-4.302295,2.0673988,1.1368545,0.15874445,2.4471068,12.144650674216551,2.702955771089359,walk
10/07/2020, 17:20:07,-11.167303,-4.302295,2.0673988,1.1771512,0.16729222,2.3469756,12.144650674216551,2.6309629311837885,walk
10/07/2020, 17:20:07,-10.978271,-4.26401,2.07697,1.1771512,0.16729222,2.3469756,11.959013735196672,2.6309629311837885,walk
10/07/2020, 17:20:07,-10.978271,-4.26401,2.07697,1.1893623,0.17584,2.2285278,11.959013735196672,2.5321608250747722,walk
10/07/2020, 17:20:07,-10.719846,-4.2185464,2.1463618,1.1893623,0.17584,2.2285278,11.718280424878479,2.5321608250747722,walk
10/07/2020, 17:20:07,-10.719846,-4.2185464,2.1463618,1.1783723,0.19293556,2.1113012,11.718280424878479,2.4255675644021704,walk
10/07/2020, 17:20:07,-10.442278,-4.1515474,2.1631117,1.1783723,0.19293556,2.1113012,11.443581876473756,2.4255675644021704,walk
10/07/2020, 17:20:07,-10.442278,-4.1515474,2.1631117,1.1588345,0.21980001,1.9794211,11.443581876473756,2.304195605579829,walk
10/07/2020, 17:20:07,-10.229317,-4.1036906,2.1343977,1.1588345,0.21980001,1.9794211,11.226524433524936,2.304195605579829,walk
10/07/2020, 17:20:07,-10.229317,-4.1036906,2.1343977,1.1405178,0.24178001,1.85731,11.226524433524936,2.1929065515347577,walk
10/07/2020, 17:20:07,-10.083355,-4.0534415,2.1008983,1.1405178,0.24178001,1.85731,11.068794368073469,2.1929065515347577,walk
10/07/2020, 17:20:07,-10.083355,-4.0534415,2.1008983,1.1063267,0.25277,1.7376412,11.068794368073469,2.0753911522765836,walk
10/07/2020, 17:20:07,-9.923036,-3.9649072,2.024328,1.1063267,0.25277,1.7376412,10.875892084547889,2.0753911522765836,walk
10/07/2020, 17:20:07,-9.923036,-3.9649072,2.024328,1.0440501,0.26009667,1.6240778,10.875892084547889,1.9481579950932557,walk
10/07/2020, 17:20:07,-9.767502,-3.8691943,1.9980069,1.0440501,0.26009667,1.6240778,10.694240882089526,1.9481579950932557,walk
10/07/2020, 17:20:08,-9.035298,-4.1587257,1.4069797,0.5030978,0.15141778,3.3861413,10.045457073534783,3.426658374699352,walk
10/07/2020, 17:20:08,-9.217153,-4.1850467,1.4715859,0.5030978,0.15141778,3.3861413,10.229178001919555,3.426658374699352,walk
10/07/2020, 17:20:08,-9.217153,-4.1850467,1.4715859,0.48844448,0.15019667,3.515579,10.229178001919555,3.5525248273347105,walk
10/07/2020, 17:20:08,-9.339187,-4.2759743,1.5361922,0.48844448,0.15019667,3.515579,10.385771518106504,3.5525248273347105,walk
10/07/2020, 17:20:08,-9.339187,-4.2759743,1.5361922,0.49455002,0.17217667,3.625479,10.385771518106504,3.663102835643104,walk
10/07/2020, 17:20:08,-9.554541,-4.3788652,1.6247265,0.49455002,0.17217667,3.625479,10.635010289006962,3.663102835643104,walk
10/07/2020, 17:20:08,-9.554541,-4.3788652,1.6247265,0.5324045,0.20026223,3.7170625,10.635010289006962,3.760334150770129,walk
10/07/2020, 17:20:08,-9.889536,-4.534399,1.753939,0.5324045,0.20026223,3.7170625,11.019981720122345,3.760334150770129,walk
10/07/2020, 17:20:08,-9.889536,-4.534399,1.753939,0.6032289,0.23445335,3.7817812,11.019981720122345,3.836759378738908,walk
10/07/2020, 17:20:08,-10.3441725,-4.6875396,1.8305093,0.6032289,0.23445335,3.7817812,11.503290653332096,3.836759378738908,walk
10/07/2020, 17:20:08,-10.3441725,-4.6875396,1.8305093,0.70458114,0.25399113,3.8269625,11.503290653332096,3.8995625180301543,walk
10/07/2020, 17:20:08,-10.827522,-4.843073,1.8975084,0.70458114,0.25399113,3.8269625,12.012124365388226,3.8995625180301543,walk
10/07/2020, 17:20:08,-10.827522,-4.843073,1.8975084,0.81936556,0.24544334,3.8587112,12.012124365388226,3.952373313857146,walk
10/07/2020, 17:20:08,-11.274981,-4.979464,1.9573289,0.81936556,0.24544334,3.8587112,12.480039464725184,3.952373313857146,walk
10/07/2020, 17:20:08,-11.274981,-4.979464,1.9573289,0.9317078,0.23811668,3.8904603,12.480039464725184,4.007550368478451,walk
10/07/2020, 17:20:08,-11.502298,-5.103891,2.0171494,0.9317078,0.23811668,3.8904603,12.74446788311023,4.007550368478451,walk
10/07/2020, 17:20:08,-11.502298,-5.103891,2.0171494,1.0269545,0.2515489,3.9038923,12.74446788311023,4.044537968147192,walk
10/07/2020, 17:20:08,-11.547762,-5.151747,2.0961127,1.0269545,0.2515489,3.9038923,12.817370765929454,4.044537968147192,walk
10/07/2020, 17:20:08,-11.547762,-5.151747,2.0961127,1.0880101,0.29062447,3.888018,12.817370765929454,4.047828014580424,walk
10/07/2020, 17:20:08,-11.519048,-5.1756754,2.2229323,1.0880101,0.29062447,3.888018,12.822538934138791,4.047828014580424,walk
10/07/2020, 17:20:09,-6.2117677,-3.7088752,1.6749759,0.042738892,0.064718895,1.1515079,7.426126641589153,1.1541167562747607,walk
10/07/2020, 17:20:09,-6.2117677,-3.7088752,1.6749759,0.05372889,0.06960334,1.3358957,7.426126641589153,1.3387862511228146,walk
10/07/2020, 17:20:09,-6.3888364,-3.7136607,1.6175481,0.05372889,0.06960334,1.3358957,7.564718642639959,1.3387862511228146,walk
10/07/2020, 17:20:09,-6.3888364,-3.7136607,1.6175481,0.054950003,0.07448778,1.515399,7.564718642639959,1.518223303313163,walk
10/07/2020, 17:20:09,-6.5108705,-3.6921253,1.5409778,0.054950003,0.07448778,1.515399,7.641847693826782,1.518223303313163,walk
10/07/2020, 17:20:09,-6.5108705,-3.6921253,1.5409778,0.036633335,0.070824444,1.6924601,7.641847693826782,1.6943373802896697,walk
10/07/2020, 17:20:09,-6.5778694,-3.656233,1.4691931,0.036633335,0.070824444,1.6924601,7.667785514160972,1.6943373802896697,walk
10/07/2020, 17:20:09,-6.5778694,-3.656233,1.4691931,0.0,0.07448778,1.8695211,7.667785514160972,1.8710044699732142,walk
10/07/2020, 17:20:09,-6.6161547,-3.6394832,1.4189439,0.0,0.07448778,1.8695211,7.683276802762023,1.8710044699732142,walk
10/07/2020, 17:20:09,-6.6161547,-3.6394832,1.4189439,-0.03174889,0.09280445,2.0368135,7.683276802762023,2.039173823192992,walk
10/07/2020, 17:20:09,-6.719046,-3.67059,1.4356936,-0.03174889,0.09280445,2.0368135,7.789738588142447,2.039173823192992,walk
10/07/2020, 17:20:09,-6.719046,-3.67059,1.4356936,-0.04151778,0.11844778,2.207769,7.789738588142447,2.211333804282976,walk
10/07/2020, 17:20:09,-6.9009004,-3.76391,1.4213367,-0.04151778,0.11844778,2.207769,7.988093803352827,2.211333804282976,walk
10/07/2020, 17:20:09,-6.9009004,-3.76391,1.4213367,-0.024422223,0.13920668,2.372619,7.988093803352827,2.376824657707314,walk
10/07/2020, 17:20:09,-7.1066833,-3.9314077,1.4715859,-0.024422223,0.13920668,2.372619,8.253876560359751,2.376824657707314,walk
10/07/2020, 17:20:09,-7.1066833,-3.9314077,1.4715859,0.009768889,0.16607112,2.5399113,8.253876560359751,2.5453534739337633,walk
10/07/2020, 17:20:09,-7.32443,-4.06062,1.5625132,0.009768889,0.16607112,2.5399113,8.519234453589561,2.5453534739337633,walk
10/07/2020, 17:20:09,-7.32443,-4.06062,1.5625132,0.06594,0.19537778,2.7047613,8.519234453589561,2.7126101952170587,walk
10/07/2020, 17:20:09,-7.5661054,-4.2041893,1.6414764,0.06594,0.19537778,2.7047613,8.809971783630864,2.7126101952170587,walk
10/07/2020, 17:20:09,-7.5661054,-4.2041893,1.6414764,0.13432223,0.2283478,2.8586211,8.809971783630864,2.8708709280249365,walk
10/07/2020, 17:20:10,-6.879365,-3.7208393,0.4426722,-0.6838223,0.1746189,-0.47501224,7.833662351554048,0.8507298594045257,walk
10/07/2020, 17:20:10,-6.728617,-3.7543387,0.5766702,-0.6838223,0.1746189,-0.47501224,7.726700281829044,0.8507298594045257,walk
10/07/2020, 17:20:10,-6.728617,-3.7543387,0.5766702,-0.4151778,0.29062447,-0.25887558,7.726700281829044,0.5690797367049512,walk
10/07/2020, 17:20:10,-6.687939,-3.8356948,0.7082755,-0.4151778,0.29062447,-0.25887558,7.742269628639401,0.5690797367049512,walk
10/07/2020, 17:20:10,-6.687939,-3.8356948,0.7082755,-0.16485001,0.39686114,-0.04396,7.742269628639401,0.43198005652132293,walk
10/07/2020, 17:20:10,-6.7405815,-3.885944,0.7704889,-0.16485001,0.39686114,-0.04396,7.818545402551074,0.43198005652132293,walk
10/07/2020, 17:20:10,-6.7405815,-3.885944,0.7704889,0.05250778,0.47501224,0.17095557,7.818545402551074,0.5075623156178881,walk
10/07/2020, 17:20:10,-6.8410797,-3.8907297,0.79920274,0.05250778,0.47501224,0.17095557,7.9105545934965145,0.5075623156178881,walk
10/07/2020, 17:20:10,-6.8410797,-3.8907297,0.79920274,0.23933779,0.52019334,0.3931978,7.9105545934965145,0.6946137050358794,walk
10/07/2020, 17:20:10,-6.838687,-3.8739798,0.78723866,0.23933779,0.52019334,0.3931978,7.899057117985121,0.6946137050358794,walk
10/07/2020, 17:20:10,-6.838687,-3.8739798,0.78723866,0.39930335,0.5507211,0.6239878,7.899057117985121,0.9230913657869663,walk
10/07/2020, 17:20:10,-6.7573314,-3.8117664,0.7848458,0.39930335,0.5507211,0.6239878,7.7978890232327265,0.9230913657869663,walk
10/07/2020, 17:20:10,-6.7573314,-3.8117664,0.7848458,0.53484666,0.5885756,0.85599893,7.7978890232327265,1.168424737002727,walk
10/07/2020, 17:20:10,-6.5371914,-3.7663028,0.70588267,0.53484666,0.5885756,0.85599893,7.577478379141402,1.168424737002727,walk
10/07/2020, 17:20:10,-6.5371914,-3.7663028,0.70588267,0.6581789,0.6435256,1.0916734,7.577478379141402,1.4279619925925993,walk
10/07/2020, 17:20:10,-6.3338017,-3.682554,0.66759753,0.6581789,0.6435256,1.0916734,7.3568971067120765,1.4279619925925993,walk
10/07/2020, 17:20:10,-6.3338017,-3.682554,0.66759753,0.7656367,0.70336,1.3322322,7.3568971067120765,1.6898986898161341,walk
10/07/2020, 17:20:10,-6.1806607,-3.6179478,0.6221339,0.7656367,0.70336,1.3322322,7.188683050554871,1.6898986898161341,walk
10/07/2020, 17:20:10,-6.1806607,-3.6179478,0.6221339,0.8498934,0.7631945,1.5654645,7.188683050554871,1.9379018843615432,walk
10/07/2020, 17:20:10,-6.1064835,-3.5509489,0.5814559,0.8498934,0.7631945,1.5654645,7.087768970740111,1.9379018843615432,walk
10/07/2020, 17:20:11,-6.192625,-4.3405805,4.316652,-1.1637189,0.57636446,-0.8877478,8.707624627981454,1.5730651467553631,walk
10/07/2020, 17:20:11,-4.469793,-4.8263235,5.302495,-1.1637189,0.57636446,-0.8877478,8.44919522368217,1.5730651467553631,walk
10/07/2020, 17:20:11,-4.469793,-4.8263235,5.302495,-0.90118,0.82547116,-0.61666113,8.44919522368217,1.3688677934998321,walk
10/07/2020, 17:20:11,-2.9838498,-5.3886366,6.0323057,-0.90118,0.82547116,-0.61666113,8.621454399995416,1.3688677934998321,walk
10/07/2020, 17:20:11,-2.9838498,-5.3886366,6.0323057,-0.59834445,1.0379444,-0.3712178,8.621454399995416,1.254251718393848,walk
10/07/2020, 17:20:11,-1.8927227,-5.9964137,6.687939,-0.59834445,1.0379444,-0.3712178,9.179755278497597,1.254251718393848,walk
10/07/2020, 17:20:11,-1.8927227,-5.9964137,6.687939,-0.23689556,1.1979101,-0.16240779,9.179755278497597,1.2318621402486452,walk
10/07/2020, 17:20:11,-1.1676974,-6.6257257,7.166504,-0.23689556,1.1979101,-0.16240779,9.829676352188937,1.2318621402486452,walk
10/07/2020, 17:20:11,-1.1676974,-6.6257257,7.166504,0.23811668,1.3188001,-0.0036633336,9.829676352188937,1.3401293430263723,walk
10/07/2020, 17:20:11,-0.77766734,-7.058827,7.422536,0.23811668,1.3188001,-0.0036633336,10.272577240561722,1.3401293430263723,walk
10/07/2020, 17:20:11,-0.77766734,-7.058827,7.422536,0.83890337,1.4116045,0.12821667,10.272577240561722,1.6470657866185203,walk
10/07/2020, 17:20:11,-0.61734825,-7.353144,7.348358,0.83890337,1.4116045,0.12821667,10.413847300500866,1.6470657866185203,walk
10/07/2020, 17:20:11,-0.61734825,-7.353144,7.348358,1.4665545,1.4934189,0.2503278,10.413847300500866,2.1080195158415886,walk
10/07/2020, 17:20:11,-0.6867401,-7.5517483,7.0899334,1.4665545,1.4934189,0.2503278,10.381120822766558,2.1080195158415886,walk
10/07/2020, 17:20:11,-0.6867401,-7.5517483,7.0899334,2.02216,1.5544745,0.3492378,10.381120822766558,2.5743910365134295,walk
10/07/2020, 17:20:11,-0.89730847,-7.652247,6.6735826,2.02216,1.5544745,0.3492378,10.19307362902423,2.5743910365134295,walk
10/07/2020, 17:20:11,-0.89730847,-7.652247,6.6735826,2.4544334,1.5776756,0.37976557,10.19307362902423,2.942367353712341,walk
10/07/2020, 17:20:11,-1.268196,-7.7240314,6.096912,2.4544334,1.5776756,0.37976557,9.92175980762647,2.942367353712341,walk
10/07/2020, 17:20:11,-1.268196,-7.7240314,6.096912,2.7841334,1.5618012,0.32970002,9.92175980762647,3.2092559976172192,walk
10/07/2020, 17:20:11,-1.8687944,-7.8484583,5.5657053,2.7841334,1.5618012,0.32970002,9.801416513673194,3.2092559976172192,walk
10/07/2020, 17:20:12,-9.329616,-7.1688967,2.254039,-1.6179723,0.3834289,1.6106457,11.979795435892287,2.314958175718032,walk
10/07/2020, 17:20:12,-9.329616,-7.1688967,2.254039,-1.7522945,0.36389112,1.5129567,11.979795435892287,2.343499733193027,walk
10/07/2020, 17:20:12,-9.104691,-7.367501,2.4095724,-1.7522945,0.36389112,1.5129567,11.957487059925246,2.343499733193027,walk
10/07/2020, 17:20:12,-9.104691,-7.367501,2.4095724,-1.8683001,0.35168,1.3652023,11.957487059925246,2.340513055042546,walk
10/07/2020, 17:20:12,-8.882157,-7.4943204,2.6608188,-1.8683001,0.35168,1.3652023,11.92214383715604,2.340513055042546,walk
10/07/2020, 17:20:12,-8.882157,-7.4943204,2.6608188,-1.8731846,0.3394689,1.1979101,11.92214383715604,2.249232773798446,walk
10/07/2020, 17:20:12,-8.63809,-7.3579297,2.8977082,-1.8731846,0.3394689,1.1979101,11.71121015978142,2.249232773798446,walk
10/07/2020, 17:20:12,-8.63809,-7.3579297,2.8977082,-1.746189,0.3309211,1.0525978,11.71121015978142,2.0655863205525256,walk
10/07/2020, 17:20:12,-8.525627,-7.1162543,3.2614172,-1.746189,0.3309211,1.0525978,11.574292012054014,2.0655863205525256,walk
10/07/2020, 17:20:12,-8.525627,-7.1162543,3.2614172,-1.4921979,0.34435335,0.93415004,11.574292012054014,1.7938422485381091,walk
10/07/2020, 17:20:12,-8.425129,-6.8985076,3.5988052,-1.4921979,0.34435335,0.93415004,11.468374053440112,1.7938422485381091,walk
10/07/2020, 17:20:12,-8.425129,-6.8985076,3.5988052,-1.1466234,0.37854445,0.80104893,11.468374053440112,1.4490412193793827,walk
10/07/2020, 17:20:12,-8.305488,-6.8458657,3.7256248,-1.1466234,0.37854445,0.80104893,11.389788519152072,1.4490412193793827,walk
10/07/2020, 17:20:12,-8.305488,-6.8458657,3.7256248,-0.7863956,0.40785113,0.6801589,11.389788519152072,1.1168602175844897,walk
10/07/2020, 17:20:12,-8.114061,-6.826723,3.8141594,-0.7863956,0.40785113,0.6801589,11.268981845177713,1.1168602175844897,walk
10/07/2020, 17:20:12,-8.114061,-6.826723,3.8141594,-0.49699223,0.4261678,0.58124894,11.268981845177713,0.8754830598891223,walk
10/07/2020, 17:20:12,-7.891529,-6.558727,3.952943,-0.49699223,0.4261678,0.58124894,10.996312445172327,0.8754830598891223,walk
10/07/2020, 17:20:12,-7.891529,-6.558727,3.952943,-0.31016225,0.44082114,0.5043189,10.996312445172327,0.7381473044951461,walk
10/07/2020, 17:20:12,-7.6594253,-6.046663,4.089334,-0.31016225,0.44082114,0.5043189,10.580717322278883,0.7381473044951461,walk
10/07/2020, 17:20:12,-7.6594253,-6.046663,4.089334,-0.25643334,0.46646446,0.4493689,10.580717322278883,0.6966200916793094,walk
10/07/2020, 17:20:13,-8.082955,-4.57747,1.9142581,-0.8303556,0.34801668,3.3360758,9.484291303169083,3.4554316133296012,walk
10/07/2020, 17:20:13,-8.082955,-4.57747,1.9142581,-0.7351089,0.23201112,3.6303635,9.484291303169083,3.711300736629101,walk
10/07/2020, 17:20:13,-8.62134,-4.9340005,2.1487548,-0.7351089,0.23201112,3.6303635,10.16311999878071,3.711300736629101,walk
10/07/2020, 17:20:13,-8.62134,-4.9340005,2.1487548,-0.6020078,0.106236674,3.8843546,10.16311999878071,3.932163554739469,walk
10/07/2020, 17:20:13,-9.19801,-5.2977095,2.4023938,-0.6020078,0.106236674,3.8843546,10.883042670680569,3.932163554739469,walk
10/07/2020, 17:20:13,-9.19801,-5.2977095,2.4023938,-0.40907225,-0.02075889,4.0711846,10.883042670680569,4.091737451365216,walk
10/07/2020, 17:20:13,-9.68136,-5.6279187,2.6009982,-0.40907225,-0.02075889,4.0711846,11.496407993604945,4.091737451365216,walk
10/07/2020, 17:20:13,-9.68136,-5.6279187,2.6009982,-0.17950334,-0.13188,4.182306,11.496407993604945,4.188233003830256,walk
10/07/2020, 17:20:13,-10.018748,-5.828916,2.8091738,-0.17950334,-0.13188,4.182306,11.926568547348591,4.188233003830256,walk
10/07/2020, 17:20:13,-10.018748,-5.828916,2.8091738,0.03297,-0.22102112,4.2470245,11.926568547348591,4.252899571473392,walk
10/07/2020, 17:20:13,-10.24846,-5.814559,2.9479575,0.03297,-0.22102112,4.2470245,12.146212507577722,4.252899571473392,walk
10/07/2020, 17:20:13,-10.24846,-5.814559,2.9479575,0.18194556,-0.3052778,4.2470245,12.146212507577722,4.261867680964902,walk
10/07/2020, 17:20:13,-10.470992,-5.6949177,3.0556345,0.18194556,-0.3052778,4.2470245,12.304904098419922,4.261867680964902,walk
10/07/2020, 17:20:13,-10.470992,-5.6949177,3.0556345,0.22712667,-0.3931978,4.1786423,12.304904098419922,4.203241877933869,walk
10/07/2020, 17:20:13,-10.650454,-5.453243,3.0412776,0.22712667,-0.3931978,4.1786423,12.345824708140267,4.203241877933869,walk
10/07/2020, 17:20:13,-10.650454,-5.453243,3.0412776,0.19293556,-0.48111778,4.0699635,12.345824708140267,4.10284059872208,walk
10/07/2020, 17:20:13,-10.786844,-5.1182475,2.9838498,0.19293556,-0.48111778,4.0699635,12.30673904520976,4.10284059872208,walk
10/07/2020, 17:20:13,-10.786844,-5.1182475,2.9838498,0.11844778,-0.5580478,3.9502945,12.30673904520976,3.9912747069390364,walk
10/07/2020, 17:20:13,-10.858629,-4.802395,2.9336007,0.11844778,-0.5580478,3.9502945,12.230242761175587,3.9912747069390364,walk
10/07/2020, 17:20:13,-10.858629,-4.802395,2.9336007,0.025643334,-0.6020078,3.8086457,12.230242761175587,3.856015202236947,walk
10/07/2020, 17:20:14,-7.9393854,-3.802195,1.3950156,-0.5043189,-0.6191034,1.1588345,8.912721056876729,1.4073108508022336,walk
10/07/2020, 17:20:14,-8.094919,-3.7830527,1.4620147,-0.5043189,-0.6191034,1.1588345,9.05409804688238,1.4073108508022336,walk
10/07/2020, 17:20:14,-8.094919,-3.7830527,1.4620147,-0.50554,-0.57636446,1.3285689,9.05409804688238,1.5339042046843852,walk
10/07/2020, 17:20:14,-8.34138,-3.7950168,1.4404793,-0.50554,-0.57636446,1.3285689,9.276624121854132,1.5339042046843852,walk
10/07/2020, 17:20:14,-8.34138,-3.7950168,1.4404793,-0.53118336,-0.5421733,1.5178412,9.276624121854132,1.6970414397856046,walk
10/07/2020, 17:20:14,-8.712267,-3.859623,1.4548361,-0.53118336,-0.5421733,1.5178412,9.63933775956326,1.6970414397856046,walk
10/07/2020, 17:20:14,-8.712267,-3.859623,1.4548361,-0.57148004,-0.5238567,1.7193245,9.63933775956326,1.8860254252058695,walk
10/07/2020, 17:20:14,-9.202796,-3.9361932,1.4380864,-0.57148004,-0.5238567,1.7193245,10.112030631174475,1.8860254252058695,walk
10/07/2020, 17:20:14,-9.202796,-3.9361932,1.4380864,-0.6007867,-0.50798225,1.9342401,10.112030631174475,2.088127244104281,walk
10/07/2020, 17:20:14,-9.767502,-4.072584,1.430908,-0.6007867,-0.50798225,1.9342401,10.67883567155353,2.088127244104281,walk
10/07/2020, 17:20:14,-9.767502,-4.072584,1.430908,-0.59956557,-0.49943447,2.1491556,10.67883567155353,2.286434675087392,walk
10/07/2020, 17:20:14,-10.279566,-4.249653,1.4835501,-0.59956557,-0.49943447,2.1491556,11.221851163394186,2.286434675087392,walk
10/07/2020, 17:20:14,-10.279566,-4.249653,1.4835501,-0.56293225,-0.49821335,2.3506389,11.221851163394186,2.467916600003132,walk
10/07/2020, 17:20:14,-10.674382,-4.4482574,1.5601203,-0.56293225,-0.49821335,2.3506389,11.66890763341435,2.467916600003132,walk
10/07/2020, 17:20:14,-10.674382,-4.4482574,1.5601203,-0.49699223,-0.49577114,2.5423534,11.66890763341435,2.6374895389806157,walk
10/07/2020, 17:20:14,-10.846665,-4.6205406,1.6773686,-0.49699223,-0.49577114,2.5423534,11.90853102132167,2.6374895389806157,walk
10/07/2020, 17:20:14,-10.846665,-4.6205406,1.6773686,-0.42861003,-0.4908867,2.702319,11.90853102132167,2.779784842348608,walk
10/07/2020, 17:20:14,-10.738988,-4.699504,1.7467605,-0.42861003,-0.4908867,2.702319,11.85168218850209,2.779784842348608,walk
10/07/2020, 17:20:14,-10.738988,-4.699504,1.7467605,-0.3712178,-0.4798967,2.8354201,11.85168218850209,2.8996052845266136,walk
10/07/2020, 17:20:14,-10.411171,-4.7449675,1.8161523,-0.3712178,-0.4798967,2.8354201,11.584714336180008,2.8996052845266136,walk
10/07/2020, 17:20:15,-7.34118,-3.9290147,-0.36370903,0.24178001,-0.14897557,-0.42006224,8.334408328987655,0.5070538262041177,walk
10/07/2020, 17:20:15,-7.34118,-3.9290147,-0.36370903,0.4359367,0.008547778,-0.30649891,8.334408328987655,0.5329685230175808,walk
10/07/2020, 17:20:15,-7.0803623,-4.223332,-0.059820566,0.4359367,0.008547778,-0.30649891,8.244491594881609,0.5329685230175808,walk
10/07/2020, 17:20:15,-7.0803623,-4.223332,-0.059820566,0.6777167,0.18805112,-0.22102112,8.244491594881609,0.737233643577446,walk
10/07/2020, 17:20:15,-7.056434,-4.517649,0.2632105,0.6777167,0.18805112,-0.22102112,8.382821530008703,0.737233643577446,walk
10/07/2020, 17:20:15,-7.056434,-4.517649,0.2632105,0.9378134,0.36389112,-0.15996556,8.382821530008703,1.0185772953001009,walk
10/07/2020, 17:20:15,-7.2670026,-4.7401814,0.5910272,0.9378134,0.36389112,-0.15996556,8.696433741937508,1.0185772953001009,walk
10/07/2020, 17:20:15,-7.2670026,-4.7401814,0.5910272,1.2162267,0.49943447,-0.09524667,8.696433741937508,1.3182238421521215,walk
10/07/2020, 17:20:15,-7.6307116,-4.9316072,0.80877405,1.2162267,0.49943447,-0.09524667,9.121547256150691,1.3182238421521215,walk
10/07/2020, 17:20:15,-7.6307116,-4.9316072,0.80877405,1.4824289,0.5653745,-0.018316668,9.121547256150691,1.5866881504024788,walk
10/07/2020, 17:20:15,-7.9800634,-5.046463,0.9810573,1.4824289,0.5653745,-0.018316668,9.492664263449269,1.5866881504024788,walk
10/07/2020, 17:20:15,-7.9800634,-5.046463,0.9810573,1.6863545,0.59590226,0.06105556,9.492664263449269,1.7895862231009532,walk
10/07/2020, 17:20:15,-8.123632,-5.0656056,1.1509477,1.6863545,0.59590226,0.06105556,9.642533119662794,1.7895862231009532,walk
10/07/2020, 17:20:15,-8.123632,-5.0656056,1.1509477,1.8182346,0.6239878,0.13188,9.642533119662794,1.926844577814938,walk
10/07/2020, 17:20:15,-8.0614195,-4.989035,1.282553,1.8182346,0.6239878,0.13188,9.566707780533068,1.926844577814938,walk
10/07/2020, 17:20:15,-8.0614195,-4.989035,1.282553,1.8658578,0.6679478,0.16851334,9.566707780533068,1.9889636814626104,walk
10/07/2020, 17:20:15,-7.920243,-4.87418,1.3423735,1.8658578,0.6679478,0.16851334,9.396267423648025,1.9889636814626104,walk
10/07/2020, 17:20:15,-7.920243,-4.87418,1.3423735,1.856089,0.71801335,0.18438779,9.396267423648025,1.9986516411242463,walk
10/07/2020, 17:20:15,-7.877172,-4.800002,1.3256238,1.856089,0.71801335,0.18438779,9.319181137917706,1.9986516411242463,walk
10/07/2020, 17:20:15,-7.877172,-4.800002,1.3256238,1.8231189,0.74609894,0.18072446,9.319181137917706,1.9781525639019235,walk
10/07/2020, 17:20:16,-9.817751,-3.199204,2.7637103,0.56659555,0.2955089,0.6838223,10.689304643966251,0.935932118146251,walk
10/07/2020, 17:20:16,-9.817751,-3.199204,2.7637103,0.29795113,0.12455334,0.68626446,10.689304643966251,0.7584506006717561,walk
10/07/2020, 17:20:16,-9.726824,-3.306881,2.6775684,0.29795113,0.12455334,0.68626446,10.616776145285577,0.7584506006717561,walk
10/07/2020, 17:20:16,-9.726824,-3.306881,2.6775684,0.12943779,-0.0036633336,0.7131289,10.616776145285577,0.7247899172106305,walk
10/07/2020, 17:20:16,-9.343972,-3.6753755,2.7349963,0.12943779,-0.0036633336,0.7131289,10.406652018597471,0.7247899172106305,walk
10/07/2020, 17:20:16,-9.343972,-3.6753755,2.7349963,0.05617111,-0.02198,0.7326667,10.406652018597471,0.7351454042734904,walk
10/07/2020, 17:20:16,-8.695518,-4.046263,2.751746,0.05617111,-0.02198,0.7326667,9.977794196665497,0.7351454042734904,walk
10/07/2020, 17:20:16,-8.695518,-4.046263,2.751746,0.029306669,-0.0061055557,0.7265611,9.977794196665497,0.7271775800688932,walk
10/07/2020, 17:20:16,-8.063812,-4.2927237,2.6919255,0.029306669,-0.0061055557,0.7265611,9.523602654336667,0.7271775800688932,walk
10/07/2020, 17:20:16,-8.063812,-4.2927237,2.6919255,0.0,-0.03052778,0.6777167,9.523602654336667,0.6784038866473409,walk
10/07/2020, 17:20:16,-7.5732837,-4.5008993,2.684747,0.0,-0.03052778,0.6777167,9.209809258313324,0.6784038866473409,walk
10/07/2020, 17:20:16,-7.5732837,-4.5008993,2.684747,-0.051286668,-0.07693,0.60445005,9.209809258313324,0.6114805039589236,walk
10/07/2020, 17:20:16,-7.2550383,-4.6468616,2.672783,-0.051286668,-0.07693,0.60445005,9.02068017882687,0.6114805039589236,walk
10/07/2020, 17:20:16,-7.2550383,-4.6468616,2.672783,-0.106236674,-0.11844778,0.5324045,9.02068017882687,0.5556713421193709,walk
10/07/2020, 17:20:16,-7.1162543,-4.7138605,2.713461,-0.106236674,-0.11844778,0.5324045,8.956808962222881,0.5556713421193709,walk
10/07/2020, 17:20:16,-7.1162543,-4.7138605,2.713461,-0.14409111,-0.16362889,0.46768558,8.956808962222881,0.5160101406297466,walk
10/07/2020, 17:20:16,-7.1066833,-4.706682,2.7326035,-0.14409111,-0.16362889,0.46768558,8.95125278484024,0.5160101406297466,walk
10/07/2020, 17:20:16,-7.1066833,-4.706682,2.7326035,-0.17095557,-0.21125223,0.39686114,8.95125278484024,0.4809907184617751,walk
10/07/2020, 17:20:16,-7.2550383,-4.752146,2.6656044,-0.17095557,-0.21125223,0.39686114,9.07325278683872,0.4809907184617751,walk
10/07/2020, 17:20:16,-7.2550383,-4.752146,2.6656044,-0.19415668,-0.2625389,0.32115224,9.07325278683872,0.4579980955645031,walk
10/07/2020, 17:20:17,-7.393822,-3.897908,4.8502517,1.2394278,0.04396,0.16118668,9.663707078141352,1.2506378017894204,walk
10/07/2020, 17:20:17,-7.393822,-3.897908,4.8502517,1.3004833,0.05617111,0.07937223,9.663707078141352,1.3041135216810915,walk
10/07/2020, 17:20:17,-7.1952176,-3.897908,4.855037,1.3004833,0.05617111,0.07937223,9.515052776575311,1.3041135216810915,walk
10/07/2020, 17:20:17,-7.1952176,-3.897908,4.855037,1.3578756,0.06594,-0.0061055557,9.515052776575311,1.3594894141826876,walk
10/07/2020, 17:20:17,-7.066005,-3.8955152,4.867001,1.3578756,0.06594,-0.0061055557,9.422906552430113,1.3594894141826876,walk
10/07/2020, 17:20:17,-7.066005,-3.8955152,4.867001,1.4250367,0.06227667,-0.08669889,9.422906552430113,1.4290292468399066,walk
10/07/2020, 17:20:17,-7.068398,-3.9338005,4.95075,1.4250367,0.06227667,-0.08669889,9.484037148605735,1.4290292468399066,walk
10/07/2020, 17:20:17,-7.068398,-3.9338005,4.95075,1.50563,0.06227667,-0.17095557,9.484037148605735,1.516583639621016,walk
10/07/2020, 17:20:17,-7.1425757,-4.0007997,5.0416775,1.50563,0.06227667,-0.17095557,9.614639767651614,1.516583639621016,walk
10/07/2020, 17:20:17,-7.1425757,-4.0007997,5.0416775,1.5935501,0.06716111,-0.24788557,9.614639767651614,1.6141126811784345,walk
10/07/2020, 17:20:17,-7.2693954,-4.0797625,5.1254263,1.5935501,0.06716111,-0.24788557,9.785630545568775,1.6141126811784345,walk
10/07/2020, 17:20:17,-7.2693954,-4.0797625,5.1254263,1.6668167,0.06227667,-0.31260446,9.785630545568775,1.6970202943968173,walk
10/07/2020, 17:20:17,-7.3459654,-4.1084766,5.204389,1.6668167,0.06227667,-0.31260446,9.89588063746216,1.6970202943968173,walk
10/07/2020, 17:20:17,-7.3459654,-4.1084766,5.204389,1.7119979,0.034191113,-0.3809867,9.89588063746216,1.7542111007252534,walk
10/07/2020, 17:20:17,-7.3340015,-4.0438704,5.2570314,1.7119979,0.034191113,-0.3809867,9.88821755338724,1.7542111007252534,walk
10/07/2020, 17:20:17,-7.3340015,-4.0438704,5.2570314,1.7278723,0.008547778,-0.46646446,9.88821755338724,1.7897498924975652,walk
10/07/2020, 17:20:17,-7.2909307,-3.9361932,5.235496,1.7278723,0.008547778,-0.46646446,9.801107443888952,1.7897498924975652,walk
10/07/2020, 17:20:17,-7.2909307,-3.9361932,5.235496,1.7278723,-0.012211111,-0.5482789,9.801107443888952,1.8128158799916438,walk
10/07/2020, 17:20:17,-7.216753,-3.830909,5.099105,1.7278723,-0.012211111,-0.5482789,9.6311088879381,1.8128158799916438,walk
10/07/2020, 17:20:17,-7.216753,-3.830909,5.099105,1.7413045,-0.035412222,-0.6325356,9.6311088879381,1.852969697977311,walk
10/07/2020, 17:20:18,-8.126026,-6.5682983,-0.24885355,1.9794211,1.9904112,-2.0233812,10.45163969043314,3.4603347027165,walk
10/07/2020, 17:20:18,-7.8723865,-6.285945,-0.17467605,1.9794211,1.9904112,-2.0233812,10.075618293590411,3.4603347027165,walk
10/07/2020, 17:20:18,-7.8723865,-6.285945,-0.17467605,1.9342401,1.9281346,-1.9488934,10.075618293590411,3.355171121118929,walk
10/07/2020, 17:20:18,-7.6163545,-6.046663,-0.02632105,1.9342401,1.9281346,-1.9488934,9.724797131495581,3.355171121118929,walk
10/07/2020, 17:20:18,-7.6163545,-6.046663,-0.02632105,1.8524256,1.85731,-1.8866167,9.724797131495581,3.23116136351789,walk
10/07/2020, 17:20:18,-7.34118,-5.8504515,0.1794617,1.8524256,1.85731,-1.8866167,9.388978136907276,3.23116136351789,walk
10/07/2020, 17:20:18,-7.34118,-5.8504515,0.1794617,1.7498523,1.7974756,-1.8231189,9.388978136907276,3.1010746739681365,walk
10/07/2020, 17:20:18,-7.164111,-5.716453,0.3493521,1.7498523,1.7974756,-1.8231189,9.171933876566086,3.1010746739681365,walk
10/07/2020, 17:20:18,-7.164111,-5.716453,0.3493521,1.6314045,1.7388623,-1.7437468,9.171933876566086,2.953942361380841,walk
10/07/2020, 17:20:18,-7.075577,-5.615955,0.40438703,1.6314045,1.7388623,-1.7437468,9.042470062846327,2.953942361380841,walk
10/07/2020, 17:20:18,-7.075577,-5.615955,0.40438703,1.5068512,1.669259,-1.6350678,9.042470062846327,2.780372772643068,walk
10/07/2020, 17:20:18,-7.068398,-5.5130634,0.40917268,1.5068512,1.669259,-1.6350678,8.973491012239567,2.780372772643068,walk
10/07/2020, 17:20:18,-7.068398,-5.5130634,0.40917268,1.3749712,1.581339,-1.4970822,8.973491012239567,2.575351222426902,walk
10/07/2020, 17:20:18,-7.094719,-5.491528,0.39481574,1.3749712,1.581339,-1.4970822,8.980411814676339,2.575351222426902,walk
10/07/2020, 17:20:18,-7.094719,-5.491528,0.39481574,1.2577446,1.4946401,-1.3285689,8.980411814676339,2.362406788656977,walk
10/07/2020, 17:20:18,-7.149754,-5.5465627,0.4235296,1.2577446,1.4946401,-1.3285689,9.058847483363875,2.362406788656977,walk
10/07/2020, 17:20:18,-7.149754,-5.5465627,0.4235296,1.1539501,1.4250367,-1.1710457,9.058847483363875,2.17570178783799,walk
10/07/2020, 17:20:18,-7.2358956,-5.611169,0.4642076,1.1539501,1.4250367,-1.1710457,9.168363556221616,2.17570178783799,walk
10/07/2020, 17:20:18,-7.2358956,-5.611169,0.4642076,1.0819045,1.3627601,-1.0293967,9.168363556221616,2.0217046972571207,walk
10/07/2020, 17:20:18,-7.3363943,-5.682954,0.5407779,1.0819045,1.3627601,-1.0293967,9.29575637147288,2.0217046972571207,walk
10/07/2020, 17:20:19,-2.8977082,-10.509277,0.33738798,0.11600556,0.6618422,-0.19782001,10.906670143475841,0.7004464143494721,walk
10/07/2020, 17:20:19,-3.6011982,-9.822537,0.49052864,0.11600556,0.6618422,-0.19782001,10.473370432181655,0.7004464143494721,walk
10/07/2020, 17:20:19,-3.6011982,-9.822537,0.49052864,-0.106236674,0.57148004,-0.15141778,10.473370432181655,0.6006687983830262,walk
10/07/2020, 17:20:19,-4.1611185,-9.616755,0.6939186,-0.106236674,0.57148004,-0.15141778,10.501352196848167,0.6006687983830262,walk
10/07/2020, 17:20:19,-4.1611185,-9.616755,0.6939186,-0.54461557,0.43471557,-0.17950334,10.501352196848167,0.7195868184625992,walk
10/07/2020, 17:20:19,-4.453043,-10.018748,0.9810573,-0.54461557,0.43471557,-0.17950334,11.007605660733546,0.7195868184625992,walk
10/07/2020, 17:20:19,-4.453043,-10.018748,0.9810573,-1.0135223,0.26498112,-0.32481557,11.007605660733546,1.0967896499124574,walk
10/07/2020, 17:20:19,-4.4195433,-10.849058,1.5864414,-1.0135223,0.26498112,-0.32481557,11.821642092365817,1.0967896499124574,walk
10/07/2020, 17:20:19,-4.4195433,-10.849058,1.5864414,-1.2626289,0.12943779,-0.5421733,11.821642092365817,1.3801948516434044,walk
10/07/2020, 17:20:19,-4.113262,-11.760723,2.1128623,-1.2626289,0.12943779,-0.5421733,12.637156373218668,1.3801948516434044,walk
10/07/2020, 17:20:19,-4.113262,-11.760723,2.1128623,-1.1527289,0.09524667,-0.7717422,12.637156373218668,1.3904826291591685,walk
10/07/2020, 17:20:19,-3.7040894,-12.416357,2.3138595,-1.1527289,0.09524667,-0.7717422,13.162072256095176,1.3904826291591685,walk
10/07/2020, 17:20:19,-3.7040894,-12.416357,2.3138595,-0.6887067,0.15508112,-0.93415004,13.162072256095176,1.1708985290874696,walk
10/07/2020, 17:20:19,-3.2614172,-12.457035,2.1798615,-0.6887067,0.15508112,-0.93415004,13.060105695991867,1.1708985290874696,walk
10/07/2020, 17:20:19,-3.2614172,-12.457035,2.1798615,-0.13676445,0.2295689,-1.00009,13.060105695991867,1.0351745788324103,walk
10/07/2020, 17:20:19,-3.0580273,-11.988042,1.8999012,-0.13676445,0.2295689,-1.00009,12.516960622178953,1.0351745788324103,walk
10/07/2020, 17:20:19,-3.0580273,-11.988042,1.8999012,0.26009667,0.24544334,-1.0147433,12.516960622178953,1.0759166949214198,walk
10/07/2020, 17:20:19,-2.9766715,-11.069198,1.7994026,0.26009667,0.24544334,-1.0147433,11.60282549129008,1.0759166949214198,walk
10/07/2020, 17:20:19,-2.9766715,-11.069198,1.7994026,0.43471557,0.2283478,-1.0074167,11.60282549129008,1.120717983591933,walk
10/07/2020, 17:20:19,-2.9336007,-9.812965,1.8711873,0.43471557,0.2283478,-1.0074167,10.411611051295498,1.120717983591933,walk
10/07/2020, 17:20:20,-8.310273,-0.40677986,4.249653,0.3614489,0.09280445,-0.75831,9.342679458851995,0.8451580142387888,walk
10/07/2020, 17:20:20,-8.310273,-0.40677986,4.249653,0.40540892,0.091583334,-0.7668578,9.342679458851995,0.8722469766978933,walk
10/07/2020, 17:20:20,-8.413164,-0.38285163,4.2281175,0.40540892,0.091583334,-0.7668578,9.423634304412033,0.8722469766978933,walk
10/07/2020, 17:20:20,-8.413164,-0.38285163,4.2281175,0.42006224,0.10379445,-0.7766267,9.423634304412033,0.889030155224422,walk
10/07/2020, 17:20:20,-8.539984,-0.37567315,4.113262,0.42006224,0.10379445,-0.7766267,9.486378575857774,0.889030155224422,walk
10/07/2020, 17:20:20,-8.539984,-0.37567315,4.113262,0.3944189,0.11112112,-0.79250115,9.486378575857774,0.8921727652385976,walk
10/07/2020, 17:20:20,-8.724232,-0.36610186,3.9457645,0.3944189,0.11112112,-0.79250115,9.582030447369887,0.8921727652385976,walk
10/07/2020, 17:20:20,-8.724232,-0.36610186,3.9457645,0.3492378,0.109900005,-0.80227005,9.582030447369887,0.8818629670711086,walk
10/07/2020, 17:20:20,-8.941978,-0.26081768,3.7758741,0.3492378,0.109900005,-0.80227005,9.710006696597606,0.8818629670711086,walk
10/07/2020, 17:20:20,-8.941978,-0.26081768,3.7758741,0.30039334,0.10867889,-0.8095967,9.710006696597606,0.870341373760762,walk
10/07/2020, 17:20:20,-9.164511,-0.1363909,3.6490545,0.30039334,0.10867889,-0.8095967,9.865214558397486,0.870341373760762,walk
10/07/2020, 17:20:20,-9.164511,-0.1363909,3.6490545,0.24788557,0.09280445,-0.8095967,9.865214558397486,0.8517668494868325,walk
10/07/2020, 17:20:20,-9.322437,-0.0047856453,3.5653057,0.24788557,0.09280445,-0.8095967,9.980945078770935,0.8517668494868325,walk
10/07/2020, 17:20:20,-9.322437,-0.0047856453,3.5653057,0.18805112,0.06227667,-0.82547116,9.980945078770935,0.8489076790886165,walk
10/07/2020, 17:20:20,-9.432507,0.0,3.4576287,0.18805112,0.06227667,-0.82547116,10.046261814330277,0.8489076790886165,walk
10/07/2020, 17:20:20,-9.432507,0.0,3.4576287,0.13310112,0.034191113,-0.84623003,10.046261814330277,0.8573156969771795,walk
10/07/2020, 17:20:20,-9.49472,-0.11246266,3.4313076,0.13310112,0.034191113,-0.84623003,10.09634765528879,0.8573156969771795,walk
10/07/2020, 17:20:20,-9.49472,-0.11246266,3.4313076,0.10379445,0.028085556,-0.8718734,10.09634765528879,0.8784789550582508,walk
10/07/2020, 17:20:20,-9.466006,-0.23928227,3.3547373,0.10379445,0.028085556,-0.8718734,10.045735070481118,0.8784789550582508,walk
10/07/2020, 17:20:20,-9.466006,-0.23928227,3.3547373,0.08303556,0.029306669,-0.8987378,10.045735070481118,0.9030411932707662,walk
10/07/2020, 17:20:21,-7.3435726,-4.883751,3.6011982,1.064809,0.3052778,-1.3688656,9.526159259097588,1.760910480180379,walk
10/07/2020, 17:20:21,-7.3435726,-4.883751,3.6011982,1.1454023,0.3712178,-1.3932878,9.526159259097588,1.8414667888950538,walk
10/07/2020, 17:20:21,-7.3028946,-4.962714,3.4983068,1.1454023,0.3712178,-1.3932878,9.49731286920822,1.8414667888950538,walk
10/07/2020, 17:20:21,-7.3028946,-4.962714,3.4983068,1.23088,0.43105224,-1.4287001,9.49731286920822,1.934439351842145,walk
10/07/2020, 17:20:21,-7.281359,-5.0656056,3.4504502,1.23088,0.43105224,-1.4287001,9.517571050394213,1.934439351842145,walk
10/07/2020, 17:20:21,-7.281359,-5.0656056,3.4504502,1.3102523,0.5128667,-1.4531223,9.517571050394213,2.0227104679792505,walk
10/07/2020, 17:20:21,-7.3052874,-5.235496,3.4624143,1.3102523,0.5128667,-1.4531223,9.63150843832685,2.0227104679792505,walk
10/07/2020, 17:20:21,-7.3052874,-5.235496,3.4624143,1.3774134,0.5873545,-1.4799867,9.63150843832685,2.1053772763156964,walk
10/07/2020, 17:20:21,-7.3627152,-5.3982077,3.4648073,1.3774134,0.5873545,-1.4799867,9.764994172518096,2.1053772763156964,walk
10/07/2020, 17:20:21,-7.3627152,-5.3982077,3.4648073,1.4006145,0.6459678,-1.5068512,9.764994172518096,2.1562921602345053,walk
10/07/2020, 17:20:21,-7.4153576,-5.4987063,3.4648073,1.4006145,0.6459678,-1.5068512,9.86043553994922,2.1562921602345053,walk
10/07/2020, 17:20:21,-7.4153576,-5.4987063,3.4648073,1.3920667,0.6691689,-1.5300523,9.86043553994922,2.1740967783176153,walk
10/07/2020, 17:20:21,-7.446464,-5.56092,3.5676985,1.3920667,0.6691689,-1.5300523,9.955005175952754,2.1740967783176153,walk
10/07/2020, 17:20:21,-7.446464,-5.56092,3.5676985,1.3920667,0.6777167,-1.5544745,9.955005175952754,2.193978240611047,walk
10/07/2020, 17:20:21,-7.391429,-5.663811,3.6251264,1.3920667,0.6777167,-1.5544745,9.99267333655081,2.193978240611047,walk
10/07/2020, 17:20:21,-7.391429,-5.663811,3.6251264,1.4384689,0.68626446,-1.5837811,9.99267333655081,2.246889943950356,walk
10/07/2020, 17:20:21,-7.2693954,-5.855237,3.6610186,1.4384689,0.68626446,-1.5837811,10.026513174960957,2.246889943950356,walk
10/07/2020, 17:20:21,-7.2693954,-5.855237,3.6610186,1.5544745,0.72534,-1.6204145,10.026513174960957,2.3597144218322708,walk
10/07/2020, 17:20:21,-7.015756,-6.0370917,3.7040894,1.5544745,0.72534,-1.6204145,9.969332423293514,2.3597144218322708,walk
10/07/2020, 17:20:21,-7.015756,-6.0370917,3.7040894,1.7046711,0.81936556,-1.6485001,9.969332423293514,2.5089472220928912,walk
10/07/2020, 17:20:22,-5.127819,-6.6711893,1.4883357,1.29682,-0.84745115,1.0086378,8.544848644170157,1.8485848272055685,walk
10/07/2020, 17:20:22,-3.926622,-8.518449,-0.3804588,1.29682,-0.84745115,1.0086378,9.38760241052984,1.8485848272055685,walk
10/07/2020, 17:20:22,-3.926622,-8.518449,-0.3804588,1.0464922,-0.14409111,0.59956557,9.38760241052984,1.2146551284432554,walk
10/07/2020, 17:20:22,-3.8811584,-10.80838,-1.0576276,1.0464922,-0.14409111,0.59956557,11.532694705668897,1.2146551284432554,walk
10/07/2020, 17:20:22,-3.8811584,-10.80838,-1.0576276,1.3493278,0.41762,0.5189722,11.532694705668897,1.5048003685580011,walk
10/07/2020, 17:20:22,-5.4412785,-11.590833,-1.5816557,1.3493278,0.41762,0.5189722,12.90180410071315,1.5048003685580011,walk
10/07/2020, 17:20:22,-5.4412785,-11.590833,-1.5816557,1.8695211,0.28085557,0.7338878,12.90180410071315,2.0279498111765895,walk
10/07/2020, 17:20:22,-6.6185474,-12.768102,-1.875973,1.8695211,0.28085557,0.7338878,14.503408760608401,2.0279498111765895,walk
10/07/2020, 17:20:22,-6.6185474,-12.768102,-1.875973,1.9073756,-0.27230778,0.82791334,14.503408760608401,2.097063092665174,walk
10/07/2020, 17:20:22,-6.0514483,-12.330215,-0.35413775,1.9073756,-0.27230778,0.82791334,13.73971083261571,2.097063092665174,walk
10/07/2020, 17:20:22,-6.0514483,-12.330215,-0.35413775,1.35177,-0.6337567,0.72411895,13.73971083261571,1.659300470742553,walk
10/07/2020, 17:20:22,-4.24726,-11.775081,1.3519448,1.35177,-0.6337567,0.72411895,12.590452656576078,1.659300470742553,walk
10/07/2020, 17:20:22,-4.24726,-11.775081,1.3519448,0.19293556,-0.67161113,0.53851,12.590452656576078,0.8822010460394732,walk
10/07/2020, 17:20:22,-2.6153553,-11.3371935,2.0267208,0.19293556,-0.67161113,0.53851,11.81014971782356,0.8822010460394732,walk
10/07/2020, 17:20:22,-2.6153553,-11.3371935,2.0267208,-1.0379444,-0.5238567,0.38220778,11.81014971782356,1.22386162692808,walk
10/07/2020, 17:20:22,-2.0291135,-11.645867,2.0410776,-1.0379444,-0.5238567,0.38220778,11.996229650538224,1.22386162692808,walk
10/07/2020, 17:20:22,-2.0291135,-11.645867,2.0410776,-1.7437468,-0.40296668,0.26620224,11.996229650538224,1.8093917572546419,walk
10/07/2020, 17:20:22,-2.4358935,-12.356536,1.3016955,-1.7437468,-0.40296668,0.26620224,12.661436258846493,1.8093917572546419,walk
10/07/2020, 17:20:22,-2.4358935,-12.356536,1.3016955,-1.6875756,-0.4823389,0.10501556,12.661436258846493,1.7582919045021006,walk
10/07/2020, 17:20:22,-3.1537402,-12.914063,0.32542387,-1.6875756,-0.4823389,0.10501556,13.297556641100165,1.7582919045021006,walk
10/07/2020, 17:20:23,-3.3810585,-9.571291,-0.7513463,0.5092034,-0.3052778,0.16240779,10.17868794835601,0.6155151478254065,walk
10/07/2020, 17:20:23,-3.1441689,-9.202796,-1.0576276,0.5092034,-0.3052778,0.16240779,9.782424429907387,0.6155151478254065,walk
10/07/2020, 17:20:23,-3.1441689,-9.202796,-1.0576276,0.46524334,-0.31871,0.15752333,9.782424429907387,0.585526284137762,walk
10/07/2020, 17:20:23,-2.8546374,-8.88455,-1.2873386,0.46524334,-0.31871,0.15752333,9.420266752503569,0.585526284137762,walk
10/07/2020, 17:20:23,-2.8546374,-8.88455,-1.2873386,0.41273558,-0.29062447,0.16240779,9.420266752503569,0.530273072365564,walk
10/07/2020, 17:20:23,-2.696711,-9.020942,-1.5170496,0.41273558,-0.29062447,0.16240779,9.53682754764343,0.530273072365564,walk
10/07/2020, 17:20:23,-2.696711,-9.020942,-1.5170496,0.41395667,-0.24300112,0.13920668,9.53682754764343,0.4997881239686882,walk
10/07/2020, 17:20:23,-2.7469604,-9.221938,-1.6534405,0.41395667,-0.24300112,0.13920668,9.763390793510473,0.4997881239686882,walk
10/07/2020, 17:20:23,-2.7469604,-9.221938,-1.6534405,0.5226356,-0.21003112,0.09524667,9.763390793510473,0.571255590251506,walk
10/07/2020, 17:20:23,-3.0173492,-9.461221,-1.6558332,0.5226356,-0.21003112,0.09524667,10.067813968449425,0.571255590251506,walk
10/07/2020, 17:20:23,-3.0173492,-9.461221,-1.6558332,0.68260115,-0.20514667,0.06105556,10.067813968449425,0.7153721220150477,walk
10/07/2020, 17:20:23,-3.3547373,-9.439685,-1.4596218,0.68260115,-0.20514667,0.06105556,10.123853436101854,0.7153721220150477,walk
10/07/2020, 17:20:23,-3.3547373,-9.439685,-1.4596218,0.78761667,-0.22468445,0.06105556,10.123853436101854,0.8213104779445649,walk
10/07/2020, 17:20:23,-3.7016966,-9.193225,-1.3208381,0.78761667,-0.22468445,0.06105556,9.998127596279925,0.8213104779445649,walk
10/07/2020, 17:20:23,-3.7016966,-9.193225,-1.3208381,0.77906895,-0.27719223,0.08059334,9.998127596279925,0.830830455349679,walk
10/07/2020, 17:20:23,-3.9433718,-8.822337,-1.1916257,0.77906895,-0.27719223,0.08059334,9.736723554647522,0.830830455349679,walk
10/07/2020, 17:20:23,-3.9433718,-8.822337,-1.1916257,0.6874856,-0.35412225,0.10867889,9.736723554647522,0.780928989877019,walk
10/07/2020, 17:20:23,-4.098905,-8.628518,-0.90448695,0.6874856,-0.35412225,0.10867889,9.59533450376903,0.780928989877019,walk
10/07/2020, 17:20:23,-4.098905,-8.628518,-0.90448695,0.45181113,-0.4383789,0.13188,9.59533450376903,0.6431964678258918,walk
10/07/2020, 17:20:23,-4.0869412,-8.800801,-0.42592242,0.45181113,-0.4383789,0.13188,9.712806069738098,0.6431964678258918,walk
10/07/2020, 17:20:24,-10.078569,2.6679974,-0.83988076,-0.42861003,-0.08669889,-0.18316667,10.45950147042916,0.47410260575685925,walk
10/07/2020, 17:20:24,-10.423136,2.400001,-1.2466606,-0.42861003,-0.08669889,-0.18316667,10.768283367400974,0.47410260575685925,walk
10/07/2020, 17:20:24,-10.423136,2.400001,-1.2466606,-0.6032289,-0.081814446,-0.27475002,10.768283367400974,0.6678819635170141,walk
10/07/2020, 17:20:24,-10.782059,1.550549,-1.1796615,-0.6032289,-0.081814446,-0.27475002,10.956668915804286,0.6678819635170141,walk
10/07/2020, 17:20:24,-10.782059,1.550549,-1.1796615,-0.45059,-0.06594,-0.25643334,10.956668915804286,0.5226255844720129,walk
10/07/2020, 17:20:24,-11.040483,0.7800602,-1.2083755,-0.45059,-0.06594,-0.25643334,11.13377476265761,0.5226255844720129,walk
10/07/2020, 17:20:24,-11.040483,0.7800602,-1.2083755,-0.19782001,-0.042738892,-0.16485001,11.13377476265761,0.26102661678183636,walk
10/07/2020, 17:20:24,-11.0811615,0.5192425,-1.7491534,-0.19782001,-0.042738892,-0.16485001,11.230373568976892,0.26102661678183636,walk
10/07/2020, 17:20:24,-11.0811615,0.5192425,-1.7491534,-0.14287001,-0.091583334,-0.057392225,11.230373568976892,0.1791457896758049,walk
10/07/2020, 17:20:24,-10.983056,1.0025927,-2.1822543,-0.14287001,-0.091583334,-0.057392225,11.242550715143057,0.1791457896758049,walk
10/07/2020, 17:20:24,-10.983056,1.0025927,-2.1822543,-0.36877558,-0.21613668,0.03297,11.242550715143057,0.428716118953539,walk
10/07/2020, 17:20:24,-10.844273,1.8807586,-2.024328,-0.36877558,-0.21613668,0.03297,11.190773226863092,0.428716118953539,walk
10/07/2020, 17:20:24,-10.844273,1.8807586,-2.024328,-0.8755367,-0.26620224,0.15874445,11.190773226863092,0.9287776447683839,walk
10/07/2020, 17:20:24,-10.57149,2.629712,-1.5529419,-0.8755367,-0.26620224,0.15874445,11.003791222147079,0.9287776447683839,walk
10/07/2020, 17:20:24,-10.57149,2.629712,-1.5529419,-1.56058,-0.2075889,0.25521225,11.003791222147079,1.5948781849415636,walk
10/07/2020, 17:20:24,-10.2317095,2.9240294,-1.1222339,-1.56058,-0.2075889,0.25521225,10.70033809671267,1.5948781849415636,walk
10/07/2020, 17:20:24,-10.2317095,2.9240294,-1.1222339,-2.1430502,-0.13676445,0.22590557,10.70033809671267,2.1592595892498827,walk
10/07/2020, 17:20:24,-9.868001,2.510071,-0.8566305,-2.1430502,-0.13676445,0.22590557,10.21820511961128,2.1592595892498827,walk
10/07/2020, 17:20:24,-9.868001,2.510071,-0.8566305,-2.4178002,-0.12577444,0.13310112,10.21820511961128,2.424725318104569,walk
10/07/2020, 17:20:24,-9.690931,1.4356936,-0.75613195,-2.4178002,-0.12577444,0.13310112,9.825838465453614,2.424725318104569,walk
10/07/2020, 17:20:25,-9.128618,-4.278367,-3.103491,-0.3931978,-0.2955089,-0.4689067,10.54835306279251,0.6795612646067846,walk
10/07/2020, 17:20:25,-9.159725,-4.9196434,-3.3786657,-0.3931978,-0.2955089,-0.4689067,10.932467176308625,0.6795612646067846,walk
10/07/2020, 17:20:25,-9.159725,-4.9196434,-3.3786657,-0.09524667,-0.20148334,-0.4481478,10.932467176308625,0.500503664714517,walk
10/07/2020, 17:20:25,-9.123833,-5.2139606,-3.6107693,-0.09524667,-0.20148334,-0.4481478,11.111586905333903,0.500503664714517,walk
10/07/2020, 17:20:25,-9.123833,-5.2139606,-3.6107693,0.21247335,-0.08669889,-0.40907225,11.111586905333903,0.4690434167788655,walk
10/07/2020, 17:20:25,-9.135797,-5.261817,-3.8644085,0.21247335,-0.08669889,-0.40907225,11.228675320929733,0.4690434167788655,walk
10/07/2020, 17:20:25,-9.135797,-5.261817,-3.8644085,0.5043189,0.01099,-0.3834289,11.228675320929733,0.6336213761815779,walk
10/07/2020, 17:20:25,-9.205189,-5.3742795,-3.7088752,0.5043189,0.01099,-0.3834289,11.286015026355004,0.6336213761815779,walk
10/07/2020, 17:20:25,-9.205189,-5.3742795,-3.7088752,0.6618422,0.12699556,-0.36999667,11.286015026355004,0.7688046176307434,walk
10/07/2020, 17:20:25,-9.245867,-5.4723854,-3.2398818,0.6618422,0.12699556,-0.36999667,11.221848700064223,0.7688046176307434,walk
10/07/2020, 17:20:25,-9.245867,-5.4723854,-3.2398818,0.57148004,0.22102112,-0.38220778,11.221848700064223,0.7221651838971381,walk
10/07/2020, 17:20:25,-9.284152,-5.400601,-2.6009982,0.57148004,0.22102112,-0.38220778,11.051115806555366,0.7221651838971381,walk
10/07/2020, 17:20:25,-9.284152,-5.400601,-2.6009982,0.25765446,0.25765446,-0.44082114,11.051115806555366,0.571922125908936,walk
10/07/2020, 17:20:25,-9.128618,-4.996214,-2.361716,0.25765446,0.25765446,-0.44082114,10.671060259327614,0.571922125908936,walk
10/07/2020, 17:20:25,-9.128618,-4.996214,-2.361716,-0.18316667,0.17584,-0.51775116,10.671060259327614,0.5766593418344964,walk
10/07/2020, 17:20:25,-8.977871,-4.4434714,-2.1894326,-0.18316667,0.17584,-0.51775116,10.25379052851635,0.5766593418344964,walk
10/07/2020, 17:20:25,-8.977871,-4.4434714,-2.1894326,-0.6203245,0.0036633336,-0.5800278,10.25379052851635,0.8492633080467336,walk
10/07/2020, 17:20:25,-8.903693,-4.2281175,-1.9669002,-0.6203245,0.0036633336,-0.5800278,10.050941568003408,0.8492633080467336,walk
10/07/2020, 17:20:25,-8.903693,-4.2281175,-1.9669002,-0.9329289,-0.14164889,-0.5910178,10.050941568003408,1.1134283975525339,walk
10/07/2020, 17:20:25,-8.705089,-4.2281175,-1.8400806,-0.9329289,-0.14164889,-0.5910178,9.8509614653715,1.1134283975525339,walk
10/07/2020, 17:20:26,-9.600004,-0.5694918,-0.9667004,-0.22468445,-0.29184556,0.37366003,9.665345886000352,0.5246701327421287,walk
10/07/2020, 17:20:26,-9.506684,-0.7298109,-1.0241281,-0.22468445,-0.29184556,0.37366003,9.589499919478008,0.5246701327421287,walk
10/07/2020, 17:20:26,-9.506684,-0.7298109,-1.0241281,-0.30894113,-0.4041878,0.34679556,9.589499919478008,0.61569436850046,walk
10/07/2020, 17:20:26,-9.47797,-0.8207382,-0.5383851,-0.30894113,-0.4041878,0.34679556,9.52866136209991,0.61569436850046,walk
10/07/2020, 17:20:26,-9.47797,-0.8207382,-0.5383851,-0.43960002,-0.47257003,0.40296668,9.52866136209991,0.7608894511546661,walk
10/07/2020, 17:20:26,-9.29133,-1.0145568,-0.10049855,-0.43960002,-0.47257003,0.40296668,9.347098203721702,0.7608894511546661,walk
10/07/2020, 17:20:26,-9.29133,-1.0145568,-0.10049855,-0.44570556,-0.39686114,0.45791668,9.347098203721702,0.7522232999886158,walk
10/07/2020, 17:20:26,-9.006584,-1.5864414,-0.4833502,-0.44570556,-0.39686114,0.45791668,9.158000987002364,0.7522232999886158,walk
10/07/2020, 17:20:26,-9.006584,-1.5864414,-0.4833502,-0.18194556,-0.24788557,0.46646446,9.158000987002364,0.5586953872989969,walk
10/07/2020, 17:20:26,-8.779266,-2.0075781,-1.0839486,-0.18194556,-0.24788557,0.46646446,9.070878255976561,0.5586953872989969,walk
10/07/2020, 17:20:26,-8.779266,-2.0075781,-1.0839486,0.28329778,-0.15752333,0.53851,9.070878255976561,0.6285413891334544,walk
10/07/2020, 17:20:26,-8.599805,-2.0410776,-1.4141582,0.28329778,-0.15752333,0.53851,8.951116425055362,0.6285413891334544,walk
10/07/2020, 17:20:26,-8.599805,-2.0410776,-1.4141582,0.6386411,-0.09524667,0.6764956,8.951116425055362,0.9351902053242925,walk
10/07/2020, 17:20:26,-8.547162,-1.6462619,-1.3950156,0.6386411,-0.09524667,0.6764956,8.815340383191815,0.9351902053242925,walk
10/07/2020, 17:20:26,-8.547162,-1.6462619,-1.3950156,0.8364611,-0.03297,0.76075226,8.815340383191815,1.1311490793418635,walk
10/07/2020, 17:20:26,-8.477771,-1.2299109,-1.3208381,0.8364611,-0.03297,0.76075226,8.667750100133,1.1311490793418635,walk
10/07/2020, 17:20:26,-8.477771,-1.2299109,-1.3208381,0.9414767,0.12577444,0.7668578,8.667750100133,1.2207655311636298,walk
10/07/2020, 17:20:26,-8.518449,-1.3734802,-1.5122639,0.9414767,0.12577444,0.7668578,8.759986324796529,1.2207655311636298,walk
10/07/2020, 17:20:26,-8.518449,-1.3734802,-1.5122639,1.064809,0.34801668,0.70336,8.759986324796529,1.3227430059281362,walk
10/07/2020, 17:20:26,-8.705089,-2.0841484,-2.0315065,1.064809,0.34801668,0.70336,9.178739630261022,1.3227430059281362,walk
10/07/2020, 17:20:27,-12.6987095,-2.87378,0.7800602,1.0013112,1.1075479,-3.6889768,13.043171703564,3.97967787141826,walk
10/07/2020, 17:20:27,-12.6987095,-2.87378,0.7800602,0.93903446,1.0257334,-3.525348,13.043171703564,3.789721993045643,walk
10/07/2020, 17:20:27,-12.1866455,-2.7684958,0.6987042,0.93903446,1.0257334,-3.525348,12.516672291496985,3.789721993045643,walk
10/07/2020, 17:20:27,-12.1866455,-2.7684958,0.6987042,0.80471224,0.92560226,-3.350729,12.516672291496985,3.5681488305063063,walk
10/07/2020, 17:20:27,-11.586047,-2.6799614,0.63170516,0.80471224,0.92560226,-3.350729,11.908725113778045,3.5681488305063063,walk
10/07/2020, 17:20:27,-11.586047,-2.6799614,0.63170516,0.6227667,0.8266923,-3.1541302,11.908725113778045,3.3196077943113367,walk
10/07/2020, 17:20:27,-10.916057,-2.6153553,0.57188463,0.6227667,0.8266923,-3.1541302,11.239547479669945,3.3196077943113367,walk
10/07/2020, 17:20:27,-10.916057,-2.6153553,0.57188463,0.42983112,0.7338878,-2.9514258,11.239547479669945,3.071524097041744,walk
10/07/2020, 17:20:27,-10.246066,-2.5962126,0.5694918,0.42983112,0.7338878,-2.9514258,10.585202468658014,3.071524097041744,walk
10/07/2020, 17:20:27,-10.246066,-2.5962126,0.5694918,0.25277,0.64963114,-2.7230778,10.585202468658014,2.8108834663207807,walk
10/07/2020, 17:20:27,-9.578469,-2.617748,0.6053841,0.25277,0.64963114,-2.7230778,9.948174119350812,2.8108834663207807,walk
10/07/2020, 17:20:27,-9.578469,-2.617748,0.6053841,0.11600556,0.57270116,-2.4874034,9.948174119350812,2.5551163463113085,walk
10/07/2020, 17:20:27,-8.963513,-2.672783,0.64606214,0.11600556,0.57270116,-2.4874034,9.375805923466972,2.5551163463113085,walk
10/07/2020, 17:20:27,-8.963513,-2.672783,0.64606214,0.03174889,0.5153089,-2.2382967,9.375805923466972,2.2970684796338743,walk
10/07/2020, 17:20:27,-8.372486,-2.713461,0.62452674,0.03174889,0.5153089,-2.2382967,8.823345599144046,2.2970684796338743,walk
10/07/2020, 17:20:27,-8.372486,-2.713461,0.62452674,-0.0036633336,0.47257003,-1.9782001,8.823345599144046,2.0338661223606533,walk
10/07/2020, 17:20:27,-7.836494,-2.7110682,0.5982057,-0.0036633336,0.47257003,-1.9782001,8.313746345672602,2.0338661223606533,walk
10/07/2020, 17:20:27,-7.836494,-2.7110682,0.5982057,0.0,0.44570556,-1.7119979,8.313746345672602,1.7690647653732607,walk
10/07/2020, 17:20:27,-7.381858,-2.6751757,0.47377887,0.0,0.44570556,-1.7119979,7.865930136479738,1.7690647653732607,walk
10/07/2020, 17:20:27,-7.381858,-2.6751757,0.47377887,0.024422223,0.4249467,-1.4445745,7.865930136479738,1.505978603331175,walk
10/07/2020, 17:20:28,-4.6205406,-3.0125637,-5.328816,-1.8231189,0.8877478,-0.88408446,7.6694990045705165,2.212117571994112,walk
10/07/2020, 17:20:28,-4.7569313,-3.1058838,-4.991428,-1.8231189,0.8877478,-0.88408446,7.562358250717535,2.212117571994112,walk
10/07/2020, 17:20:28,-4.7569313,-3.1058838,-4.991428,-1.5630223,1.0867889,-0.89019006,7.562358250717535,2.1015677532466697,walk
10/07/2020, 17:20:28,-4.955536,-2.8689942,-4.5320063,-1.5630223,1.0867889,-0.89019006,7.302571098221987,2.1015677532466697,walk
10/07/2020, 17:20:28,-4.955536,-2.8689942,-4.5320063,-1.2382067,1.3713078,-1.0232911,7.302571098221987,2.1120525226322564,walk
10/07/2020, 17:20:28,-5.304888,-2.4311078,-4.6612186,-1.2382067,1.3713078,-1.0232911,7.468539244533058,2.1120525226322564,walk
10/07/2020, 17:20:28,-5.304888,-2.4311078,-4.6612186,-1.2223322,1.6411734,-1.2870512,7.468539244533058,2.417446359913939,walk
10/07/2020, 17:20:28,-6.108876,-2.1296122,-4.833502,-1.2223322,1.6411734,-1.2870512,8.075664476088,2.417446359913939,walk
10/07/2020, 17:20:28,-6.108876,-2.1296122,-4.833502,-1.6460578,1.7889278,-1.5080723,8.075664476088,2.8607780426229468,walk
10/07/2020, 17:20:28,-7.23111,-1.753939,-4.9674997,-1.6460578,1.7889278,-1.5080723,8.946580852322263,2.8607780426229468,walk
10/07/2020, 17:20:28,-7.23111,-1.753939,-4.9674997,-2.262719,1.812129,-1.6729223,8.946580852322263,3.3469952714037574,walk
10/07/2020, 17:20:28,-8.52802,-1.5098711,-5.3096733,-2.262719,1.812129,-1.6729223,10.15871374575367,3.3469952714037574,walk
10/07/2020, 17:20:28,-8.52802,-1.5098711,-5.3096733,-2.90136,1.6436156,-1.7620634,10.15871374575367,3.7715023099141542,walk
10/07/2020, 17:20:28,-9.712467,-1.8041883,-5.163711,-2.90136,1.6436156,-1.7620634,11.146794438697395,3.7715023099141542,walk
10/07/2020, 17:20:28,-9.712467,-1.8041883,-5.163711,-3.4679556,1.3993934,-1.7449678,11.146794438697395,4.1267336543588895,walk
10/07/2020, 17:20:28,-10.578669,-2.3569303,-4.881358,-3.4679556,1.3993934,-1.7449678,11.88658936854774,4.1267336543588895,walk
10/07/2020, 17:20:28,-10.578669,-2.3569303,-4.881358,-3.7659068,1.240649,-1.6949023,11.88658936854774,4.312071175254739,walk
10/07/2020, 17:20:28,-10.908878,-3.2159536,-4.465007,-3.7659068,1.240649,-1.6949023,12.218112366510683,4.312071175254739,walk
10/07/2020, 17:20:28,-10.908878,-3.2159536,-4.465007,-3.8941236,1.1087689,-1.669259,12.218112366510683,4.379496805245498,walk
10/07/2020, 17:20:28,-10.851451,-4.5894337,-3.7543387,-3.8941236,1.1087689,-1.669259,12.365757068114553,4.379496805245498,walk
10/07/2020, 17:20:29,-15.261423,-2.8115666,-0.9212367,-1.9843056,-0.66062117,-0.61299783,15.54556589883495,2.1793704272291383,walk
10/07/2020, 17:20:29,-15.261423,-2.8115666,-0.9212367,-1.9391245,-1.1808145,-0.49821335,15.54556589883495,2.3243801599426672,walk
10/07/2020, 17:20:29,-14.957535,-3.3690944,-0.078963146,-1.9391245,-1.1808145,-0.49821335,15.332477916490188,2.3243801599426672,walk
10/07/2020, 17:20:29,-14.957535,-3.3690944,-0.078963146,-1.8695211,-1.4689968,-0.38220778,15.332477916490188,2.408141103659631,walk
10/07/2020, 17:20:29,-13.672588,-3.9744785,0.16031912,-1.8695211,-1.4689968,-0.38220778,14.239447095236978,2.408141103659631,walk
10/07/2020, 17:20:29,-13.672588,-3.9744785,0.16031912,-1.67048,-1.4079412,-0.31260446,14.239447095236978,2.2069262573192874,walk
10/07/2020, 17:20:29,-12.01197,-4.130012,0.043070808,-1.67048,-1.4079412,-0.31260446,12.702215057603535,2.2069262573192874,walk
10/07/2020, 17:20:29,-12.01197,-4.130012,0.043070808,-1.3188001,-1.1734878,-0.2869611,12.702215057603535,1.7884781059238952,walk
10/07/2020, 17:20:29,-10.583454,-4.1467614,0.45224348,-1.3188001,-1.1734878,-0.2869611,11.375836487097256,1.7884781059238952,walk
10/07/2020, 17:20:29,-10.583454,-4.1467614,0.45224348,-0.9292656,-0.98910004,-0.26376,11.375836487097256,1.3825421564662548,walk
10/07/2020, 17:20:29,-9.487542,-3.7854455,1.2849457,-0.9292656,-0.98910004,-0.26376,10.295345495975823,1.3825421564662548,walk
10/07/2020, 17:20:29,-9.487542,-3.7854455,1.2849457,-0.39564002,-0.8437878,-0.19293556,10.295345495975823,0.9517000495055745,walk
10/07/2020, 17:20:29,-8.7577305,-3.2327034,2.091327,-0.39564002,-0.8437878,-0.19293556,9.56670597588708,0.9517000495055745,walk
10/07/2020, 17:20:29,-8.7577305,-3.2327034,2.091327,0.007326667,-0.7070234,-0.10135223,9.56670597588708,0.7142884693730427,walk
10/07/2020, 17:20:29,-8.193025,-2.7756743,1.227518,0.007326667,-0.7070234,-0.10135223,8.737094544642593,0.7142884693730427,walk
10/07/2020, 17:20:29,-8.193025,-2.7756743,1.227518,0.16729222,-0.6459678,-0.070824444,8.737094544642593,0.6710269475744872,walk
10/07/2020, 17:20:29,-7.7407813,-2.306681,-0.21296121,0.16729222,-0.6459678,-0.070824444,8.079964392261298,0.6710269475744872,walk
10/07/2020, 17:20:29,-7.7407813,-2.306681,-0.21296121,0.20026223,-0.69114894,-0.07326667,8.079964392261298,0.7232978777306879,walk
10/07/2020, 17:20:29,-7.3435726,-1.7060826,-0.91884387,0.20026223,-0.69114894,-0.07326667,7.594935852404241,0.7232978777306879,walk
10/07/2020, 17:20:29,-7.3435726,-1.7060826,-0.91884387,0.30039334,-0.7815111,-0.054950003,7.594935852404241,0.8390561997823257,walk
10/07/2020, 17:20:30,-3.591627,-6.95115,0.9882358,-0.37732336,-1.5984346,-1.0782411,7.886373000248142,1.9646806037691118,walk
10/07/2020, 17:20:30,-3.591627,-6.95115,0.9882358,0.24178001,-1.4030567,-1.2687345,7.886373000248142,1.9070167566085938,walk
10/07/2020, 17:20:30,-3.644269,-7.2502527,1.2777673,0.24178001,-1.4030567,-1.2687345,8.21459373920694,1.9070167566085938,walk
10/07/2020, 17:20:30,-3.644269,-7.2502527,1.2777673,0.6874856,-1.0330601,-1.2467545,8.21459373920694,1.7590470101094717,walk
10/07/2020, 17:20:30,-3.885944,-6.800402,1.1485549,0.6874856,-1.0330601,-1.2467545,7.916135920923729,1.7590470101094717,walk
10/07/2020, 17:20:30,-3.885944,-6.800402,1.1485549,0.88408446,-0.8523356,-1.2723979,7.916135920923729,1.7683544949879102,walk
10/07/2020, 17:20:30,-4.5942197,-5.7667027,1.0313065,0.88408446,-0.8523356,-1.2723979,7.44481746548383,1.7683544949879102,walk
10/07/2020, 17:20:30,-4.5942197,-5.7667027,1.0313065,0.86576784,-0.9292656,-1.4335845,7.44481746548383,1.9152683666592223,walk
10/07/2020, 17:20:30,-5.261817,-4.9674997,1.0289137,0.86576784,-0.9292656,-1.4335845,7.308996852418118,1.9152683666592223,walk
10/07/2020, 17:20:30,-5.261817,-4.9674997,1.0289137,0.7119078,-1.0049745,-1.6191934,7.308996852418118,2.034348498861849,walk
10/07/2020, 17:20:30,-5.6350975,-4.0845485,0.9738788,0.7119078,-1.0049745,-1.6191934,7.027538689027146,2.034348498861849,walk
10/07/2020, 17:20:30,-5.6350975,-4.0845485,0.9738788,0.6142189,-1.2089001,-1.7303145,7.027538689027146,2.1983385836376157,walk
10/07/2020, 17:20:30,-5.84088,-3.5389848,1.1940185,0.6142189,-1.2089001,-1.7303145,6.932962684607794,2.1983385836376157,walk
10/07/2020, 17:20:30,-5.84088,-3.5389848,1.1940185,0.64841,-1.5569167,-1.7950335,6.932962684607794,2.4630408674242137,walk
10/07/2020, 17:20:30,-5.8935223,-3.562913,1.6151553,0.64841,-1.5569167,-1.7950335,7.073661007874273,2.4630408674242137,walk
10/07/2020, 17:20:30,-5.8935223,-3.562913,1.6151553,0.53484666,-1.7083346,-1.8951645,7.073661007874273,2.606936206191943,walk
10/07/2020, 17:20:30,-4.6636114,-4.082155,1.8664017,0.53484666,-1.7083346,-1.8951645,6.472767407215331,2.606936206191943,walk
10/07/2020, 17:20:30,-4.6636114,-4.082155,1.8664017,0.6789378,-1.4177101,-1.8267823,6.472767407215331,2.4099776131895023,walk
10/07/2020, 17:20:30,-3.8739798,-4.1778684,1.9262222,0.6789378,-1.4177101,-1.8267823,6.014369095222668,2.4099776131895023,walk
10/07/2020, 17:20:30,-3.8739798,-4.1778684,1.9262222,1.2235534,-1.1295278,-1.8353301,6.014369095222668,2.4781752799076,walk
10/07/2020, 17:20:31,-9.738789,-7.322037,2.143969,-0.9524667,-0.1746189,3.2383869,12.371452455743984,3.380064221429797,walk
10/07/2020, 17:20:31,-9.738789,-7.322037,2.143969,-0.8621045,-0.18438779,3.25304,12.371452455743984,3.370384653807976,walk
10/07/2020, 17:20:31,-9.698111,-7.0229344,2.2348964,-0.8621045,-0.18438779,3.25304,12.180710937733592,3.370384653807976,walk
10/07/2020, 17:20:31,-9.698111,-7.0229344,2.2348964,-0.67039,-0.059834447,3.3470657,12.180710937733592,3.414066730551799,walk
10/07/2020, 17:20:31,-9.745967,-7.092326,2.2229323,-0.67039,-0.059834447,3.3470657,12.256687547580327,3.414066730551799,walk
10/07/2020, 17:20:31,-9.745967,-7.092326,2.2229323,-0.5592689,-0.03174889,3.4227746,12.256687547580327,3.468310154546541,walk
10/07/2020, 17:20:31,-9.554541,-6.8219376,2.2181466,-0.5592689,-0.03174889,3.4227746,11.947730035008975,3.468310154546541,walk
10/07/2020, 17:20:31,-9.554541,-6.8219376,2.2181466,-0.46402225,-0.0012211112,3.4130056,11.947730035008975,3.4444049266935584,walk
10/07/2020, 17:20:31,-9.470792,-6.5659056,2.2995026,-0.46402225,-0.0012211112,3.4130056,11.751371233234796,3.4444049266935584,walk
10/07/2020, 17:20:31,-9.470792,-6.5659056,2.2995026,-0.32970002,0.035412222,3.41789,11.751371233234796,3.4339377795733674,walk
10/07/2020, 17:20:31,-9.578469,-6.4677997,2.3306093,-0.32970002,0.035412222,3.41789,11.79030304856993,3.4339377795733674,walk
10/07/2020, 17:20:31,-9.578469,-6.4677997,2.3306093,-0.16729222,0.08059334,3.4239957,11.79030304856993,3.429027377482953,walk
10/07/2020, 17:20:31,-9.777073,-6.501299,2.268396,-0.16729222,0.08059334,3.4239957,11.958413859117467,3.429027377482953,walk
10/07/2020, 17:20:31,-9.777073,-6.501299,2.268396,-0.01099,0.15019667,3.3861413,11.958413859117467,3.3894885639521535,walk
10/07/2020, 17:20:31,-10.1288185,-6.6305118,2.3401806,-0.01099,0.15019667,3.3861413,12.330170155507332,3.3894885639521535,walk
10/07/2020, 17:20:31,-10.1288185,-6.6305118,2.3401806,0.14897557,0.17339778,3.283568,12.330170155507332,3.2915161702080358,walk
10/07/2020, 17:20:31,-10.51167,-6.728617,2.416751,0.14897557,0.17339778,3.283568,12.712599372843332,3.2915161702080358,walk
10/07/2020, 17:20:31,-10.51167,-6.728617,2.416751,0.30405667,0.15019667,3.1687834,12.712599372843332,3.1868790224879473,walk
10/07/2020, 17:20:31,-10.669596,-6.838687,2.4263222,0.30405667,0.15019667,3.1687834,12.90329227068195,3.1868790224879473,walk
10/07/2020, 17:20:31,-10.669596,-6.838687,2.4263222,0.42250445,0.13920668,3.0820847,12.90329227068195,3.1140222123100343,walk
10/07/2020, 17:20:32,-8.240881,-3.6921253,1.605584,-0.29673,0.33336335,0.4273889,9.171794183430768,0.617932927713978,walk
10/07/2020, 17:20:32,-8.23131,-3.8763726,1.7324036,-0.29673,0.33336335,0.4273889,9.261854523882683,0.617932927713978,walk
10/07/2020, 17:20:32,-8.23131,-3.8763726,1.7324036,-0.16485001,0.32725778,0.5458367,9.261854523882683,0.65742746465013,walk
10/07/2020, 17:20:32,-8.3174515,-4.1036906,1.7491534,-0.16485001,0.32725778,0.5458367,9.438210282887738,0.65742746465013,walk
10/07/2020, 17:20:32,-8.3174515,-4.1036906,1.7491534,-0.036633335,0.31016225,0.66062117,9.438210282887738,0.7307276821716875,walk
10/07/2020, 17:20:32,-8.492127,-4.3788652,1.7084754,-0.036633335,0.31016225,0.66062117,9.706161801973789,0.7307276821716875,walk
10/07/2020, 17:20:32,-8.492127,-4.3788652,1.7084754,0.06349778,0.29795113,0.75953114,9.706161801973789,0.8183485800745547,walk
10/07/2020, 17:20:32,-8.626125,-4.6229334,1.6414764,0.06349778,0.29795113,0.75953114,9.923507251101578,0.8183485800745547,walk
10/07/2020, 17:20:32,-8.626125,-4.6229334,1.6414764,0.13676445,0.30405667,0.82547116,9.923507251101578,0.890257051110451,walk
10/07/2020, 17:20:32,-8.685946,-4.6707897,1.524228,0.13676445,0.30405667,0.82547116,9.979239124588975,0.890257051110451,walk
10/07/2020, 17:20:32,-8.685946,-4.6707897,1.524228,0.16362889,0.29917222,0.88408446,9.979239124588975,0.9475672908660924,walk
10/07/2020, 17:20:32,-8.626125,-4.613362,1.3854443,0.16362889,0.29917222,0.88408446,9.879908987171605,0.9475672908660924,walk
10/07/2020, 17:20:32,-8.626125,-4.613362,1.3854443,0.11112112,0.2759711,0.9646778,9.879908987171605,1.0095103948900224,walk
10/07/2020, 17:20:32,-8.595019,-4.5391846,1.294517,0.11112112,0.2759711,0.9646778,9.805831346433452,1.0095103948900224,walk
10/07/2020, 17:20:32,-8.595019,-4.5391846,1.294517,-0.0012211112,0.25277,1.0745778,9.805831346433452,1.1039074388918235,walk
10/07/2020, 17:20:32,-8.568698,-4.469793,1.2346965,-0.0012211112,0.25277,1.0745778,9.743003013888835,1.1039074388918235,walk
10/07/2020, 17:20:32,-8.568698,-4.469793,1.2346965,-0.098910004,0.25643334,1.1918045,9.743003013888835,1.2230859655791486,walk
10/07/2020, 17:20:32,-8.578269,-4.510471,1.2059826,-0.098910004,0.25643334,1.1918045,9.766547010677005,1.2230859655791486,walk
10/07/2020, 17:20:32,-8.578269,-4.510471,1.2059826,-0.15141778,0.28329778,1.3029256,9.766547010677005,1.3419389174644374,walk
10/07/2020, 17:20:32,-8.683554,-4.666004,1.2705889,-0.15141778,0.28329778,1.3029256,9.93932069564096,1.3419389174644374,walk
10/07/2020, 17:20:33,-11.624332,-0.7728817,-1.1102697,-2.7316256,-1.3871822,0.7900589,11.702783823876416,3.163897251975593,walk
10/07/2020, 17:20:33,-11.624332,-0.7728817,-1.1102697,-2.8219879,-1.3884034,0.84745115,11.702783823876416,3.257215531787255,walk
10/07/2020, 17:20:33,-12.007184,-0.96430755,-1.4189439,-2.8219879,-1.3884034,0.84745115,12.129128537614378,3.257215531787255,walk
10/07/2020, 17:20:33,-12.007184,-0.96430755,-1.4189439,-2.97829,-1.3798556,0.8621045,12.129128537614378,3.3937350369056727,walk
10/07/2020, 17:20:33,-12.373286,-0.98584294,-1.672583,-2.97829,-1.3798556,0.8621045,12.524680942178895,3.3937350369056727,walk
10/07/2020, 17:20:33,-12.373286,-0.98584294,-1.672583,-3.1932056,-1.3713078,0.83524,12.524680942178895,3.5741674638392973,walk
10/07/2020, 17:20:33,-12.638889,-0.8327023,-1.8592232,-3.1932056,-1.3713078,0.83524,12.80201652967234,3.5741674638392973,walk
10/07/2020, 17:20:33,-12.638889,-0.8327023,-1.8592232,-3.4459758,-1.4103833,0.80593336,12.80201652967234,3.80965337408184,walk
10/07/2020, 17:20:33,-12.736995,-0.6125626,-1.861616,-3.4459758,-1.4103833,0.80593336,12.886887995787445,3.80965337408184,walk
10/07/2020, 17:20:33,-12.736995,-0.6125626,-1.861616,-3.699967,-1.4763234,0.7778478,12.886887995787445,4.058858588230241,walk
10/07/2020, 17:20:33,-12.653246,-0.4546363,-1.6582261,-3.699967,-1.4763234,0.7778478,12.769535643001376,4.058858588230241,walk
10/07/2020, 17:20:33,-12.653246,-0.4546363,-1.6582261,-3.8843546,-1.5276101,0.7778478,12.769535643001376,4.2458038507358395,walk
10/07/2020, 17:20:33,-12.363714,-0.4139583,-1.2634103,-3.8843546,-1.5276101,0.7778478,12.434990808707264,4.2458038507358395,walk
10/07/2020, 17:20:33,-12.363714,-0.4139583,-1.2634103,-3.964948,-1.5495901,0.7973856,12.434990808707264,4.331035144443876,walk
10/07/2020, 17:20:33,-12.040684,-0.51445687,-0.8039884,-3.964948,-1.5495901,0.7973856,12.078457198303116,4.331035144443876,walk
10/07/2020, 17:20:33,-12.040684,-0.51445687,-0.8039884,-3.9258723,-1.5532534,0.80227005,12.078457198303116,4.297523347552407,walk
10/07/2020, 17:20:33,-11.787045,-0.7106683,-0.2536392,-3.9258723,-1.5532534,0.80227005,11.811172716794697,4.297523347552407,walk
10/07/2020, 17:20:33,-11.787045,-0.7106683,-0.2536392,-3.7732334,-1.5202833,0.81936556,11.811172716794697,4.149688151531731,walk
10/07/2020, 17:20:33,-11.60519,-0.96909314,0.2536392,-3.7732334,-1.5202833,0.81936556,11.648343904981827,4.149688151531731,walk
10/07/2020, 17:20:33,-11.60519,-0.96909314,0.2536392,-3.548549,-1.4946401,0.8486723,11.648343904981827,3.9428914827227683,walk
10/07/2020, 17:20:34,-4.752146,-8.784052,0.6556334,0.50798225,0.32115224,0.41762,10.008611903325452,0.7318409654982386,walk
10/07/2020, 17:20:34,-4.5918264,-8.736196,0.5694918,0.50798225,0.32115224,0.41762,9.885863841698775,0.7318409654982386,walk
10/07/2020, 17:20:34,-4.5918264,-8.736196,0.5694918,0.4249467,0.3052778,0.38831335,9.885863841698775,0.6515838289231632,walk
10/07/2020, 17:20:34,-4.5415773,-8.657232,0.5766702,0.4249467,0.3052778,0.38831335,9.793168236571058,0.6515838289231632,walk
10/07/2020, 17:20:34,-4.5415773,-8.657232,0.5766702,0.34313223,0.29184556,0.35412225,9.793168236571058,0.5729887655437019,walk
10/07/2020, 17:20:34,-4.5942197,-8.568698,0.6891329,0.34313223,0.29184556,0.35412225,9.747017128793694,0.5729887655437019,walk
10/07/2020, 17:20:34,-4.5942197,-8.568698,0.6891329,0.27230778,0.26986557,0.30894113,9.747017128793694,0.49236528647956584,walk
10/07/2020, 17:20:34,-4.6803613,-8.439486,0.89730847,0.27230778,0.26986557,0.30894113,9.692051406272018,0.49236528647956584,walk
10/07/2020, 17:20:34,-4.6803613,-8.439486,0.89730847,0.20514667,0.2283478,0.26009667,9.692051406272018,0.40234083604418547,walk
10/07/2020, 17:20:34,-4.7282176,-8.257631,1.0863415,0.20514667,0.2283478,0.26009667,9.577298902235826,0.40234083604418547,walk
10/07/2020, 17:20:34,-4.7282176,-8.257631,1.0863415,0.14653334,0.18805112,0.21247335,9.577298902235826,0.31934333692453326,walk
10/07/2020, 17:20:34,-4.733003,-8.085348,1.2873386,0.14653334,0.18805112,0.21247335,9.456818376087003,0.31934333692453326,walk
10/07/2020, 17:20:34,-4.733003,-8.085348,1.2873386,0.09768889,0.14164889,0.17950334,9.456818376087003,0.2486543281222229,walk
10/07/2020, 17:20:34,-4.7401814,-7.9561353,1.4261223,0.09768889,0.14164889,0.17950334,9.37033795870835,0.2486543281222229,walk
10/07/2020, 17:20:34,-4.7401814,-7.9561353,1.4261223,0.06227667,0.078151114,0.15874445,9.37033795870835,0.18757873531997746,walk
10/07/2020, 17:20:34,-4.74736,-7.8963146,1.4979069,0.06227667,0.078151114,0.15874445,9.334502605537562,0.18757873531997746,walk
10/07/2020, 17:20:34,-4.74736,-7.8963146,1.4979069,0.029306669,0.028085556,0.13310112,9.334502605537562,0.1391531084354349,walk
10/07/2020, 17:20:34,-4.7210393,-7.9513497,1.5146568,0.029306669,0.028085556,0.13310112,9.370504778661767,0.1391531084354349,walk
10/07/2020, 17:20:34,-4.7210393,-7.9513497,1.5146568,0.019537779,-0.02198,0.11966889,9.370504778661767,0.12322941733151199,walk
10/07/2020, 17:20:34,-4.692325,-8.070991,1.4333007,0.019537779,-0.02198,0.11966889,9.44527154922469,0.12322941733151199,walk
10/07/2020, 17:20:35,-7.826923,-5.4125648,2.239682,0.28574002,-0.32970002,0.51164556,9.77613187722167,0.6724066012519894,walk
10/07/2020, 17:20:35,-7.826923,-5.4125648,2.239682,0.2075889,-0.30649891,0.48722336,9.77613187722167,0.6118997746742237,walk
10/07/2020, 17:20:35,-7.948957,-5.393422,2.213361,0.2075889,-0.30649891,0.48722336,9.857681579233931,0.6118997746742237,walk
10/07/2020, 17:20:35,-7.948957,-5.393422,2.213361,0.11966889,-0.27108666,0.43960002,9.857681579233931,0.5301479049179717,walk
10/07/2020, 17:20:35,-7.9944205,-5.3336015,2.1942184,0.11966889,-0.27108666,0.43960002,9.857619319644368,0.5301479049179717,walk
10/07/2020, 17:20:35,-7.9944205,-5.3336015,2.1942184,0.034191113,-0.22468445,0.3944189,9.857619319644368,0.4552124755298181,walk
10/07/2020, 17:20:35,-7.9369926,-5.259424,2.132005,0.034191113,-0.22468445,0.3944189,9.75719429376559,0.4552124755298181,walk
10/07/2020, 17:20:35,-7.9369926,-5.259424,2.132005,-0.035412222,-0.16362889,0.34313223,9.75719429376559,0.3817959731869836,walk
10/07/2020, 17:20:35,-7.8317084,-5.2259245,2.1176481,-0.035412222,-0.16362889,0.34313223,9.650408143021505,0.3817959731869836,walk
10/07/2020, 17:20:35,-7.8317084,-5.2259245,2.1176481,-0.07693,-0.085477784,0.28085557,9.650408143021505,0.3034872745565886,walk
10/07/2020, 17:20:35,-7.728817,-5.2019963,2.1104696,-0.07693,-0.085477784,0.28085557,9.552458303053122,0.3034872745565886,walk
10/07/2020, 17:20:35,-7.728817,-5.2019963,2.1104696,-0.06594,0.0012211112,0.23933779,9.552458303053122,0.24825823456495788,walk
10/07/2020, 17:20:35,-7.6426754,-5.218746,2.120041,-0.06594,0.0012211112,0.23933779,9.494228373246694,0.24825823456495788,walk
10/07/2020, 17:20:35,-7.6426754,-5.218746,2.120041,-0.0036633336,0.098910004,0.18805112,9.494228373246694,0.21250842903243636,walk
10/07/2020, 17:20:35,-7.5326056,-5.237889,2.1296122,-0.0036633336,0.098910004,0.18805112,9.418645084108674,0.21250842903243636,walk
10/07/2020, 17:20:35,-7.5326056,-5.237889,2.1296122,0.102573335,0.20881,0.13676445,9.418645084108674,0.2698655612598178,walk
10/07/2020, 17:20:35,-7.4416785,-5.2139606,2.2157538,0.102573335,0.20881,0.13676445,9.35272846626768,0.2698655612598178,walk
10/07/2020, 17:20:35,-7.4416785,-5.2139606,2.2157538,0.23079,0.32481557,0.085477784,9.35272846626768,0.4075237821001624,walk
10/07/2020, 17:20:35,-7.3579297,-5.1158547,2.2851455,0.23079,0.32481557,0.085477784,9.248404691730029,0.4075237821001624,walk
10/07/2020, 17:20:35,-7.3579297,-5.1158547,2.2851455,0.34679556,0.4481478,0.026864445,9.248404691730029,0.5672964938299814,walk
10/07/2020, 17:20:36,-5.285745,-2.5579274,3.4313076,-0.8865267,-0.37976557,-0.85599893,6.80117384636946,1.2895292391917275,walk
10/07/2020, 17:20:36,-5.278567,-2.5172493,3.318845,-0.8865267,-0.37976557,-0.85599893,6.724176119208837,1.2895292391917275,walk
10/07/2020, 17:20:36,-5.278567,-2.5172493,3.318845,-0.8669889,-0.3809867,-1.0330601,6.724176119208837,1.4014398747805583,walk
10/07/2020, 17:20:36,-5.5944195,-2.4670002,3.211168,-0.8669889,-0.3809867,-1.0330601,6.906172585116653,1.4014398747805583,walk
10/07/2020, 17:20:36,-5.5944195,-2.4670002,3.211168,-0.86088336,-0.37854445,-1.1563922,6.906172585116653,1.4905230660546944,walk
10/07/2020, 17:20:36,-6.113662,-2.4741786,3.103491,-0.86088336,-0.37854445,-1.1563922,7.289038105842338,1.4905230660546944,walk
10/07/2020, 17:20:36,-6.113662,-2.4741786,3.103491,-0.8584412,-0.39075556,-1.24187,7.289038105842338,1.5594397616964297,walk
10/07/2020, 17:20:36,-6.7094746,-2.5028925,2.969493,-0.8584412,-0.39075556,-1.24187,7.752380790006599,1.5594397616964297,walk
10/07/2020, 17:20:36,-6.7094746,-2.5028925,2.969493,-0.83890337,-0.39686114,-1.29682,7.752380790006599,1.5946786037107705,walk
10/07/2020, 17:20:36,-7.331609,-2.5674987,2.902494,-0.83890337,-0.39686114,-1.29682,8.292708112131633,1.5946786037107705,walk
10/07/2020, 17:20:36,-7.331609,-2.5674987,2.902494,-0.80227005,-0.38953447,-1.3102523,8.292708112131633,1.5849717535884902,walk
10/07/2020, 17:20:36,-7.8987074,-2.6608188,2.8283165,-0.80227005,-0.38953447,-1.3102523,8.80164241148675,1.5849717535884902,walk
10/07/2020, 17:20:36,-7.8987074,-2.6608188,2.8283165,-0.75831,-0.36877558,-1.3017045,8.80164241148675,1.5509558939485488,walk
10/07/2020, 17:20:36,-8.382058,-2.7684958,2.754139,-0.75831,-0.36877558,-1.3017045,9.247094086464339,1.5509558939485488,walk
10/07/2020, 17:20:36,-8.382058,-2.7684958,2.754139,-0.73999333,-0.35534334,-1.2589656,9.247094086464339,1.5029482477807856,walk
10/07/2020, 17:20:36,-8.7673025,-2.8091738,2.6273193,-0.73999333,-0.35534334,-1.2589656,9.573915490230224,1.5029482477807856,walk
10/07/2020, 17:20:36,-8.7673025,-2.8091738,2.6273193,-0.75831,-0.36267,-1.1808145,9.573915490230224,1.4494435183145318,walk
10/07/2020, 17:20:36,-9.040084,-2.8283165,2.5411777,-0.75831,-0.36267,-1.1808145,9.807144077078277,1.4494435183145318,walk
10/07/2020, 17:20:36,-9.040084,-2.8283165,2.5411777,-0.81570226,-0.39197668,-1.1026634,9.807144077078277,1.4264930655642818,walk
10/07/2020, 17:20:36,-9.23151,-2.8833513,2.455036,-0.81570226,-0.39197668,-1.1026634,9.978060740410609,1.4264930655642818,walk
10/07/2020, 17:20:37,-9.040084,-3.991228,2.1918256,0.0036633336,-0.12699556,-0.27719223,10.122110353645578,0.3049210197804324,walk
10/07/2020, 17:20:37,-9.040084,-3.991228,2.1918256,0.057392225,-0.12455334,-0.28574002,10.122110353645578,0.3169459878391559,walk
10/07/2020, 17:20:37,-8.965906,-3.9696927,2.1966112,0.057392225,-0.12455334,-0.28574002,10.048434394051728,0.3169459878391559,walk
10/07/2020, 17:20:37,-8.965906,-3.9696927,2.1966112,0.09768889,-0.11600556,-0.30161446,10.048434394051728,0.33759694072216373,walk
10/07/2020, 17:20:37,-8.932407,-3.9098723,2.2325034,0.09768889,-0.11600556,-0.30161446,10.002953285533833,0.33759694072216373,walk
10/07/2020, 17:20:37,-8.932407,-3.9098723,2.2325034,0.1306589,-0.10379445,-0.3174889,10.002953285533833,0.3586701011050127,walk
10/07/2020, 17:20:37,-8.860622,-3.8356948,2.2420747,0.1306589,-0.10379445,-0.3174889,9.91211798905591,0.3586701011050127,walk
10/07/2020, 17:20:37,-8.860622,-3.8356948,2.2420747,0.16729222,-0.09280445,-0.32970002,9.91211798905591,0.3811842837026083,walk
10/07/2020, 17:20:37,-8.851051,-3.7710886,2.2564318,0.16729222,-0.09280445,-0.32970002,9.88198884010142,0.3811842837026083,walk
10/07/2020, 17:20:37,-8.851051,-3.7710886,2.2564318,0.20514667,-0.070824444,-0.34313223,9.88198884010142,0.40600613778628236,walk
10/07/2020, 17:20:37,-8.796016,-3.6873398,2.2588246,0.20514667,-0.070824444,-0.34313223,9.801461935646365,0.40600613778628236,walk
10/07/2020, 17:20:37,-8.796016,-3.6873398,2.2588246,0.23201112,-0.05617111,-0.3382478,9.801461935646365,0.41399992009169323,walk
10/07/2020, 17:20:37,-8.736196,-3.629912,2.251646,0.23201112,-0.05617111,-0.3382478,9.724571107954125,0.41399992009169323,walk
10/07/2020, 17:20:37,-8.736196,-3.629912,2.251646,0.23933779,-0.045181114,-0.35412225,9.724571107954125,0.42979818313981205,walk
10/07/2020, 17:20:37,-8.602198,-3.6059837,2.2325034,0.23933779,-0.045181114,-0.35412225,9.590880801298068,0.42979818313981205,walk
10/07/2020, 17:20:37,-8.602198,-3.6059837,2.2325034,0.23201112,-0.03297,-0.36511225,9.590880801298068,0.43384690191494263,walk
10/07/2020, 17:20:37,-8.49452,-3.5676985,2.2660031,0.23201112,-0.03297,-0.36511225,9.487893119249868,0.43384690191494263,walk
10/07/2020, 17:20:37,-8.49452,-3.5676985,2.2660031,0.20881,-0.02075889,-0.38709223,9.487893119249868,0.4403100554053311,walk
10/07/2020, 17:20:37,-8.362915,-3.5557344,2.2301106,0.20881,-0.02075889,-0.38709223,9.357082266155054,0.4403100554053311,walk
10/07/2020, 17:20:37,-8.362915,-3.5557344,2.2301106,0.1856089,-0.007326667,-0.41029334,9.357082266155054,0.4503831334060413,walk
10/07/2020, 17:20:38,-7.4033933,-4.1611185,4.213761,-0.37732336,0.07693,0.5262989,9.480554817443029,0.6521362236873517,walk
10/07/2020, 17:20:38,-7.3340015,-4.3094735,4.3525443,-0.37732336,0.07693,0.5262989,9.55530127880043,0.6521362236873517,walk
10/07/2020, 17:20:38,-7.3340015,-4.3094735,4.3525443,-0.25277,0.15019667,0.5262989,9.55530127880043,0.6028616989719451,walk
10/07/2020, 17:20:38,-7.176075,-4.386044,4.409972,-0.25277,0.15019667,0.5262989,9.496382946148143,0.6028616989719451,walk
10/07/2020, 17:20:38,-7.176075,-4.386044,4.409972,-0.13554333,0.2283478,0.5104245,9.496382946148143,0.57536759920792,walk
10/07/2020, 17:20:38,-7.0133634,-4.426722,4.338187,-0.13554333,0.2283478,0.5104245,9.359647540361097,0.57536759920792,walk
10/07/2020, 17:20:38,-7.0133634,-4.426722,4.338187,-0.039075557,0.30039334,0.49455002,9.359647540361097,0.5799506715728782,walk
10/07/2020, 17:20:38,-6.896115,-4.4817567,4.2257247,-0.039075557,0.30039334,0.49455002,9.246582715517203,0.5799506715728782,walk
10/07/2020, 17:20:38,-6.896115,-4.4817567,4.2257247,0.04396,0.36999667,0.5043189,9.246582715517203,0.6270307496697366,walk
10/07/2020, 17:20:38,-6.8315086,-4.508078,4.074977,0.04396,0.36999667,0.5043189,9.143178621131742,0.6270307496697366,walk
10/07/2020, 17:20:38,-6.8315086,-4.508078,4.074977,0.11600556,0.43960002,0.52141446,9.143178621131742,0.6917936877568098,walk
10/07/2020, 17:20:38,-6.745367,-4.570291,4.017549,0.11600556,0.43960002,0.52141446,9.084505331899635,0.6917936877568098,walk
10/07/2020, 17:20:38,-6.745367,-4.570291,4.017549,0.19782001,0.5153089,0.54461557,9.084505331899635,0.7754238521652903,walk
10/07/2020, 17:20:38,-6.678368,-4.6229334,4.019942,0.19782001,0.5153089,0.54461557,9.06267320410008,0.7754238521652903,walk
10/07/2020, 17:20:38,-6.678368,-4.6229334,4.019942,0.27963445,0.6020078,0.57148004,9.06267320410008,0.8758985406322465,walk
10/07/2020, 17:20:38,-6.6568327,-4.7282176,4.0438704,0.27963445,0.6020078,0.57148004,9.11166019054127,0.8758985406322465,walk
10/07/2020, 17:20:38,-6.6568327,-4.7282176,4.0438704,0.36389112,0.69237006,0.6105556,9.11166019054127,0.9922555991946248,walk
10/07/2020, 17:20:38,-6.7166533,-4.8263235,4.0701914,0.36389112,0.69237006,0.6105556,9.21809571965814,0.9922555991946248,walk
10/07/2020, 17:20:38,-6.7166533,-4.8263235,4.0701914,0.45181113,0.77296335,0.65940005,9.21809571965814,1.111941569881619,walk
10/07/2020, 17:20:38,-6.8099732,-4.900501,4.048656,0.45181113,0.77296335,0.65940005,9.315699580128541,1.111941569881619,walk
10/07/2020, 17:20:39,-10.030712,-4.2711883,0.5240282,0.8950745,0.37732336,-1.9354612,10.914799149271802,2.165534846113826,walk
10/07/2020, 17:20:39,-10.030712,-4.2711883,0.5240282,0.83768225,0.40663,-1.9977379,10.914799149271802,2.204090780121716,walk
10/07/2020, 17:20:39,-9.982856,-4.1084766,0.51206404,0.83768225,0.40663,-1.9977379,10.807367844774184,2.204090780121716,walk
10/07/2020, 17:20:39,-9.982856,-4.1084766,0.51206404,0.7448778,0.44326335,-2.0575724,10.807367844774184,2.2326955446763117,walk
10/07/2020, 17:20:39,-9.987641,-4.0558343,0.53359944,0.7448778,0.44326335,-2.0575724,10.79293748712217,2.2326955446763117,walk
10/07/2020, 17:20:39,-9.987641,-4.0558343,0.53359944,0.65085226,0.46158,-2.1064167,10.79293748712217,2.252477768115653,walk
10/07/2020, 17:20:39,-10.068997,-4.0701914,0.5814559,0.65085226,0.46158,-2.1064167,10.876086481184798,2.252477768115653,walk
10/07/2020, 17:20:39,-10.068997,-4.0701914,0.5814559,0.5885756,0.4798967,-2.1503768,10.876086481184798,2.2805355607777096,walk
10/07/2020, 17:20:39,-10.13839,-4.1850467,0.59342,0.5885756,0.4798967,-2.1503768,10.984248103993513,2.2805355607777096,walk
10/07/2020, 17:20:39,-10.13839,-4.1850467,0.59342,0.5800278,0.50554,-2.174799,10.984248103993513,2.3068926103404754,walk
10/07/2020, 17:20:39,-10.195817,-4.2999024,0.64845496,0.5800278,0.50554,-2.174799,11.084418748665511,2.3068926103404754,walk
10/07/2020, 17:20:39,-10.195817,-4.2999024,0.64845496,0.62765115,0.53484666,-2.1918945,11.084418748665511,2.3418814149996043,walk
10/07/2020, 17:20:39,-10.253245,-4.398008,0.715454,0.62765115,0.53484666,-2.1918945,11.17959694739183,2.3418814149996043,walk
10/07/2020, 17:20:39,-10.253245,-4.398008,0.715454,0.71435004,0.5775856,-2.2175379,11.17959694739183,2.400286511077521,walk
10/07/2020, 17:20:39,-10.286744,-4.4554358,0.8039884,0.71435004,0.5775856,-2.2175379,11.238968352764374,2.400286511077521,walk
10/07/2020, 17:20:39,-10.286744,-4.4554358,0.8039884,0.7973856,0.6032289,-2.2468445,11.238968352764374,2.4592720941508452,walk
10/07/2020, 17:20:39,-10.339387,-4.412365,0.8446664,0.7973856,0.6032289,-2.2468445,11.273213747476493,2.4592720941508452,walk
10/07/2020, 17:20:39,-10.339387,-4.412365,0.8446664,0.8450089,0.5971234,-2.2724879,11.273213747476493,2.496957659443661,walk
10/07/2020, 17:20:39,-10.403993,-4.3238306,0.9236295,0.8450089,0.5971234,-2.2724879,11.30449758781131,2.496957659443661,walk
10/07/2020, 17:20:39,-10.403993,-4.3238306,0.9236295,0.82791334,0.5702589,-2.2810357,11.30449758781131,2.492741347507694,walk
10/07/2020, 17:20:40,-8.492127,-4.462614,3.318845,1.229659,0.53484666,-2.16503,10.151151889972176,2.5466599746841525,walk
10/07/2020, 17:20:40,-8.800801,-4.4889355,3.1896327,1.229659,0.53484666,-2.16503,10.381637695844946,2.5466599746841525,walk
10/07/2020, 17:20:40,-8.800801,-4.4889355,3.1896327,1.3835189,0.58491224,-2.2920256,10.381637695844946,2.740370078325499,walk
10/07/2020, 17:20:40,-9.243474,-4.4721856,3.089134,1.3835189,0.58491224,-2.2920256,10.723106107408428,2.740370078325499,walk
10/07/2020, 17:20:40,-9.243474,-4.4721856,3.089134,1.5337156,0.6227667,-2.4080312,10.723106107408428,2.922111611581649,walk
10/07/2020, 17:20:40,-9.738789,-4.386044,3.0173492,1.5337156,0.6227667,-2.4080312,11.098909051609414,2.922111611581649,walk
10/07/2020, 17:20:40,-9.738789,-4.386044,3.0173492,1.6655957,0.63131446,-2.4983935,11.098909051609414,3.0683443537643247,walk
10/07/2020, 17:20:40,-10.119247,-4.2041893,2.955136,1.6655957,0.63131446,-2.4983935,11.349326213201971,3.0683443537643247,walk
10/07/2020, 17:20:40,-10.119247,-4.2041893,2.955136,1.7498523,0.63619894,-2.5667756,11.349326213201971,3.1709728691154693,walk
10/07/2020, 17:20:40,-10.267602,-3.9050865,2.8666015,1.7498523,0.63619894,-2.5667756,11.35300642248804,3.1709728691154693,walk
10/07/2020, 17:20:40,-10.267602,-3.9050865,2.8666015,1.7547368,0.6203245,-2.6290524,11.35300642248804,3.2211519945507274,walk
10/07/2020, 17:20:40,-10.193424,-3.4695928,2.7852457,1.7547368,0.6203245,-2.6290524,11.122120529037982,3.2211519945507274,walk
10/07/2020, 17:20:40,-10.193424,-3.4695928,2.7852457,1.6729223,0.5836911,-2.691329,11.122120529037982,3.2222066956376696,walk
10/07/2020, 17:20:40,-10.054641,-3.0029924,2.6201408,1.6729223,0.5836911,-2.691329,10.815678530780257,3.2222066956376696,walk
10/07/2020, 17:20:40,-10.054641,-3.0029924,2.6201408,1.5215045,0.54095227,-2.7548268,10.815678530780257,3.193223445426812,walk
10/07/2020, 17:20:40,-9.908679,-2.684747,2.4191437,1.5215045,0.54095227,-2.7548268,10.547134310900175,3.193223445426812,walk
10/07/2020, 17:20:40,-9.908679,-2.684747,2.4191437,1.3273479,0.5030978,-2.8171034,10.547134310900175,3.1545255167933224,walk
10/07/2020, 17:20:40,-9.8321085,-2.481357,2.1702902,1.3273479,0.5030978,-2.8171034,10.37003617374282,3.1545255167933224,walk
10/07/2020, 17:20:40,-9.8321085,-2.481357,2.1702902,1.1392968,0.45425335,-2.8744957,10.37003617374282,3.125231034465147,walk
10/07/2020, 17:20:40,-9.834501,-2.5004997,2.012364,1.1392968,0.45425335,-2.8744957,10.345024047618667,3.125231034465147,walk
10/07/2020, 17:20:41,-7.5996046,-3.871587,2.9910283,-0.12211112,0.070824444,0.16240779,9.038220328950864,0.21518251837595084,walk
10/07/2020, 17:20:41,-7.645068,-3.900301,2.9120653,-0.12211112,0.070824444,0.16240779,9.06308662417394,0.21518251837595084,walk
10/07/2020, 17:20:41,-7.645068,-3.900301,2.9120653,-0.12577444,0.089141116,0.098910004,9.06308662417394,0.18316259962670253,walk
10/07/2020, 17:20:41,-7.690532,-3.938586,2.8091738,-0.12577444,0.089141116,0.098910004,9.08560415447055,0.18316259962670253,walk
10/07/2020, 17:20:41,-7.690532,-3.938586,2.8091738,-0.14897557,0.106236674,0.025643334,9.08560415447055,0.18476344530606123,walk
10/07/2020, 17:20:41,-7.702496,-3.9433718,2.6895328,-0.14897557,0.106236674,0.025643334,9.061578936145331,0.18476344530606123,walk
10/07/2020, 17:20:41,-7.702496,-3.9433718,2.6895328,-0.18316667,0.11966889,-0.058613338,9.061578936145331,0.22650870980412016,walk
10/07/2020, 17:20:41,-7.7120676,-3.871587,2.6488547,-0.18316667,0.11966889,-0.058613338,9.026716142471045,0.22650870980412016,walk
10/07/2020, 17:20:41,-7.7120676,-3.871587,2.6488547,-0.22712667,0.13188,-0.14164889,9.026716142471045,0.29840118569818375,walk
10/07/2020, 17:20:41,-7.7120676,-3.7471602,2.6512475,-0.22712667,0.13188,-0.14164889,8.974759583407987,0.29840118569818375,walk
10/07/2020, 17:20:41,-7.7120676,-3.7471602,2.6512475,-0.28085557,0.13920668,-0.23567446,8.974759583407987,0.39217444754735675,walk
10/07/2020, 17:20:41,-7.743174,-3.6897326,2.684747,-0.28085557,0.13920668,-0.23567446,8.987699228658775,0.39217444754735675,walk
10/07/2020, 17:20:41,-7.743174,-3.6897326,2.684747,-0.33214223,0.14775445,-0.3382478,8.987699228658775,0.49654951200576264,walk
10/07/2020, 17:20:41,-7.798209,-3.629912,2.766103,-0.33214223,0.14775445,-0.3382478,9.035466393263702,0.49654951200576264,walk
10/07/2020, 17:20:41,-7.798209,-3.629912,2.766103,-0.37366003,0.15752333,-0.42250445,9.035466393263702,0.5856154298193109,walk
10/07/2020, 17:20:41,-7.8484583,-3.546163,2.8881369,-0.37366003,0.15752333,-0.42250445,9.083771500867005,0.5856154298193109,walk
10/07/2020, 17:20:41,-7.8484583,-3.546163,2.8881369,-0.41395667,0.17584,-0.52019334,9.083771500867005,0.6876633936895363,walk
10/07/2020, 17:20:41,-7.9226356,-3.4983068,2.9862428,-0.41395667,0.17584,-0.52019334,9.161001591293049,0.6876633936895363,walk
10/07/2020, 17:20:41,-7.9226356,-3.4983068,2.9862428,-0.4359367,0.20636779,-0.6325356,9.161001591293049,0.7954430954671131,walk
10/07/2020, 17:20:41,-8.020741,-3.4456646,3.0747771,-0.4359367,0.20636779,-0.6325356,9.255223002643609,0.7954430954671131,walk
10/07/2020, 17:20:42,-8.441878,-3.2207394,2.7876384,-0.83768225,-0.5287411,0.92193896,9.455654371707215,1.3532369189270588,walk
10/07/2020, 17:20:42,-8.5016985,-3.196811,2.8259234,-0.83768225,-0.5287411,0.92193896,9.512324684631643,1.3532369189270588,walk
10/07/2020, 17:20:42,-8.5016985,-3.196811,2.8259234,-0.82547116,-0.52752,0.8999589,9.512324684631643,1.3302653979889003,walk
10/07/2020, 17:20:42,-8.539984,-3.1657043,2.7876384,-0.82547116,-0.52752,0.8999589,9.524911224446143,1.3302653979889003,walk
10/07/2020, 17:20:42,-8.539984,-3.1657043,2.7876384,-0.83768225,-0.5238567,0.88896894,9.524911224446143,1.3290610118274713,walk
10/07/2020, 17:20:42,-8.633304,-3.17049,2.7613173,-0.83768225,-0.5238567,0.88896894,9.602646081158717,1.3290610118274713,walk
10/07/2020, 17:20:42,-8.633304,-3.17049,2.7613173,-0.8645467,-0.51653004,0.8743156,9.602646081158717,1.3336686642524984,walk
10/07/2020, 17:20:42,-8.724232,-3.1776686,2.6368906,-0.8645467,-0.51653004,0.8743156,9.652097645219097,1.3336686642524984,walk
10/07/2020, 17:20:42,-8.724232,-3.1776686,2.6368906,-0.90362227,-0.5140878,0.8547778,9.652097645219097,1.3459066007380465,walk
10/07/2020, 17:20:42,-8.7984085,-3.1657043,2.507678,-0.90362227,-0.5140878,0.8547778,9.681018788914427,1.3459066007380465,walk
10/07/2020, 17:20:42,-8.7984085,-3.1657043,2.507678,-0.9402556,-0.5043189,0.8315767,9.681018788914427,1.3527519810236528,walk
10/07/2020, 17:20:42,-8.903693,-3.2135608,2.4191437,-0.9402556,-0.5043189,0.8315767,9.770106542661603,1.3527519810236528,walk
10/07/2020, 17:20:42,-8.903693,-3.2135608,2.4191437,-0.9683412,-0.48722336,0.81570226,9.770106542661603,1.3566286893172959,walk
10/07/2020, 17:20:42,-9.064013,-3.2805598,2.3521447,-0.9683412,-0.48722336,0.81570226,9.922246738098451,1.3566286893172959,walk
10/07/2020, 17:20:42,-9.064013,-3.2805598,2.3521447,-0.9878789,-0.4689067,0.8169234,9.922246738098451,1.3649696188599838,walk
10/07/2020, 17:20:42,-9.253045,-3.318845,2.292324,-0.9878789,-0.4689067,0.8169234,10.093974701419281,1.3649696188599838,walk
10/07/2020, 17:20:42,-9.253045,-3.318845,2.292324,-0.9878789,-0.45303226,0.8205867,10.093974701419281,1.3618022924678823,walk
10/07/2020, 17:20:42,-9.480363,-3.397808,2.28036,-0.9878789,-0.45303226,0.8205867,10.325813378866018,1.3618022924678823,walk
10/07/2020, 17:20:42,-9.480363,-3.397808,2.28036,-0.9854367,-0.44082114,0.8266923,10.325813378866018,1.3597164614717585,walk
10/07/2020, 17:20:42,-9.74836,-3.4791641,2.347359,-0.9854367,-0.44082114,0.8266923,10.613443995956635,1.3597164614717585,walk
10/07/2020, 17:20:43,-10.959127,-6.5252275,0.98584294,-0.2613178,-1.6411734,3.5021467,12.79269145986429,3.876437623423434,walk
10/07/2020, 17:20:43,-11.959328,-6.463014,0.50009996,-0.2613178,-1.6411734,3.5021467,13.603167665652169,3.876437623423434,walk
10/07/2020, 17:20:43,-11.959328,-6.463014,0.50009996,-0.6191034,-1.7205456,3.6877558,13.603167665652169,4.116200836757389,walk
10/07/2020, 17:20:43,-12.8518505,-6.1208405,0.07178468,-0.6191034,-1.7205456,3.6877558,14.235164333259421,4.116200836757389,walk
10/07/2020, 17:20:43,-12.8518505,-6.1208405,0.07178468,-1.1063267,-1.8792901,3.7988768,14.235164333259421,4.380314454006622,walk
10/07/2020, 17:20:43,-13.385449,-5.5968122,-0.31106696,-1.1063267,-1.8792901,3.7988768,14.511765085147735,4.380314454006622,walk
10/07/2020, 17:20:43,-13.385449,-5.5968122,-0.31106696,-1.6778067,-2.1491556,3.834289,14.511765085147735,4.704856853057339,walk
10/07/2020, 17:20:43,-13.430914,-5.096712,-0.46181476,-1.6778067,-2.1491556,3.834289,14.372863183650434,4.704856853057339,walk
10/07/2020, 17:20:43,-13.430914,-5.096712,-0.46181476,-2.2700458,-2.4764135,3.7939923,14.372863183650434,5.06755453188835,walk
10/07/2020, 17:20:43,-12.949956,-4.790431,-0.23688944,-2.2700458,-2.4764135,3.7939923,13.809623631450824,5.06755453188835,walk
10/07/2020, 17:20:43,-12.949956,-4.790431,-0.23688944,-2.7413945,-2.7731435,3.6755445,13.809623631450824,5.35865620511931,walk
10/07/2020, 17:20:43,-12.074183,-4.6612186,0.38285163,-2.7413945,-2.7731435,3.6755445,12.948337381072948,5.35865620511931,walk
10/07/2020, 17:20:43,-12.074183,-4.6612186,0.38285163,-3.008818,-2.922119,3.4691768,12.948337381072948,5.44306453731968,walk
10/07/2020, 17:20:43,-11.035698,-4.8047876,1.0025927,-3.008818,-2.922119,3.4691768,12.077988461238625,5.44306453731968,walk
10/07/2020, 17:20:43,-11.035698,-4.8047876,1.0025927,-3.0454512,-2.9746268,3.2054167,12.077988461238625,5.328965505604315,walk
10/07/2020, 17:20:43,-10.281959,-5.1661043,1.6462619,-3.0454512,-2.9746268,3.2054167,11.624004662595079,5.328965505604315,walk
10/07/2020, 17:20:43,-10.281959,-5.1661043,1.6462619,-2.8244302,-2.9465413,2.9172347,11.624004662595079,5.016948260977458,walk
10/07/2020, 17:20:43,-9.9038925,-5.56092,2.160719,-2.8244302,-2.9465413,2.9172347,11.561990392125571,5.016948260977458,walk
10/07/2020, 17:20:43,-9.9038925,-5.56092,2.160719,-2.4178002,-2.7499423,2.6632435,11.561990392125571,4.5277816344550095,walk
10/07/2020, 17:20:43,-10.006784,-5.800202,2.254039,-2.4178002,-2.7499423,2.6632435,11.783835065176852,4.5277816344550095,walk
10/07/2020, 17:20:44,-1.8951155,-9.638289,3.3020952,-0.5873545,1.1478444,-1.5727912,10.36300722930043,2.0337660506018476,walk
10/07/2020, 17:20:44,-1.9812572,-9.635897,3.1154552,-0.5873545,1.1478444,-1.5727912,10.319008952867476,2.0337660506018476,walk
10/07/2020, 17:20:44,-1.9812572,-9.635897,3.1154552,-0.3931978,1.1881411,-1.5984346,10.319008952867476,2.0300928233724616,walk
10/07/2020, 17:20:44,-2.2899313,-9.7196455,2.78046,-0.3931978,1.1881411,-1.5984346,10.365628352612921,2.0300928233724616,walk
10/07/2020, 17:20:44,-2.2899313,-9.7196455,2.78046,-0.17950334,1.2333223,-1.6289623,10.365628352612921,2.051054206012374,walk
10/07/2020, 17:20:44,-2.6703901,-9.870394,2.3712873,-0.17950334,1.2333223,-1.6289623,10.496602305440613,2.051054206012374,walk
10/07/2020, 17:20:44,-2.6703901,-9.870394,2.3712873,0.07693,1.2675134,-1.6082034,10.496602305440613,2.049103863025098,walk
10/07/2020, 17:20:44,-2.8642087,-9.973285,1.9262222,0.07693,1.2675134,-1.6082034,10.55369279373446,2.049103863025098,walk
10/07/2020, 17:20:44,-2.8642087,-9.973285,1.9262222,0.31504667,1.3212423,-1.5972134,10.55369279373446,2.0966702910344686,walk
10/07/2020, 17:20:44,-2.9072795,-9.987641,1.5218352,0.31504667,1.3212423,-1.5972134,10.5129080595555,2.0966702910344686,walk
10/07/2020, 17:20:44,-2.9072795,-9.987641,1.5218352,0.5092034,1.3932878,-1.6020979,10.5129080595555,2.183404793007786,walk
10/07/2020, 17:20:44,-2.8953154,-9.932607,1.1365907,0.5092034,1.3932878,-1.6020979,10.408235468985445,2.183404793007786,walk
10/07/2020, 17:20:44,-2.8953154,-9.932607,1.1365907,0.6667267,1.4409112,-1.6204145,10.408235468985445,2.268588250801399,walk
10/07/2020, 17:20:44,-2.8953154,-9.889536,0.79920274,0.6667267,1.4409112,-1.6204145,10.335593680624205,2.268588250801399,walk
10/07/2020, 17:20:44,-2.8953154,-9.889536,0.79920274,0.81326,1.4702178,-1.6057612,10.335593680624205,2.3240914879794774,walk
10/07/2020, 17:20:44,-2.9671001,-9.915857,0.63888365,0.81326,1.4702178,-1.6057612,10.36996055308216,2.3240914879794774,walk
10/07/2020, 17:20:44,-2.9671001,-9.915857,0.63888365,0.94391894,1.4934189,-1.570349,10.36996055308216,2.3637425813523465,walk
10/07/2020, 17:20:44,-3.0029924,-9.997213,0.47377887,0.94391894,1.4934189,-1.570349,10.449244219720583,2.3637425813523465,walk
10/07/2020, 17:20:44,-3.0029924,-9.997213,0.47377887,1.0745778,1.504409,-1.5447056,10.449244219720583,2.4091656757508666,walk
10/07/2020, 17:20:44,-3.1082766,-10.102497,0.40677986,1.0745778,1.504409,-1.5447056,10.577679375934517,2.4091656757508666,walk
10/07/2020, 17:20:45,-12.217752,-4.249653,3.1752756,1.2101212,1.0562612,-3.9710536,13.319737214114992,4.283613846981018,walk
10/07/2020, 17:20:45,-12.519248,-4.2999024,3.2398818,1.2101212,1.0562612,-3.9710536,13.627823210966682,4.283613846981018,walk
10/07/2020, 17:20:45,-12.519248,-4.2999024,3.2398818,1.3139156,1.05504,-4.0797324,13.627823210966682,4.414034462885581,walk
10/07/2020, 17:20:45,-12.734602,-4.3764725,3.2279177,1.3139156,1.05504,-4.0797324,13.847131516992114,4.414034462885581,walk
10/07/2020, 17:20:45,-12.734602,-4.3764725,3.2279177,1.4396901,1.053819,-4.184748,13.847131516992114,4.549215234712298,walk
10/07/2020, 17:20:45,-12.88535,-4.45065,3.237489,1.4396901,1.053819,-4.184748,14.011490739661603,4.549215234712298,walk
10/07/2020, 17:20:45,-12.88535,-4.45065,3.237489,1.5825601,1.0452712,-4.2763314,14.011490739661603,4.678044313527021,walk
10/07/2020, 17:20:45,-13.007384,-4.4817567,3.1848469,1.5825601,1.0452712,-4.2763314,14.121665587794459,4.678044313527021,walk
10/07/2020, 17:20:45,-13.007384,-4.4817567,3.1848469,1.7278723,1.0171856,-4.36303,14.121665587794459,4.801691306854115,walk
