DATE,TIME,ax,ay,az,gx,gy,gz,ma,mg,label
09/07/2020, 21:37:27,-2.3042881,2.6799614,9.1669035,-0.01099,-0.0036633336,0.013432222,9.824665740362583,0.01773766386549377,walk
09/07/2020, 21:37:27,-2.3042881,2.6799614,9.1669035,0.0048844446,0.0036633336,0.023201112,9.824665740362583,0.023991027423380877,walk
09/07/2020, 21:37:27,-2.2468605,2.7613173,9.186047,0.0048844446,0.0036633336,0.023201112,9.851736255153222,0.023991027423380877,walk
09/07/2020, 21:37:27,-2.2468605,2.7613173,9.186047,0.0048844446,0.01099,0.012211111,9.851736255153222,0.017139111637224848,walk
09/07/2020, 21:37:27,-2.239682,2.8522446,9.15494,0.0048844446,0.01099,0.012211111,9.847050047985112,0.017139111637224848,walk
09/07/2020, 21:37:27,-2.239682,2.8522446,9.15494,-0.0048844446,0.015874445,0.007326667,9.847050047985112,0.018153122862506785,walk
09/07/2020, 21:37:27,-2.2492533,2.8953154,9.15494,-0.0048844446,0.015874445,0.007326667,9.861790487758896,0.018153122862506785,walk
09/07/2020, 21:37:27,-2.2492533,2.8953154,9.15494,-0.018316668,0.008547778,0.0061055557,9.861790487758896,0.021114985967424726,walk
09/07/2020, 21:37:27,-2.2492533,2.9168508,9.145369,-0.018316668,0.008547778,0.0061055557,9.859255818682477,0.021114985967424726,walk
09/07/2020, 21:37:28,-2.2492533,2.9168508,9.145369,-0.039075557,0.0024422223,0.0012211112,9.859255818682477,0.039170840281138285,walk
09/07/2020, 21:37:28,-2.2468605,2.8929226,9.1669035,-0.039075557,0.0024422223,0.0012211112,9.871651494372657,0.039170840281138285,walk
09/07/2020, 21:37:28,-2.2468605,2.8929226,9.1669035,-0.036633335,-0.0012211112,0.0,9.871651494372657,0.03665368125631602,walk
09/07/2020, 21:37:28,-2.201397,2.8378878,9.205189,-0.036633335,-0.0012211112,0.0,9.88105537902649,0.03665368125631602,walk
09/07/2020, 21:37:28,-2.201397,2.8378878,9.205189,-0.02075889,0.0048844446,-0.009768889,9.88105537902649,0.023456779306065705,walk
09/07/2020, 21:37:28,-2.158326,2.7230322,9.174082,-0.02075889,0.0048844446,-0.009768889,9.81004853258171,0.023456779306065705,walk
09/07/2020, 21:37:28,-2.158326,2.7230322,9.174082,-0.0036633336,0.014653334,-0.014653334,9.81004853258171,0.02104424935189062,walk
09/07/2020, 21:37:28,-2.1631117,2.7158537,9.188439,-0.0036633336,0.014653334,-0.014653334,9.822542007145032,0.02104424935189062,walk
09/07/2020, 21:37:28,-2.1631117,2.7158537,9.188439,0.0036633336,0.019537779,-0.025643334,9.822542007145032,0.03244572965054619,walk
09/07/2020, 21:37:28,-2.1631117,2.7182465,9.224331,0.0036633336,0.019537779,-0.025643334,9.856784291932454,0.03244572965054619,walk
09/07/2020, 21:37:28,-2.1631117,2.7182465,9.224331,0.009768889,0.025643334,-0.026864445,9.856784291932454,0.03840195518820288,walk
09/07/2020, 21:37:28,-2.2037897,2.766103,9.212367,0.009768889,0.025643334,-0.026864445,9.867913754506528,0.03840195518820288,walk
09/07/2020, 21:37:28,-2.2037897,2.766103,9.212367,0.007326667,0.02198,-0.03174889,9.867913754506528,0.03930384908793536,walk
09/07/2020, 21:37:28,-2.2301106,2.804388,9.202796,0.007326667,0.02198,-0.03174889,9.875699453570027,0.03930384908793536,walk
09/07/2020, 21:37:28,-2.2301106,2.804388,9.202796,0.0061055557,0.017095556,-0.034191113,9.875699453570027,0.03871134287918125,walk
09/07/2020, 21:37:28,-2.2301106,2.7996025,9.226724,0.0061055557,0.017095556,-0.034191113,9.89664576492204,0.03871134287918125,walk
09/07/2020, 21:37:28,-2.2301106,2.7996025,9.226724,0.007326667,0.014653334,-0.03052778,9.89664576492204,0.034646004135860456,walk
09/07/2020, 21:37:28,-2.2348964,2.8019953,9.195618,0.007326667,0.014653334,-0.03052778,9.869413558478085,0.034646004135860456,walk
09/07/2020, 21:37:28,-2.2348964,2.8019953,9.195618,0.0061055557,0.012211111,-0.03052778,9.869413558478085,0.03344150703455053,walk
09/07/2020, 21:37:28,-2.2468605,2.7828526,9.186047,0.0061055557,0.012211111,-0.03052778,9.857794030037429,0.03344150703455053,walk
09/07/2020, 21:37:29,1.0408778,-4.7425747,8.573483,-0.7888378,0.10501556,0.6838223,9.85292139935799,1.0492407876440402,walk
09/07/2020, 21:37:29,0.8925229,-4.87418,8.456235,-0.7888378,0.10501556,0.6838223,9.801129292786625,1.0492407876440402,walk
09/07/2020, 21:37:29,0.8925229,-4.87418,8.456235,-0.61788225,0.14409111,0.70336,9.801129292786625,0.947236003098601,walk
09/07/2020, 21:37:29,0.8207382,-4.910072,8.425129,-0.61788225,0.14409111,0.70336,9.785970281917281,0.947236003098601,walk
09/07/2020, 21:37:29,0.8207382,-4.910072,8.425129,-0.46646446,0.17950334,0.7558678,9.785970281917281,0.9061714186035977,walk
09/07/2020, 21:37:29,0.7728817,-4.8933225,8.4347,-0.46646446,0.17950334,0.7558678,9.781927988462046,0.9061714186035977,walk
09/07/2020, 21:37:29,0.7728817,-4.8933225,8.4347,-0.3394689,0.18316667,0.7986067,9.781927988462046,0.8868832003760537,walk
09/07/2020, 21:37:29,0.63888365,-4.9340005,8.4682,-0.3394689,0.18316667,0.7986067,9.821554858597235,0.8868832003760537,walk
09/07/2020, 21:37:29,0.63888365,-4.9340005,8.4682,-0.24055889,0.17217667,0.7900589,9.821554858597235,0.8436269735114912,walk
09/07/2020, 21:37:29,0.41874397,-5.0775695,8.606983,-0.24055889,0.17217667,0.7900589,10.00186072320989,0.8436269735114912,walk
09/07/2020, 21:37:29,0.41874397,-5.0775695,8.606983,-0.13798556,0.16729222,0.7680789,10.00186072320989,0.7981052148685865,walk
09/07/2020, 21:37:29,0.25124636,-5.2235317,8.788837,-0.13798556,0.16729222,0.7680789,10.227026538421093,0.7981052148685865,walk
09/07/2020, 21:37:29,0.25124636,-5.2235317,8.788837,-0.008547778,0.17584,0.7485411,10.227026538421093,0.7689646125677005,walk
09/07/2020, 21:37:29,0.15792629,-5.3383875,8.913264,-0.008547778,0.17584,0.7485411,10.390842204960434,0.7689646125677005,walk
09/07/2020, 21:37:29,0.15792629,-5.3383875,8.913264,0.13310112,0.20026223,0.7351089,10.390842204960434,0.7734377693155592,walk
09/07/2020, 21:37:29,0.047856454,-5.3790655,9.0233345,0.13310112,0.20026223,0.7351089,10.505103597587967,0.7734377693155592,walk
09/07/2020, 21:37:29,0.047856454,-5.3790655,9.0233345,0.2503278,0.2283478,0.7216767,10.505103597587967,0.7972603024131929,walk
09/07/2020, 21:37:29,-0.038285162,-5.3479586,8.973084,0.2503278,0.2283478,0.7216767,10.445973918534044,0.7972603024131929,walk
09/07/2020, 21:37:29,-0.038285162,-5.3479586,8.973084,0.3162678,0.23689556,0.71557117,10.445973918534044,0.8174270078800061,walk
09/07/2020, 21:37:29,-0.15314065,-5.2737813,8.863015,0.3162678,0.23689556,0.71557117,10.314516917638642,0.8174270078800061,walk
09/07/2020, 21:37:30,-7.240681,-6.71426,4.6707897,-1.8402145,0.41395667,-1.8072445,10.92359964159764,2.6122561749235422,walk
09/07/2020, 21:37:30,-7.240681,-6.71426,4.6707897,-1.5972134,0.4383789,-1.8646368,10.92359964159764,2.49402024497902,walk
09/07/2020, 21:37:30,-7.240681,-6.7334027,4.625326,-1.5972134,0.4383789,-1.8646368,10.916034911659196,2.49402024497902,walk
09/07/2020, 21:37:30,-7.240681,-6.7334027,4.625326,-1.35177,0.46524334,-1.9037123,10.916034911659196,2.3807255264228773,walk
09/07/2020, 21:37:30,-7.3292155,-6.6257257,4.6468616,-1.35177,0.46524334,-1.9037123,10.91837736080169,2.3807255264228773,walk
09/07/2020, 21:37:30,-7.3292155,-6.6257257,4.6468616,-1.1539501,0.48478112,-1.9537779,10.91837736080169,2.320314994050221,walk
09/07/2020, 21:37:30,-7.4919276,-6.3792653,4.7138605,-1.1539501,0.48478112,-1.9537779,10.910750951181546,2.320314994050221,walk
09/07/2020, 21:37:30,-7.4919276,-6.3792653,4.7138605,-1.0025322,0.5043189,-2.012391,10.910750951181546,2.30415414983484,walk
09/07/2020, 21:37:30,-7.757531,-6.1064835,4.7569313,-1.0025322,0.5043189,-2.012391,10.95886971695998,2.30415414983484,walk
09/07/2020, 21:37:30,-7.757531,-6.1064835,4.7569313,-0.8950745,0.5226356,-2.064899,10.95886971695998,2.3104358966082557,walk
09/07/2020, 21:37:30,-8.063812,-5.8360944,4.759324,-0.8950745,0.5226356,-2.064899,11.033414310297418,2.3104358966082557,walk
09/07/2020, 21:37:30,-8.063812,-5.8360944,4.759324,-0.8535567,0.5030978,-2.108859,11.033414310297418,2.3300113605897392,walk
09/07/2020, 21:37:30,-8.360522,-5.5513487,4.792824,-0.8535567,0.5030978,-2.108859,11.121464146547313,2.3300113605897392,walk
09/07/2020, 21:37:30,-8.360522,-5.5513487,4.792824,-0.8645467,0.47501224,-2.152819,11.121464146547313,2.368059743756545,walk
09/07/2020, 21:37:30,-8.635697,-5.302495,4.814359,-0.8645467,0.47501224,-2.152819,11.219170050522363,2.368059743756545,walk
09/07/2020, 21:37:30,-8.635697,-5.302495,4.814359,-0.90240115,0.46402225,-2.2053268,11.219170050522363,2.4275730178627013,walk
09/07/2020, 21:37:30,-8.930014,-5.1062837,4.8119664,-0.90240115,0.46402225,-2.2053268,11.356685149790373,2.4275730178627013,walk
09/07/2020, 21:37:30,-8.930014,-5.1062837,4.8119664,-0.9304867,0.45181113,-2.27493,11.356685149790373,2.499048872625652,walk
09/07/2020, 21:37:30,-9.221938,-5.0679984,4.7832522,-0.9304867,0.45181113,-2.27493,11.55890361555758,2.499048872625652,walk
09/07/2020, 21:37:30,-9.221938,-5.0679984,4.7832522,-0.92438114,0.4261678,-2.3543024,11.55890361555758,2.5649248114779857,walk
09/07/2020, 21:37:31,-7.826923,-5.1014977,3.5772698,0.23811668,-0.06227667,0.19049335,10.004142113362944,0.31123247278500826,walk
09/07/2020, 21:37:31,-7.826923,-5.1014977,3.5772698,0.32115224,-0.025643334,0.058613338,10.004142113362944,0.3274627691680681,walk
09/07/2020, 21:37:31,-7.8604226,-5.103891,3.5796626,0.32115224,-0.025643334,0.058613338,10.032443867648661,0.3274627691680681,walk
09/07/2020, 21:37:31,-7.8604226,-5.103891,3.5796626,0.39686114,0.019537779,-0.07693,10.032443867648661,0.4047205346145553,walk
09/07/2020, 21:37:31,-7.8436728,-5.0416775,3.562913,0.39686114,0.019537779,-0.07693,9.981786545158442,0.4047205346145553,walk
09/07/2020, 21:37:31,-7.8436728,-5.0416775,3.562913,0.42250445,0.06716111,-0.21613668,9.981786545158442,0.47930751454974074,walk
09/07/2020, 21:37:31,-7.8723865,-4.8909297,3.546163,0.42250445,0.06716111,-0.21613668,9.923252210355683,0.47930751454974074,walk
09/07/2020, 21:37:31,-7.8723865,-4.8909297,3.546163,0.38953447,0.091583334,-0.35900667,9.923252210355683,0.5375968790465221,walk
09/07/2020, 21:37:31,-8.001599,-4.682754,3.5150564,0.38953447,0.091583334,-0.35900667,9.91510959294633,0.5375968790465221,walk
09/07/2020, 21:37:31,-8.001599,-4.682754,3.5150564,0.31260446,0.102573335,-0.49943447,9.91510959294633,0.5980615575884294,walk
09/07/2020, 21:37:31,-8.147561,-4.510471,3.4743786,0.31260446,0.102573335,-0.49943447,9.939738701004702,0.5980615575884294,walk
09/07/2020, 21:37:31,-8.147561,-4.510471,3.4743786,0.21491556,0.098910004,-0.64108336,9.939738701004702,0.6833445400007669,walk
09/07/2020, 21:37:31,-8.271988,-4.3740797,3.426522,0.21491556,0.098910004,-0.64108336,9.964908953709498,0.6833445400007669,walk
09/07/2020, 21:37:31,-8.271988,-4.3740797,3.426522,0.1306589,0.09524667,-0.7754056,9.964908953709498,0.7920842744736407,walk
09/07/2020, 21:37:31,-8.386844,-4.2927237,3.4073794,0.1306589,0.09524667,-0.7754056,10.01882516159706,0.7920842744736407,walk
09/07/2020, 21:37:31,-8.386844,-4.2927237,3.4073794,0.05617111,0.098910004,-0.8999589,10.01882516159706,0.9071187462294847,walk
09/07/2020, 21:37:31,-8.482556,-4.2257247,3.3930225,0.05617111,0.098910004,-0.8999589,10.065938270596279,0.9071187462294847,walk
09/07/2020, 21:37:31,-8.482556,-4.2257247,3.3930225,-0.025643334,0.106236674,-1.0293967,10.065938270596279,1.0351817623085144,walk
09/07/2020, 21:37:31,-8.647661,-4.213761,3.400201,-0.025643334,0.106236674,-1.0293967,10.202901171323047,1.0351817623085144,walk
09/07/2020, 21:37:31,-8.647661,-4.213761,3.400201,-0.10745778,0.11844778,-1.1624979,10.202901171323047,1.173447215515749,walk
09/07/2020, 21:37:32,-8.233703,-4.15394,3.67059,0.102573335,0.04029667,0.93537116,9.925840471608451,0.9418409200144751,walk
09/07/2020, 21:37:32,-8.233703,-4.15394,3.67059,0.07326667,0.029306669,0.85599893,9.925840471608451,0.8596284427710872,walk
09/07/2020, 21:37:32,-8.092526,-4.1898327,3.6586258,0.07326667,0.029306669,0.85599893,9.819838344323582,0.8596284427710872,walk
09/07/2020, 21:37:32,-8.092526,-4.1898327,3.6586258,0.057392225,0.025643334,0.77296335,9.819838344323582,0.7755151712330667,walk
09/07/2020, 21:37:32,-7.960921,-4.211368,3.6801612,0.057392225,0.025643334,0.77296335,9.729104173990805,0.7755151712330667,walk
09/07/2020, 21:37:32,-7.960921,-4.211368,3.6801612,0.05372889,0.024422223,0.69481224,9.729104173990805,0.6973143372431484,walk
09/07/2020, 21:37:32,-7.8604226,-4.2329035,3.6921253,0.05372889,0.024422223,0.69481224,9.661030218590273,0.6973143372431484,walk
09/07/2020, 21:37:32,-7.8604226,-4.2329035,3.6921253,0.06716111,0.025643334,0.60811335,9.661030218590273,0.6123479731942155,walk
09/07/2020, 21:37:32,-7.771888,-4.2711883,3.7064822,0.06716111,0.025643334,0.60811335,9.611623114196988,0.6123479731942155,walk
09/07/2020, 21:37:32,-7.771888,-4.2711883,3.7064822,0.07448778,0.029306669,0.5324045,9.611623114196988,0.538388190338433,walk
09/07/2020, 21:37:32,-7.7551384,-4.2951164,3.7208393,0.07448778,0.029306669,0.5324045,9.614304003630282,0.538388190338433,walk
09/07/2020, 21:37:32,-7.7551384,-4.2951164,3.7208393,0.07326667,0.023201112,0.45181113,9.614304003630282,0.45830077250208867,walk
09/07/2020, 21:37:32,-7.776674,-4.2999024,3.723232,0.07326667,0.023201112,0.45181113,9.634743018714923,0.45830077250208867,walk
09/07/2020, 21:37:32,-7.776674,-4.2999024,3.723232,0.064718895,0.013432222,0.3712178,9.634743018714923,0.37705650174433164,walk
09/07/2020, 21:37:32,-7.836494,-4.2951164,3.7136607,0.064718895,0.013432222,0.3712178,9.677289845158093,0.37705650174433164,walk
09/07/2020, 21:37:32,-7.836494,-4.2951164,3.7136607,0.051286668,0.0012211112,0.2869611,9.677289845158093,0.2915107050266008,walk
09/07/2020, 21:37:32,-7.884351,-4.316652,3.6801612,0.051286668,0.0012211112,0.2869611,9.71288097580359,0.2915107050266008,walk
09/07/2020, 21:37:32,-7.884351,-4.316652,3.6801612,0.037854444,-0.015874445,0.20514667,9.71288097580359,0.20921308113633885,walk
09/07/2020, 21:37:32,-7.925029,-4.304688,3.6514473,0.037854444,-0.015874445,0.20514667,9.72982463513849,0.20921308113633885,walk
09/07/2020, 21:37:32,-7.925029,-4.304688,3.6514473,0.036633335,-0.03174889,0.11234222,9.72982463513849,0.12235509182551235,walk
09/07/2020, 21:37:33,-9.042477,-2.902494,3.1441689,0.10013112,0.28818223,1.8621945,10.003831914388348,1.887019802583454,walk
09/07/2020, 21:37:33,-9.147761,-2.9192436,3.2135608,0.10013112,0.28818223,1.8621945,10.125734235601385,1.887019802583454,walk
09/07/2020, 21:37:33,-9.147761,-2.9192436,3.2135608,0.12089001,0.29306668,1.8597523,10.125734235601385,1.886579200702134,walk
09/07/2020, 21:37:33,-9.272188,-3.089134,3.3044882,0.12089001,0.29306668,1.8597523,10.316775884323034,1.886579200702134,walk
09/07/2020, 21:37:33,-9.272188,-3.089134,3.3044882,0.15508112,0.28818223,1.8524256,10.316775884323034,1.881111284216919,walk
09/07/2020, 21:37:33,-9.327223,-3.2039895,3.3930225,0.15508112,0.28818223,1.8524256,10.42953672516574,1.881111284216919,walk
09/07/2020, 21:37:33,-9.327223,-3.2039895,3.3930225,0.21125223,0.2869611,1.8475412,10.42953672516574,1.8815904748956105,walk
09/07/2020, 21:37:33,-9.329616,-3.2422748,3.4456646,0.21125223,0.2869611,1.8475412,10.46072070079432,1.8815904748956105,walk
09/07/2020, 21:37:33,-9.329616,-3.2422748,3.4456646,0.28818223,0.29795113,1.8353301,10.46072070079432,1.881558012737425,walk
09/07/2020, 21:37:33,-9.274581,-3.1441689,3.455236,0.28818223,0.29795113,1.8353301,10.384714979589896,1.881558012737425,walk
09/07/2020, 21:37:33,-9.274581,-3.1441689,3.455236,0.36267,0.32237336,1.834109,10.384714979589896,1.8972110455323703,walk
09/07/2020, 21:37:33,-9.195618,-2.928815,3.4097722,0.36267,0.32237336,1.834109,10.235423159524428,1.8972110455323703,walk
09/07/2020, 21:37:33,-9.195618,-2.928815,3.4097722,0.3931978,0.3309211,1.7974756,10.235423159524428,1.8695003997656605,walk
09/07/2020, 21:37:33,-9.174082,-2.7565317,3.400201,0.3931978,0.3309211,1.7974756,10.164822251968108,1.8695003997656605,walk
09/07/2020, 21:37:33,-9.174082,-2.7565317,3.400201,0.39808223,0.3260367,1.7400835,10.164822251968108,1.8145687689810486,walk
09/07/2020, 21:37:33,-9.238688,-2.6751757,3.438486,0.39808223,0.3260367,1.7400835,10.214358331729576,1.8145687689810486,walk
09/07/2020, 21:37:33,-9.238688,-2.6751757,3.438486,0.40296668,0.31138334,1.691239,10.214358331729576,1.7662477400121694,walk
09/07/2020, 21:37:33,-9.32483,-2.6201408,3.5102708,0.40296668,0.31138334,1.691239,10.302407226042186,1.7662477400121694,walk
09/07/2020, 21:37:33,-9.32483,-2.6201408,3.5102708,0.39686114,0.3052778,1.6497211,10.302407226042186,1.7240281759440859,walk
09/07/2020, 21:37:33,-9.322437,-2.5052853,3.5820556,0.39686114,0.3052778,1.6497211,10.29637865003827,1.7240281759440859,walk
09/07/2020, 21:37:34,-8.477771,-3.9026937,2.8666015,0.19171445,0.05250778,0.83890337,9.763248449872668,0.8621312879494005,walk
09/07/2020, 21:37:34,-8.477771,-3.9026937,2.8666015,0.17950334,0.037854444,0.8914111,9.763248449872668,0.9100924138409588,walk
09/07/2020, 21:37:34,-8.583055,-3.845266,2.8235307,0.17950334,0.037854444,0.8914111,9.819736358770474,0.9100924138409588,walk
09/07/2020, 21:37:34,-8.583055,-3.845266,2.8235307,0.15019667,0.02075889,0.9317078,9.819736358770474,0.9439647213486814,walk
09/07/2020, 21:37:34,-8.58784,-3.8165522,2.7972097,0.15019667,0.02075889,0.9317078,9.805174653135854,0.9439647213486814,walk
09/07/2020, 21:37:34,-8.58784,-3.8165522,2.7972097,0.11844778,0.012211111,0.97078335,9.805174653135854,0.978058948196138,walk
09/07/2020, 21:37:34,-8.520842,-3.7974095,2.737389,0.11844778,0.012211111,0.97078335,9.722055324704185,0.978058948196138,walk
09/07/2020, 21:37:34,-8.520842,-3.7974095,2.737389,0.08669889,0.013432222,1.0074167,9.722055324704185,1.0112297366125,walk
09/07/2020, 21:37:34,-8.456235,-3.792624,2.6751757,0.08669889,0.013432222,1.0074167,9.64616353029302,1.0112297366125,walk
09/07/2020, 21:37:34,-8.456235,-3.792624,2.6751757,0.06349778,0.03174889,1.0416079,9.64616353029302,1.044024371173332,walk
09/07/2020, 21:37:34,-8.492127,-3.818945,2.6536403,0.06349778,0.03174889,1.0416079,9.682064612591223,1.044024371173332,walk
09/07/2020, 21:37:34,-8.492127,-3.818945,2.6536403,0.06105556,0.05250778,1.0794623,9.682064612591223,1.082461862376901,walk
09/07/2020, 21:37:34,-8.652447,-3.842873,2.6249263,0.06105556,0.05250778,1.0794623,9.824599054062869,1.082461862376901,walk
09/07/2020, 21:37:34,-8.652447,-3.842873,2.6249263,0.064718895,0.06960334,1.1063267,9.824599054062869,1.110401695600326,walk
09/07/2020, 21:37:34,-8.913264,-3.897908,2.617748,0.064718895,0.06960334,1.1063267,10.07435215270492,1.110401695600326,walk
09/07/2020, 21:37:34,-8.913264,-3.897908,2.617748,0.07204556,0.07326667,1.1331911,10.07435215270492,1.1378403473712844,walk
09/07/2020, 21:37:34,-9.157332,-3.912265,2.6129622,0.07204556,0.07326667,1.1331911,10.295150638695667,1.1378403473712844,walk
09/07/2020, 21:37:34,-9.157332,-3.912265,2.6129622,0.059834447,0.068382226,1.1515079,10.295150638695667,1.1550872818661775,walk
09/07/2020, 21:37:34,-9.293723,-3.8668015,2.5818555,0.059834447,0.068382226,1.1515079,10.391892081197271,1.1550872818661775,walk
09/07/2020, 21:37:34,-9.293723,-3.8668015,2.5818555,0.009768889,0.070824444,1.1698245,10.391892081197271,1.1720071883221381,walk
09/07/2020, 21:37:35,-9.793823,-4.0677986,2.5316064,0.8205867,0.2942878,-2.1760201,10.902980804028655,2.3441483495260633,walk
09/07/2020, 21:37:35,-9.793823,-4.0677986,2.5316064,0.8962956,0.33214223,-2.1894524,10.902980804028655,2.389009446052841,walk
09/07/2020, 21:37:35,-9.927821,-4.022335,2.6225336,0.8962956,0.33214223,-2.1894524,11.0280775531847,2.389009446052841,walk
09/07/2020, 21:37:35,-9.927821,-4.022335,2.6225336,0.92560226,0.35778558,-2.2102113,11.0280775531847,2.4227637009659686,walk
09/07/2020, 21:37:35,-10.0881405,-3.991228,2.7206392,0.92560226,0.35778558,-2.2102113,11.184916543615818,2.4227637009659686,walk
09/07/2020, 21:37:35,-10.0881405,-3.991228,2.7206392,0.9304867,0.3492378,-2.2224224,11.184916543615818,2.434529452065692,walk
09/07/2020, 21:37:35,-10.236495,-3.952943,2.7397819,0.9304867,0.3492378,-2.2224224,11.310083727415417,2.434529452065692,walk
09/07/2020, 21:37:35,-10.236495,-3.952943,2.7397819,0.90362227,0.31871,-2.2224224,11.310083727415417,2.4201798326106263,walk
09/07/2020, 21:37:35,-10.253245,-3.8811584,2.7062824,0.90362227,0.31871,-2.2224224,11.292315738635276,2.4201798326106263,walk
09/07/2020, 21:37:35,-10.253245,-3.8811584,2.7062824,0.85722005,0.28574002,-2.20899,11.292315738635276,2.386652640643363,walk
09/07/2020, 21:37:35,-10.150353,-3.7950168,2.5914268,0.85722005,0.28574002,-2.20899,11.142141632343932,2.386652640643363,walk
09/07/2020, 21:37:35,-10.150353,-3.7950168,2.5914268,0.78395337,0.26620224,-2.1931157,11.142141632343932,2.3441849415554663,walk
09/07/2020, 21:37:35,-9.9756775,-3.6873398,2.4502504,0.78395337,0.26620224,-2.1931157,10.913951760123085,2.3441849415554663,walk
09/07/2020, 21:37:35,-9.9756775,-3.6873398,2.4502504,0.6801589,0.2613178,-2.162588,10.913951760123085,2.282036256873497,walk
09/07/2020, 21:37:35,-9.772287,-3.5174494,2.321038,0.6801589,0.2613178,-2.162588,10.642239801134973,2.282036256873497,walk
09/07/2020, 21:37:35,-9.772287,-3.5174494,2.321038,0.55316335,0.2503278,-2.129618,10.642239801134973,2.21448102772767,walk
09/07/2020, 21:37:35,-9.62154,-3.385844,2.239682,0.55316335,0.2503278,-2.129618,10.442899411965488,2.21448102772767,walk
09/07/2020, 21:37:35,-9.62154,-3.385844,2.239682,0.44692668,0.25277,-2.0917635,10.442899411965488,2.153859480392634,walk
09/07/2020, 21:37:35,-9.556933,-3.4049866,2.172683,0.44692668,0.25277,-2.0917635,10.375425840544706,2.153859480392634,walk
09/07/2020, 21:37:35,-9.556933,-3.4049866,2.172683,0.38831335,0.26620224,-2.053909,10.375425840544706,2.1071766261620173,walk
09/07/2020, 21:37:36,-8.379665,-4.3070807,3.3690944,0.1526389,0.04151778,-1.1270856,10.0060248465063,1.1381319050182344,walk
09/07/2020, 21:37:36,-8.487342,-4.2568316,3.4073794,0.1526389,0.04151778,-1.1270856,10.087904745928626,1.1381319050182344,walk
09/07/2020, 21:37:36,-8.487342,-4.2568316,3.4073794,0.16851334,0.05250778,-1.1783723,10.087904745928626,1.1915179419721673,walk
09/07/2020, 21:37:36,-8.678768,-4.194618,3.4600215,0.16851334,0.05250778,-1.1783723,10.241464130946042,1.1915179419721673,walk
09/07/2020, 21:37:36,-8.678768,-4.194618,3.4600215,0.1526389,0.047623336,-1.2247745,10.241464130946042,1.2351676573088262,walk
09/07/2020, 21:37:36,-8.834301,-4.1611185,3.4337006,0.1526389,0.047623336,-1.2247745,10.351332322301577,1.2351676573088262,walk
09/07/2020, 21:37:36,-8.834301,-4.1611185,3.4337006,0.1306589,0.026864445,-1.2662922,10.351332322301577,1.2732986363829621,walk
09/07/2020, 21:37:36,-8.932407,-4.168297,3.3690944,0.1306589,0.026864445,-1.2662922,10.416976375248,1.2732986363829621,walk
09/07/2020, 21:37:36,-8.932407,-4.168297,3.3690944,0.109900005,0.01099,-1.2980411,10.416976375248,1.3027315541635474,walk
09/07/2020, 21:37:36,-8.91805,-4.1491547,3.306881,0.109900005,0.01099,-1.2980411,10.377020694630126,1.3027315541635474,walk
09/07/2020, 21:37:36,-8.91805,-4.1491547,3.306881,0.10135223,0.0048844446,-1.339559,10.377020694630126,1.343396567259337,walk
09/07/2020, 21:37:36,-8.874979,-4.139583,3.2015967,0.10135223,0.0048844446,-1.339559,10.302990953490017,1.343396567259337,walk
09/07/2020, 21:37:36,-8.874979,-4.139583,3.2015967,0.12211112,0.017095556,-1.3700867,10.302990953490017,1.3756238099906068,walk
09/07/2020, 21:37:36,-8.831908,-4.1467614,3.1274192,0.12211112,0.017095556,-1.3700867,10.245925249894123,1.3756238099906068,walk
09/07/2020, 21:37:36,-8.831908,-4.1467614,3.1274192,0.16607112,0.036633335,-1.4018356,10.245925249894123,1.4121135069934372,walk
09/07/2020, 21:37:36,-8.803194,-4.165904,3.0364919,0.16607112,0.036633335,-1.4018356,10.20153247344898,1.4121135069934372,walk
09/07/2020, 21:37:36,-8.803194,-4.165904,3.0364919,0.22590557,0.06594,-1.4299212,10.20153247344898,1.4491569634832369,walk
09/07/2020, 21:37:36,-8.829515,-4.197011,2.9599216,0.22590557,0.06594,-1.4299212,10.2145181168956,1.4491569634832369,walk
09/07/2020, 21:37:36,-8.829515,-4.197011,2.9599216,0.29673,0.08792,-1.4470167,10.2145181168956,1.4797418704293772,walk
09/07/2020, 21:37:36,-8.851051,-4.197011,2.8881369,0.29673,0.08792,-1.4470167,10.212607183439182,1.4797418704293772,walk
09/07/2020, 21:37:37,-8.422736,-4.017549,3.2590244,-0.23079,-0.014653334,0.74976224,9.88455485828715,0.7846159304757427,walk
09/07/2020, 21:37:37,-8.4012,-3.991228,3.2709885,-0.23079,-0.014653334,0.74976224,9.859484453937261,0.7846159304757427,walk
09/07/2020, 21:37:37,-8.4012,-3.991228,3.2709885,-0.25277,-0.028085556,0.68260115,9.859484453937261,0.7284406701663975,walk
09/07/2020, 21:37:37,-8.276773,-3.9984066,3.3236306,-0.25277,-0.028085556,0.68260115,9.774392804213596,0.7284406701663975,walk
09/07/2020, 21:37:37,-8.276773,-3.9984066,3.3236306,-0.27108666,-0.03052778,0.6117767,9.774392804213596,0.6698437627970018,walk
09/07/2020, 21:37:37,-8.1738825,-4.034299,3.3260236,-0.27108666,-0.03052778,0.6117767,9.703110599374929,0.6698437627970018,walk
09/07/2020, 21:37:37,-8.1738825,-4.034299,3.3260236,-0.25887558,-0.024422223,0.54095227,9.703110599374929,0.6002019355799254,walk
09/07/2020, 21:37:37,-8.123632,-4.106084,3.35713,-0.25887558,-0.024422223,0.54095227,9.701734422177232,0.6002019355799254,walk
09/07/2020, 21:37:37,-8.123632,-4.106084,3.35713,-0.21980001,-0.014653334,0.4701278,9.701734422177232,0.5191790681200429,walk
09/07/2020, 21:37:37,-7.989635,-4.1491547,3.37388,-0.21980001,-0.014653334,0.4701278,9.6141987365839,0.5191790681200429,walk
09/07/2020, 21:37:37,-7.989635,-4.1491547,3.37388,-0.15630223,0.0012211112,0.38953447,9.6141987365839,0.4197248905537717,walk
09/07/2020, 21:37:37,-7.8963146,-4.2161536,3.3906298,-0.15630223,0.0012211112,0.38953447,9.572048170641951,0.4197248905537717,walk
09/07/2020, 21:37:37,-7.8963146,-4.2161536,3.3906298,-0.085477784,0.023201112,0.31138334,9.572048170641951,0.3237349619902345,walk
09/07/2020, 21:37:37,-7.850851,-4.2687955,3.4313076,-0.085477784,0.023201112,0.31138334,9.572478718675606,0.3237349619902345,walk
09/07/2020, 21:37:37,-7.850851,-4.2687955,3.4313076,-0.02075889,0.048844445,0.23445335,9.572478718675606,0.24038528412417423,walk
09/07/2020, 21:37:37,-7.8484583,-4.223332,3.438486,-0.02075889,0.048844445,0.23445335,9.552906194574094,0.24038528412417423,walk
09/07/2020, 21:37:37,-7.8484583,-4.223332,3.438486,0.019537779,0.06349778,0.16729222,9.552906194574094,0.18000105763070448,walk
09/07/2020, 21:37:37,-7.9537425,-4.206582,3.4863427,0.019537779,0.06349778,0.16729222,9.649452716649336,0.18000105763070448,walk
09/07/2020, 21:37:37,-7.9537425,-4.206582,3.4863427,0.042738892,0.06716111,0.085477784,9.649452716649336,0.11680616254508928,walk
09/07/2020, 21:37:37,-8.118847,-4.173083,3.493521,0.042738892,0.06716111,0.085477784,9.774199914789707,0.11680616254508928,walk
09/07/2020, 21:37:38,-8.807981,-3.912265,3.141776,-0.16729222,-0.19293556,1.4970822,10.136917481812077,1.5187053796420131,walk
09/07/2020, 21:37:38,-8.736196,-3.8907297,3.1226335,-0.16729222,-0.19293556,1.4970822,10.060304666216158,1.5187053796420131,walk
09/07/2020, 21:37:38,-8.736196,-3.8907297,3.1226335,-0.15508112,-0.18072446,1.4958612,10.060304666216158,1.5146986934668378,walk
09/07/2020, 21:37:38,-8.717052,-3.8620157,3.0675986,-0.15508112,-0.18072446,1.4958612,10.015604330012486,1.5146986934668378,walk
09/07/2020, 21:37:38,-8.717052,-3.8620157,3.0675986,-0.14287001,-0.1746189,1.4873134,10.015604330012486,1.5043286605807051,walk
09/07/2020, 21:37:38,-8.685946,-3.8691943,3.0747771,-0.14287001,-0.1746189,1.4873134,9.993527137801792,1.5043286605807051,walk
09/07/2020, 21:37:38,-8.685946,-3.8691943,3.0747771,-0.12943779,-0.16240779,1.4751023,9.993527137801792,1.4896500399684522,walk
09/07/2020, 21:37:38,-8.7266245,-3.885944,3.0795627,-0.12943779,-0.16240779,1.4751023,10.036844179522562,1.4896500399684522,walk
09/07/2020, 21:37:38,-8.7266245,-3.885944,3.0795627,-0.12821667,-0.1306589,1.4677756,10.036844179522562,1.479147194778095,walk
09/07/2020, 21:37:38,-8.717052,-3.818945,2.9479575,-0.12821667,-0.1306589,1.4677756,9.963021503849431,1.479147194778095,walk
09/07/2020, 21:37:38,-8.717052,-3.818945,2.9479575,-0.29673,-0.12577444,1.4287001,9.963021503849431,1.4645995548277806,walk
09/07/2020, 21:37:38,-8.956335,-3.3164523,2.8833513,-0.29673,-0.12577444,1.4287001,9.976397563222646,1.4645995548277806,walk
09/07/2020, 21:37:38,-8.956335,-3.3164523,2.8833513,-0.36755446,-0.37610224,1.35177,9.976397563222646,1.4504590385060296,walk
09/07/2020, 21:37:38,-9.315259,-3.9290147,3.3690944,-0.36755446,-0.37610224,1.35177,10.656547429828342,1.4504590385060296,walk
09/07/2020, 21:37:38,-9.315259,-3.9290147,3.3690944,-0.3052778,-0.25765446,1.28583,10.656547429828342,1.3464543046122075,walk
09/07/2020, 21:37:38,-8.987442,-4.682754,3.5389848,-0.3052778,-0.25765446,1.28583,10.734370621523725,1.3464543046122075,walk
09/07/2020, 21:37:38,-8.987442,-4.682754,3.5389848,-0.12821667,-0.12943779,1.27484,10.734370621523725,1.2877929469440066,walk
09/07/2020, 21:37:38,-8.69791,-4.508078,3.3547373,-0.12821667,-0.12943779,1.27484,10.355224483845287,1.2877929469440066,walk
09/07/2020, 21:37:38,-8.69791,-4.508078,3.3547373,-0.04396,-0.11234222,1.3139156,10.355224483845287,1.3194421123822941,walk
09/07/2020, 21:37:38,-8.413164,-3.9074793,3.4169507,-0.04396,-0.11234222,1.3139156,9.885609607038939,1.3194421123822941,walk
09/07/2020, 21:37:39,-8.458628,-3.2231321,2.617748,0.017095556,0.035412222,-0.4249467,9.422821660088568,0.4267622026391903,walk
09/07/2020, 21:37:39,-8.458628,-3.2231321,2.617748,-0.02198,0.014653334,-0.3614489,9.422821660088568,0.3624129660128158,walk
09/07/2020, 21:37:39,-8.458628,-3.2566316,2.6321049,-0.02198,0.014653334,-0.3614489,9.43832655231372,0.3624129660128158,walk
09/07/2020, 21:37:39,-8.458628,-3.2566316,2.6321049,-0.05250778,-0.0036633336,-0.29306668,9.43832655231372,0.29775588357636634,walk
09/07/2020, 21:37:39,-8.439486,-3.2829528,2.6488547,-0.05250778,-0.0036633336,-0.29306668,9.43499479242838,0.29775588357636634,walk
09/07/2020, 21:37:39,-8.439486,-3.2829528,2.6488547,-0.070824444,-0.007326667,-0.23567446,9.43499479242838,0.24619551389178282,walk
09/07/2020, 21:37:39,-8.382058,-3.347559,2.6656044,-0.070824444,-0.007326667,-0.23567446,9.411189955685751,0.24619551389178282,walk
09/07/2020, 21:37:39,-8.382058,-3.347559,2.6656044,-0.07448778,-0.013432222,-0.17339778,9.411189955685751,0.18919736874716853,walk
09/07/2020, 21:37:39,-8.379665,-3.3619158,2.6751757,-0.07448778,-0.013432222,-0.17339778,9.416890923635098,0.18919736874716853,walk
09/07/2020, 21:37:39,-8.379665,-3.3619158,2.6751757,-0.081814446,-0.028085556,-0.10867889,9.416890923635098,0.13890105677208772,walk
09/07/2020, 21:37:39,-8.367701,-3.37388,2.6321049,-0.081814446,-0.028085556,-0.10867889,9.39837510703011,0.13890105677208772,walk
09/07/2020, 21:37:39,-8.367701,-3.37388,2.6321049,-0.089141116,-0.035412222,-0.046402223,9.39837510703011,0.10655200746790222,walk
09/07/2020, 21:37:39,-8.331808,-3.3786657,2.656033,-0.089141116,-0.035412222,-0.046402223,9.374909032745627,0.10655200746790222,walk
09/07/2020, 21:37:39,-8.331808,-3.3786657,2.656033,-0.091583334,-0.046402223,0.025643334,9.374909032745627,0.10582180283481657,walk
09/07/2020, 21:37:39,-8.260024,-3.3954153,2.672783,-0.091583334,-0.046402223,0.025643334,9.322049730054488,0.10582180283481657,walk
09/07/2020, 21:37:39,-8.260024,-3.3954153,2.672783,-0.09036223,-0.042738892,0.098910004,9.322049730054488,0.14062408792169065,walk
09/07/2020, 21:37:39,-8.228917,-3.3954153,2.6679974,-0.09036223,-0.042738892,0.098910004,9.293122834328571,0.14062408792169065,walk
09/07/2020, 21:37:39,-8.228917,-3.3954153,2.6679974,-0.089141116,-0.04396,0.16485001,9.293122834328571,0.19249453622850418,walk
09/07/2020, 21:37:39,-8.219346,-3.4217365,2.6416762,-0.089141116,-0.04396,0.16485001,9.286785398690444,0.19249453622850418,walk
09/07/2020, 21:37:39,-8.219346,-3.4217365,2.6416762,-0.07937223,-0.04151778,0.23811668,9.286785398690444,0.25440760697421305,walk
09/07/2020, 21:37:40,-9.5760765,-3.9026937,3.1752756,-0.064718895,0.015874445,-1.812129,10.817330293642115,1.8133538322606195,walk
09/07/2020, 21:37:40,-9.5760765,-3.9026937,3.1752756,-0.017095556,0.03174889,-1.8304456,10.817330293642115,1.8308007858918094,walk
09/07/2020, 21:37:40,-9.530613,-3.9074793,3.1250265,-0.017095556,0.03174889,-1.8304456,10.764142691995282,1.8308007858918094,walk
09/07/2020, 21:37:40,-9.530613,-3.9074793,3.1250265,0.034191113,0.047623336,-1.8377723,10.764142691995282,1.8387071158514148,walk
09/07/2020, 21:37:40,-9.408579,-3.8476589,3.1154552,0.034191113,0.047623336,-1.8377723,10.63164596846653,1.8387071158514148,walk
09/07/2020, 21:37:40,-9.408579,-3.8476589,3.1154552,0.07204556,0.06960334,-1.8438779,10.63164596846653,1.8465971244039543,walk
09/07/2020, 21:37:40,-9.272188,-3.790231,3.089134,0.07204556,0.06960334,-1.8438779,10.48246504670333,1.8465971244039543,walk
09/07/2020, 21:37:40,-9.272188,-3.790231,3.089134,0.091583334,0.081814446,-1.8389934,10.48246504670333,1.8430892400100625,walk
09/07/2020, 21:37:40,-9.183653,-3.7136607,3.0412776,0.091583334,0.081814446,-1.8389934,10.36243821826625,1.8430892400100625,walk
09/07/2020, 21:37:40,-9.183653,-3.7136607,3.0412776,0.089141116,0.09036223,-1.8267823,10.36243821826625,1.8311868308928307,walk
09/07/2020, 21:37:40,-9.097511,-3.6729827,2.9982069,0.089141116,0.09036223,-1.8267823,10.2588867767718,1.8311868308928307,walk
09/07/2020, 21:37:40,-9.097511,-3.6729827,2.9982069,0.06960334,0.10135223,-1.8096868,10.2588867767718,1.8138586330982174,walk
09/07/2020, 21:37:40,-9.047262,-3.629912,2.9623144,0.06960334,0.10135223,-1.8096868,10.188450322594173,1.8138586330982174,walk
09/07/2020, 21:37:40,-9.047262,-3.629912,2.9623144,0.064718895,0.117226675,-1.7816012,10.188450322594173,1.7866262706350369,walk
09/07/2020, 21:37:40,-9.080762,-3.6634114,2.9383862,0.064718895,0.117226675,-1.7816012,10.223254533600741,1.7866262706350369,walk
09/07/2020, 21:37:40,-9.080762,-3.6634114,2.9383862,0.07204556,0.11966889,-1.7486312,10.223254533600741,1.7542013613537693,walk
09/07/2020, 21:37:40,-9.06162,-3.6466618,2.8977082,0.07204556,0.11966889,-1.7486312,10.18861164792522,1.7542013613537693,walk
09/07/2020, 21:37:40,-9.06162,-3.6466618,2.8977082,0.081814446,0.11234222,-1.7181034,10.18861164792522,1.7237150872648723,walk
09/07/2020, 21:37:40,-9.016156,-3.6873398,2.9168508,0.081814446,0.11234222,-1.7181034,10.16836102107188,1.7237150872648723,walk
09/07/2020, 21:37:40,-9.016156,-3.6873398,2.9168508,0.09036223,0.11966889,-1.6863545,10.16836102107188,1.6930084277911677,walk
09/07/2020, 21:37:41,-8.269595,-2.2564318,3.8333018,-0.057392225,0.012211111,-0.32359445,9.389988870471427,0.328871323437507,walk
09/07/2020, 21:37:41,-8.269595,-2.2564318,3.8333018,-0.07448778,-0.0012211112,-0.3858711,9.389988870471427,0.39299673824926745,walk
09/07/2020, 21:37:41,-8.30788,-2.292324,3.8261235,-0.07448778,-0.0012211112,-0.3858711,9.429466965083423,0.39299673824926745,walk
09/07/2020, 21:37:41,-8.30788,-2.292324,3.8261235,-0.078151114,-0.017095556,-0.4591378,9.429466965083423,0.46605511656459453,walk
09/07/2020, 21:37:41,-8.362915,-2.3234308,3.8333018,-0.078151114,-0.017095556,-0.4591378,9.488460416777711,0.46605511656459453,walk
09/07/2020, 21:37:41,-8.362915,-2.3234308,3.8333018,-0.06227667,-0.02198,-0.53851,9.488460416777711,0.5425445147173342,walk
09/07/2020, 21:37:41,-8.391629,-2.3545375,3.842873,-0.06227667,-0.02198,-0.53851,9.525280119947809,0.5425445147173342,walk
09/07/2020, 21:37:41,-8.391629,-2.3545375,3.842873,-0.037854444,-0.028085556,-0.60933447,9.525280119947809,0.6111548513396258,walk
09/07/2020, 21:37:41,-8.403593,-2.400001,3.8644085,-0.037854444,-0.028085556,-0.60933447,9.555837713720148,0.6111548513396258,walk
09/07/2020, 21:37:41,-8.403593,-2.400001,3.8644085,-0.007326667,-0.034191113,-0.6838223,9.555837713720148,0.6847157183540631,walk
09/07/2020, 21:37:41,-8.410771,-2.4598217,3.8572302,-0.007326667,-0.034191113,-0.6838223,9.574446331230604,0.6847157183540631,walk
09/07/2020, 21:37:41,-8.410771,-2.4598217,3.8572302,0.024422223,-0.028085556,-0.77052116,9.574446331230604,0.7714195405181582,walk
09/07/2020, 21:37:41,-8.441878,-2.4885356,3.8787656,0.024422223,-0.028085556,-0.77052116,9.617844958303905,0.7714195405181582,walk
09/07/2020, 21:37:41,-8.441878,-2.4885356,3.8787656,0.048844445,-0.02198,-0.8498934,9.617844958303905,0.8515795186448235,walk
09/07/2020, 21:37:41,-8.46102,-2.5220351,3.8763726,0.048844445,-0.02198,-0.8498934,9.642395599143864,0.8515795186448235,walk
09/07/2020, 21:37:41,-8.46102,-2.5220351,3.8763726,0.047623336,-0.03052778,-0.9292656,9.642395599143864,0.930985776960579,walk
09/07/2020, 21:37:41,-8.559127,-2.524428,3.804588,0.047623336,-0.03052778,-0.9292656,9.700839094219322,0.930985776960579,walk
09/07/2020, 21:37:41,-8.559127,-2.524428,3.804588,0.026864445,-0.04151778,-1.0061955,9.700839094219322,1.0074099957624143,walk
09/07/2020, 21:37:41,-8.659625,-2.5674987,3.802195,0.026864445,-0.04151778,-1.0061955,9.799889944505345,1.0074099957624143,walk
09/07/2020, 21:37:41,-8.659625,-2.5674987,3.802195,0.0061055557,-0.05250778,-1.0941156,9.799889944505345,1.0953918584556406,walk
09/07/2020, 21:37:42,-9.016156,-2.1511476,4.168297,-0.05617111,0.20392556,1.1295278,10.16332656686974,1.1491622588342736,walk
09/07/2020, 21:37:42,-9.016156,-2.1511476,4.168297,-0.18438779,0.19415668,1.075799,10.16332656686974,1.1086203745143872,walk
09/07/2020, 21:37:42,-8.965906,-1.9669002,4.194618,-0.18438779,0.19415668,1.075799,10.092125223926457,1.1086203745143872,walk
09/07/2020, 21:37:42,-8.965906,-1.9669002,4.194618,-0.34557447,0.15141778,1.0232911,10.092125223926457,1.0906299804252615,walk
09/07/2020, 21:37:42,-8.91805,-1.8496519,4.06062,-0.34557447,0.15141778,1.0232911,9.972033801575746,1.0906299804252615,walk
09/07/2020, 21:37:42,-8.91805,-1.8496519,4.06062,-0.5189722,0.10135223,0.9646778,9.972033801575746,1.1000944122933225,walk
09/07/2020, 21:37:42,-8.793623,-1.7994026,4.0127635,-0.5189722,0.10135223,0.9646778,9.831984822746096,1.1000944122933225,walk
09/07/2020, 21:37:42,-8.793623,-1.7994026,4.0127635,-0.6655056,0.06594,0.92316,9.831984822746096,1.1399430632621286,walk
09/07/2020, 21:37:42,-8.688339,-1.8592232,3.9290147,-0.6655056,0.06594,0.92316,9.714993880215967,1.1399430632621286,walk
09/07/2020, 21:37:42,-8.688339,-1.8592232,3.9290147,-0.7656367,0.046402223,0.8779789,9.714993880215967,1.1658471947694047,walk
09/07/2020, 21:37:42,-8.585447,-1.9381863,3.9170506,-0.7656367,0.046402223,0.8779789,9.633782072827971,1.1658471947694047,walk
09/07/2020, 21:37:42,-8.585447,-1.9381863,3.9170506,-0.81570226,0.024422223,0.8230289,9.633782072827971,1.159026845144385,walk
09/07/2020, 21:37:42,-8.5016985,-2.0865414,3.95055,-0.81570226,0.024422223,0.8230289,9.604133395835547,1.159026845144385,walk
09/07/2020, 21:37:42,-8.5016985,-2.0865414,3.95055,-0.8205867,0.015874445,0.7570889,9.604133395835547,1.1166011380835783,walk
09/07/2020, 21:37:42,-8.4705925,-2.254039,4.063013,-0.8205867,0.015874445,0.7570889,9.661247568381944,1.1166011380835783,walk
09/07/2020, 21:37:42,-8.4705925,-2.254039,4.063013,-0.77906895,0.015874445,0.69603336,9.661247568381944,1.0448267120405752,walk
09/07/2020, 21:37:42,-8.415557,-2.3856442,4.1515474,-0.77906895,0.015874445,0.69603336,9.68236760211825,1.0448267120405752,walk
09/07/2020, 21:37:42,-8.415557,-2.3856442,4.1515474,-0.70580226,0.01099,0.6191034,9.68236760211825,0.9389177803474649,walk
09/07/2020, 21:37:42,-8.370093,-2.5435705,4.2281175,-0.70580226,0.01099,0.6191034,9.716233370158271,0.9389177803474649,walk
09/07/2020, 21:37:42,-8.370093,-2.5435705,4.2281175,-0.61299783,0.012211111,0.5458367,9.716233370158271,0.8208855825823703,walk
09/07/2020, 21:37:43,-8.848659,-3.2015967,3.6849468,-0.20026223,0.059834447,1.174709,10.105830631137716,1.1931581075738837,walk
09/07/2020, 21:37:43,-8.939586,-3.1920254,3.7064822,-0.20026223,0.059834447,1.174709,10.19034977934274,1.1931581075738837,walk
09/07/2020, 21:37:43,-8.939586,-3.1920254,3.7064822,-0.21003112,0.058613338,1.1954678,10.19034977934274,1.2151921359996398,walk
09/07/2020, 21:37:43,-9.013762,-3.1776686,3.6490545,-0.21003112,0.058613338,1.1954678,10.230400306536287,1.2151921359996398,walk
09/07/2020, 21:37:43,-9.013762,-3.1776686,3.6490545,-0.21980001,0.06349778,1.2089001,10.230400306536287,1.2303590736761019,walk
09/07/2020, 21:37:43,-9.056833,-3.1776686,3.641876,-0.21980001,0.06349778,1.2089001,10.265820330131413,1.2303590736761019,walk
09/07/2020, 21:37:43,-9.056833,-3.1776686,3.641876,-0.22102112,0.07570889,1.229659,10.265820330131413,1.2516562349582545,walk
09/07/2020, 21:37:43,-9.075976,-3.1513474,3.6179478,-0.22102112,0.07570889,1.229659,10.266152343207173,1.2516562349582545,walk
09/07/2020, 21:37:43,-9.075976,-3.1513474,3.6179478,-0.21491556,0.09524667,1.2504178,10.266152343207173,1.2723228253855483,walk
09/07/2020, 21:37:43,-9.109476,-3.101098,3.6179478,-0.21491556,0.09524667,1.2504178,10.280511184357994,1.2723228253855483,walk
09/07/2020, 21:37:43,-9.109476,-3.101098,3.6179478,-0.21980001,0.11356334,1.2589656,10.280511184357994,1.2830444601622966,walk
09/07/2020, 21:37:43,-9.157332,-3.0867412,3.5892339,-0.21980001,0.11356334,1.2589656,10.308603598922657,1.2830444601622966,walk
09/07/2020, 21:37:43,-9.157332,-3.0867412,3.5892339,-0.2283478,0.13310112,1.2723979,10.308603598922657,1.2995595320246114,walk
09/07/2020, 21:37:43,-9.176475,-2.969493,3.5198421,-0.2283478,0.13310112,1.2723979,10.267174024928686,1.2995595320246114,walk
09/07/2020, 21:37:43,-9.176475,-2.969493,3.5198421,-0.25521225,0.15019667,1.284609,10.267174024928686,1.3182990980183158,walk
09/07/2020, 21:37:43,-9.21476,-2.900101,3.4528432,-0.25521225,0.15019667,1.284609,10.258874706904788,1.3182990980183158,walk
09/07/2020, 21:37:43,-9.21476,-2.900101,3.4528432,-0.29306668,0.14897557,1.2882723,10.258874706904788,1.329559031600809,walk
09/07/2020, 21:37:43,-9.200403,-2.8546374,3.385844,-0.29306668,0.14897557,1.2882723,10.21079396654536,1.329559031600809,walk
09/07/2020, 21:37:43,-9.200403,-2.8546374,3.385844,-0.30161446,0.15141778,1.2785034,10.21079396654536,1.3222970987721863,walk
09/07/2020, 21:37:43,-9.195618,-2.8809586,3.4504502,-0.30161446,0.15141778,1.2785034,10.235473272166262,1.3222970987721863,walk
09/07/2020, 21:37:44,-7.745567,-3.562913,3.0077782,0.14531223,0.10501556,0.11234222,9.040734698058179,0.21157667358717785,walk
09/07/2020, 21:37:44,-7.745567,-3.562913,3.0077782,0.15996556,0.10501556,0.18683001,9.040734698058179,0.2674372870628849,walk
09/07/2020, 21:37:44,-7.812566,-3.574877,3.0412776,0.15996556,0.10501556,0.18683001,9.114016671877579,0.2674372870628849,walk
09/07/2020, 21:37:44,-7.812566,-3.574877,3.0412776,0.17217667,0.102573335,0.27108666,9.114016671877579,0.33712620043732056,walk
09/07/2020, 21:37:44,-7.91785,-3.548556,3.048456,0.17217667,0.102573335,0.27108666,9.196612578609177,0.33712620043732056,walk
09/07/2020, 21:37:44,-7.91785,-3.548556,3.048456,0.15874445,0.091583334,0.35900667,9.196612578609177,0.40307952090899124,walk
09/07/2020, 21:37:44,-8.068598,-3.481557,3.0077782,0.15874445,0.091583334,0.35900667,9.28817733765746,0.40307952090899124,walk
09/07/2020, 21:37:44,-8.068598,-3.481557,3.0077782,0.13188,0.064718895,0.43227336,9.28817733765746,0.4565535301763301,walk
09/07/2020, 21:37:44,-8.233703,-3.4432719,2.9742785,0.13188,0.064718895,0.43227336,9.407247896851572,0.4565535301763301,walk
09/07/2020, 21:37:44,-8.233703,-3.4432719,2.9742785,0.09036223,0.026864445,0.52019334,9.407247896851572,0.5286663787655558,walk
09/07/2020, 21:37:44,-8.322237,-3.3690944,2.9048867,0.09036223,0.026864445,0.52019334,9.436566784960204,0.5286663787655558,walk
09/07/2020, 21:37:44,-8.322237,-3.3690944,2.9048867,0.05006556,0.0012211112,0.6068922,9.436566784960204,0.6089550293832241,walk
09/07/2020, 21:37:44,-8.286345,-3.3092737,2.8498518,0.05006556,0.0012211112,0.6068922,9.366773923853847,0.6089550293832241,walk
09/07/2020, 21:37:44,-8.286345,-3.3092737,2.8498518,0.017095556,-0.02198,0.69237006,9.366773923853847,0.6929297759928121,walk
09/07/2020, 21:37:44,-8.226524,-3.2877383,2.8474588,0.017095556,-0.02198,0.69237006,9.305533195633544,0.6929297759928121,walk
09/07/2020, 21:37:44,-8.226524,-3.2877383,2.8474588,-0.017095556,-0.042738892,0.76930004,9.305533195633544,0.7706759552557177,walk
09/07/2020, 21:37:44,-8.1738825,-3.2805598,2.8498518,-0.017095556,-0.042738892,0.76930004,9.25721787989853,0.7706759552557177,walk
09/07/2020, 21:37:44,-8.1738825,-3.2805598,2.8498518,-0.042738892,-0.05006556,0.84623003,9.25721787989853,0.8487864494762483,walk
09/07/2020, 21:37:44,-8.092526,-3.2925239,2.8474588,-0.042738892,-0.05006556,0.84623003,9.188999909235937,0.8487864494762483,walk
09/07/2020, 21:37:44,-8.092526,-3.2925239,2.8474588,-0.05617111,-0.051286668,0.9280445,9.188999909235937,0.931156327517049,walk
09/07/2020, 21:37:45,-8.834301,-3.400201,3.17049,0.2820767,0.047623336,-1.5996556,9.982897799516003,1.6250333437017672,walk
09/07/2020, 21:37:45,-8.642876,-3.3284163,3.0364919,0.2820767,0.047623336,-1.5996556,9.746688572807646,1.6250333437017672,walk
09/07/2020, 21:37:45,-8.642876,-3.3284163,3.0364919,0.27963445,0.059834447,-1.5349368,9.746688572807646,1.561347661619453,walk
09/07/2020, 21:37:45,-8.465807,-3.2446675,2.9240294,0.27963445,0.059834447,-1.5349368,9.52615885464086,1.561347661619453,walk
09/07/2020, 21:37:45,-8.465807,-3.2446675,2.9240294,0.28085557,0.07204556,-1.4702178,9.52615885464086,1.4985362395913155,walk
09/07/2020, 21:37:45,-8.298309,-3.2231321,2.8929226,0.28085557,0.07204556,-1.4702178,9.360529890068495,1.4985362395913155,walk
09/07/2020, 21:37:45,-8.298309,-3.2231321,2.8929226,0.30161446,0.08059334,-1.4030567,9.360529890068495,1.4373707902806598,walk
09/07/2020, 21:37:45,-8.262417,-3.278167,2.969493,0.30161446,0.08059334,-1.4030567,9.371862095051817,1.4373707902806598,walk
09/07/2020, 21:37:45,-8.262417,-3.278167,2.969493,0.33214223,0.08303556,-1.3310112,9.371862095051817,1.374337701732343,walk
09/07/2020, 21:37:45,-8.219346,-3.3403804,3.0556345,0.33214223,0.08303556,-1.3310112,9.383639647752608,1.374337701732343,walk
09/07/2020, 21:37:45,-8.219346,-3.3403804,3.0556345,0.3602278,0.089141116,-1.2540811,9.383639647752608,1.3078339658955582,walk
09/07/2020, 21:37:45,-8.257631,-3.318845,3.1561332,0.3602278,0.089141116,-1.2540811,9.442689431132495,1.3078339658955582,walk
09/07/2020, 21:37:45,-8.257631,-3.318845,3.1561332,0.35900667,0.089141116,-1.1661612,9.442689431132495,1.2234229957302143,walk
09/07/2020, 21:37:45,-8.30788,-3.3092737,3.1633115,0.35900667,0.089141116,-1.1661612,9.485710771934345,1.2234229957302143,walk
09/07/2020, 21:37:45,-8.30788,-3.3092737,3.1633115,0.33580557,0.06960334,-1.0745778,9.485710771934345,1.1279749414792564,walk
09/07/2020, 21:37:45,-8.300702,-3.2685957,3.158526,0.33580557,0.06960334,-1.0745778,9.463702194620089,1.1279749414792564,walk
09/07/2020, 21:37:45,-8.300702,-3.2685957,3.158526,0.2869611,0.04396,-0.99398446,9.463702194620089,1.0355115971583921,walk
09/07/2020, 21:37:45,-8.221739,-3.2015967,3.101098,0.2869611,0.04396,-0.99398446,9.352220056992978,1.0355115971583921,walk
09/07/2020, 21:37:45,-8.221739,-3.2015967,3.101098,0.22590557,0.013432222,-0.90362227,9.352220056992978,0.9315293640873091,walk
09/07/2020, 21:37:45,-8.056634,-3.1393833,3.0436704,0.22590557,0.013432222,-0.90362227,9.166733758444765,0.9315293640873091,walk
09/07/2020, 21:37:46,-8.2049885,-4.2927237,3.493521,-0.012211111,0.042738892,-0.06716111,9.897171370566886,0.08053781251540829,walk
09/07/2020, 21:37:46,-8.252846,-4.23051,3.4504502,-0.012211111,0.042738892,-0.06716111,9.895063744728283,0.08053781251540829,walk
09/07/2020, 21:37:46,-8.252846,-4.23051,3.4504502,-0.009768889,0.04029667,-0.13798556,9.895063744728283,0.14408076500085953,walk
09/07/2020, 21:37:46,-8.312666,-4.2352962,3.455236,-0.009768889,0.04029667,-0.13798556,9.948708703402241,0.14408076500085953,walk
09/07/2020, 21:37:46,-8.312666,-4.2352962,3.455236,-0.01099,0.026864445,-0.21491556,9.948708703402241,0.21686672375718502,walk
09/07/2020, 21:37:46,-8.391629,-4.168297,3.4648073,-0.01099,0.026864445,-0.21491556,9.989946381799,0.21686672375718502,walk
09/07/2020, 21:37:46,-8.391629,-4.168297,3.4648073,-0.025643334,0.02198,-0.29306668,9.989946381799,0.2950064070085078,walk
09/07/2020, 21:37:46,-8.46102,-4.130012,3.4432719,-0.025643334,0.02198,-0.29306668,10.025067980227968,0.2950064070085078,walk
09/07/2020, 21:37:46,-8.46102,-4.130012,3.4432719,-0.04396,0.008547778,-0.36633334,10.025067980227968,0.369060508627764,walk
09/07/2020, 21:37:46,-8.496913,-4.082155,3.4600215,-0.04396,0.008547778,-0.36633334,10.041577059413177,0.369060508627764,walk
09/07/2020, 21:37:46,-8.496913,-4.082155,3.4600215,-0.06105556,-0.0048844446,-0.4493689,10.041577059413177,0.45352402599013186,walk
09/07/2020, 21:37:46,-8.46102,-4.048656,3.505485,-0.06105556,-0.0048844446,-0.4493689,10.013436382087388,0.45352402599013186,walk
09/07/2020, 21:37:46,-8.46102,-4.048656,3.505485,-0.07204556,-0.019537779,-0.5189722,10.013436382087388,0.5243133130083294,walk
09/07/2020, 21:37:46,-8.413164,-4.031906,3.505485,-0.07204556,-0.019537779,-0.5189722,9.966244194349269,0.5243133130083294,walk
09/07/2020, 21:37:46,-8.413164,-4.031906,3.505485,-0.08303556,-0.026864445,-0.5910178,9.966244194349269,0.597426666478092,walk
09/07/2020, 21:37:46,-8.372486,-4.0414777,3.4624143,-0.08303556,-0.026864445,-0.5910178,9.920704517189593,0.597426666478092,walk
09/07/2020, 21:37:46,-8.372486,-4.0414777,3.4624143,-0.08059334,-0.024422223,-0.64841,9.920704517189593,0.653855709157507,walk
09/07/2020, 21:37:46,-8.329415,-4.06062,3.4049866,-0.08059334,-0.024422223,-0.64841,9.872270604586273,0.653855709157507,walk
09/07/2020, 21:37:46,-8.329415,-4.06062,3.4049866,-0.08059334,-0.026864445,-0.70458114,9.872270604586273,0.7096841338105863,walk
09/07/2020, 21:37:46,-8.319844,-4.017549,3.37388,-0.08059334,-0.026864445,-0.70458114,9.83583113886382,0.7096841338105863,walk
09/07/2020, 21:37:47,-8.250452,-4.3094735,2.9982069,-0.13676445,0.09768889,0.9194967,9.77909838392119,0.9347308937543726,walk
09/07/2020, 21:37:47,-8.250452,-4.3094735,2.9982069,-0.048844445,0.13188,0.8743156,9.77909838392119,0.8855540168529724,walk
09/07/2020, 21:37:47,-8.260024,-4.3932223,3.048456,-0.048844445,0.13188,0.8743156,9.839790841710874,0.8855540168529724,walk
09/07/2020, 21:37:47,-8.260024,-4.3932223,3.048456,0.019537779,0.15141778,0.83768225,9.839790841710874,0.851481423858316,walk
09/07/2020, 21:37:47,-8.300702,-4.3740797,3.117848,0.019537779,0.15141778,0.83768225,9.887123149774458,0.851481423858316,walk
09/07/2020, 21:37:47,-8.300702,-4.3740797,3.117848,0.06594,0.15386,0.7949434,9.887123149774458,0.8123767481827682,walk
09/07/2020, 21:37:47,-8.384451,-4.3070807,3.1728828,0.06594,0.15386,0.7949434,9.945709973983371,0.8123767481827682,walk
09/07/2020, 21:37:47,-8.384451,-4.3070807,3.1728828,0.09646778,0.14653334,0.7387723,9.945709973983371,0.7593171428667926,walk
09/07/2020, 21:37:47,-8.437093,-4.319045,3.2135608,0.09646778,0.14653334,0.7387723,10.008279473870834,0.7593171428667926,walk
09/07/2020, 21:37:47,-8.437093,-4.319045,3.2135608,0.11112112,0.13188,0.6801589,10.008279473870834,0.7016811130849739,walk
09/07/2020, 21:37:47,-8.420342,-4.2592244,3.2949169,0.11112112,0.13188,0.6801589,9.994980574349206,0.7016811130849739,walk
09/07/2020, 21:37:47,-8.420342,-4.2592244,3.2949169,0.10379445,0.12699556,0.62643003,9.994980574349206,0.647545943465102,walk
09/07/2020, 21:37:47,-8.420342,-4.1635113,3.278167,0.10379445,0.12699556,0.62643003,9.949038746833484,0.647545943465102,walk
09/07/2020, 21:37:47,-8.420342,-4.1635113,3.278167,0.06105556,0.11966889,0.56049,9.949038746833484,0.5763657512226391,walk
09/07/2020, 21:37:47,-8.463413,-4.0701914,3.2350962,0.06105556,0.11966889,0.56049,9.932858051503741,0.5763657512226391,walk
09/07/2020, 21:37:47,-8.463413,-4.0701914,3.2350962,-0.007326667,0.09402556,0.5018767,9.932858051503741,0.5106610615919911,walk
09/07/2020, 21:37:47,-8.482556,-3.9744785,3.2087753,-0.007326667,0.09402556,0.5018767,9.90184225973608,0.5106610615919911,walk
09/07/2020, 21:37:47,-8.482556,-3.9744785,3.2087753,-0.07448778,0.06960334,0.42983112,9.90184225973608,0.4417554120482292,walk
09/07/2020, 21:37:47,-8.458628,-3.9720855,3.1680973,-0.07448778,0.06960334,0.42983112,9.867253206570037,0.4417554120482292,walk
09/07/2020, 21:37:47,-8.458628,-3.9720855,3.1680973,-0.11844778,0.05617111,0.3602278,9.867253206570037,0.3833394497118893,walk
09/07/2020, 21:37:48,-9.083155,-4.0438704,3.0077782,0.117226675,0.1856089,1.0635878,10.387652122871994,1.0860072424569256,walk
09/07/2020, 21:37:48,-9.346365,-3.9433718,2.9742785,0.117226675,0.1856089,1.0635878,10.57123698920358,1.0860072424569256,walk
09/07/2020, 21:37:48,-9.346365,-3.9433718,2.9742785,0.03052778,0.15386,1.0330601,10.57123698920358,1.044900934049648,walk
09/07/2020, 21:37:48,-9.4229355,-3.8620157,2.9718857,0.03052778,0.15386,1.0330601,10.608439240810503,1.044900934049648,walk
09/07/2020, 21:37:48,-9.4229355,-3.8620157,2.9718857,-0.068382226,0.11356334,0.9964267,10.608439240810503,1.0052059151030066,walk
09/07/2020, 21:37:48,-9.315259,-3.8237305,2.9623144,-0.068382226,0.11356334,0.9964267,10.496202692832338,1.0052059151030066,walk
09/07/2020, 21:37:48,-9.315259,-3.8237305,2.9623144,-0.15386,0.08303556,0.9549089,10.496202692832338,0.9707825842457435,walk
09/07/2020, 21:37:48,-9.123833,-3.8261235,2.9192436,-0.15386,0.08303556,0.9549089,10.31530547704193,0.9707825842457435,walk
09/07/2020, 21:37:48,-9.123833,-3.8261235,2.9192436,-0.19415668,0.07570889,0.9182756,10.31530547704193,0.9416255724423761,walk
09/07/2020, 21:37:48,-8.882157,-3.8739798,2.87378,-0.19415668,0.07570889,0.9182756,10.107376012678577,0.9416255724423761,walk
09/07/2020, 21:37:48,-8.882157,-3.8739798,2.87378,-0.19293556,0.09524667,0.8743156,10.107376012678577,0.9004020546011503,walk
09/07/2020, 21:37:48,-8.640483,-3.9074793,2.8474588,-0.19293556,0.09524667,0.8743156,9.901230277246565,0.9004020546011503,walk
09/07/2020, 21:37:48,-8.640483,-3.9074793,2.8474588,-0.15386,0.12577444,0.8303556,9.901230277246565,0.8538047246939386,walk
09/07/2020, 21:37:48,-8.508878,-3.9601214,2.8570302,-0.15386,0.12577444,0.8303556,9.81051392036849,0.8538047246939386,walk
09/07/2020, 21:37:48,-8.508878,-3.9601214,2.8570302,-0.098910004,0.16118668,0.7949434,9.81051392036849,0.8171287118130485,walk
09/07/2020, 21:37:48,-8.499306,-3.9816568,2.8881369,-0.098910004,0.16118668,0.7949434,9.820036819879457,0.8171287118130485,walk
09/07/2020, 21:37:48,-8.499306,-3.9816568,2.8881369,-0.059834447,0.1856089,0.76075226,9.820036819879457,0.7853501286380189,walk
09/07/2020, 21:37:48,-8.595019,-4.0127635,2.914458,-0.059834447,0.1856089,0.76075226,9.92324009679021,0.7853501286380189,walk
09/07/2020, 21:37:48,-8.595019,-4.0127635,2.914458,-0.036633335,0.19904111,0.7326667,9.92324009679021,0.7601051356244812,walk
09/07/2020, 21:37:48,-8.772088,-3.9768713,3.0125637,-0.036633335,0.19904111,0.7326667,10.091609079158351,0.7601051356244812,walk
09/07/2020, 21:37:49,-8.087741,-3.7854455,3.1872396,-0.19904111,0.018316668,-0.7619734,9.481542420420833,0.7877539580943727,walk
09/07/2020, 21:37:49,-8.087741,-3.7854455,3.1872396,-0.15874445,0.025643334,-0.70336,9.481542420420833,0.7215072429765397,walk
09/07/2020, 21:37:49,-8.032705,-3.7830527,3.1896327,-0.15874445,0.025643334,-0.70336,9.434489844146905,0.7215072429765397,walk
09/07/2020, 21:37:49,-8.032705,-3.7830527,3.1896327,-0.11478445,0.029306669,-0.6337567,9.434489844146905,0.6447339775933345,walk
09/07/2020, 21:37:49,-7.9944205,-3.7854455,3.1944182,-0.11478445,0.029306669,-0.6337567,9.404502349298948,0.6447339775933345,walk
09/07/2020, 21:37:49,-7.9944205,-3.7854455,3.1944182,-0.078151114,0.034191113,-0.5568267,9.404502349298948,0.5633228333911893,walk
09/07/2020, 21:37:49,-7.958528,-3.7591243,3.1561332,-0.078151114,0.034191113,-0.5568267,9.350420341116338,0.5633228333911893,walk
09/07/2020, 21:37:49,-7.958528,-3.7591243,3.1561332,-0.05006556,0.03174889,-0.48600224,9.350420341116338,0.489604663167074,walk
09/07/2020, 21:37:49,-7.9226356,-3.737589,3.1561332,-0.05006556,0.03174889,-0.48600224,9.311224485182002,0.489604663167074,walk
09/07/2020, 21:37:49,-7.9226356,-3.737589,3.1561332,-0.03052778,0.029306669,-0.40296668,9.311224485182002,0.40518263767121243,walk
09/07/2020, 21:37:49,-7.8580294,-3.7136607,3.17049,-0.03052778,0.029306669,-0.40296668,9.251589508766585,0.40518263767121243,walk
09/07/2020, 21:37:49,-7.8580294,-3.7136607,3.17049,-0.017095556,0.029306669,-0.32359445,9.251589508766585,0.3253682645448816,walk
09/07/2020, 21:37:49,-7.8173513,-3.6849468,3.1465619,-0.017095556,0.029306669,-0.32359445,9.19731842852276,0.3253682645448816,walk
09/07/2020, 21:37:49,-7.8173513,-3.6849468,3.1465619,-0.013432222,0.03052778,-0.25399113,9.19731842852276,0.2561715490497012,walk
09/07/2020, 21:37:49,-7.7742805,-3.6729827,3.1609187,-0.013432222,0.03052778,-0.25399113,9.160875886577369,0.2561715490497012,walk
09/07/2020, 21:37:49,-7.7742805,-3.6729827,3.1609187,-0.008547778,0.02075889,-0.16973445,9.160875886577369,0.17121267159537507,walk
09/07/2020, 21:37:49,-7.745567,-3.6610186,3.1609187,-0.008547778,0.02075889,-0.16973445,9.131717807727812,0.17121267159537507,walk
09/07/2020, 21:37:49,-7.745567,-3.6610186,3.1609187,-0.0012211112,0.015874445,-0.08669889,9.131717807727812,0.08814866199362938,walk
09/07/2020, 21:37:49,-7.7216387,-3.656233,3.1345978,-0.0012211112,0.015874445,-0.08669889,9.100409189015048,0.08814866199362938,walk
09/07/2020, 21:37:49,-7.7216387,-3.656233,3.1345978,0.0,0.012211111,-0.0024422223,9.100409189015048,0.01245293904507187,walk
09/07/2020, 21:37:50,-9.025727,-3.723232,3.0819557,0.37366003,-0.10867889,-0.8877478,10.238391490109207,0.9692931019511416,walk
09/07/2020, 21:37:50,-9.025727,-3.723232,3.0819557,0.29184556,-0.12943779,-0.92560226,10.238391490109207,0.9791156779812228,walk
09/07/2020, 21:37:50,-8.9826565,-3.682554,3.0556345,0.29184556,-0.12943779,-0.92560226,10.177731752112646,0.9791156779812228,walk
09/07/2020, 21:37:50,-8.9826565,-3.682554,3.0556345,0.23689556,-0.14287001,-0.96712005,10.177731752112646,1.0059088130491398,walk
09/07/2020, 21:37:50,-8.913264,-3.7184465,3.0412776,0.23689556,-0.14287001,-0.96712005,10.12533920802038,1.0059088130491398,walk
09/07/2020, 21:37:50,-8.913264,-3.7184465,3.0412776,0.20636779,-0.13920668,-1.0061955,10.12533920802038,1.0365305780924734,walk
09/07/2020, 21:37:50,-8.879765,-3.7447674,3.0245278,0.20636779,-0.13920668,-1.0061955,10.100557906012984,1.0365305780924734,walk
09/07/2020, 21:37:50,-8.879765,-3.7447674,3.0245278,0.20148334,-0.12943779,-1.0367234,10.100557906012984,1.0640230421205163,walk
09/07/2020, 21:37:50,-8.8701935,-3.8261235,3.0317063,0.20148334,-0.12943779,-1.0367234,10.124761554852329,1.0640230421205163,walk
09/07/2020, 21:37:50,-8.8701935,-3.8261235,3.0317063,0.19782001,-0.123332225,-1.0672512,10.124761554852329,1.0924141745141958,walk
09/07/2020, 21:37:50,-8.898908,-3.8931224,3.050849,0.19782001,-0.123332225,-1.0672512,10.181092241984247,1.0924141745141958,walk
09/07/2020, 21:37:50,-8.898908,-3.8931224,3.050849,0.20270446,-0.10867889,-1.0941156,10.181092241984247,1.1180291491023295,walk
09/07/2020, 21:37:50,-8.992228,-3.9553359,3.07717,0.20270446,-0.10867889,-1.0941156,10.294358293848434,1.1180291491023295,walk
09/07/2020, 21:37:50,-8.992228,-3.9553359,3.07717,0.20881,-0.09768889,-1.1246433,10.294358293848434,1.148027589596986,walk
09/07/2020, 21:37:50,-9.150154,-4.005585,3.1872396,0.20881,-0.09768889,-1.1246433,10.484680711210952,1.148027589596986,walk
09/07/2020, 21:37:50,-9.150154,-4.005585,3.1872396,0.21980001,-0.08792,-1.1539501,10.484680711210952,1.1779825098704235,walk
09/07/2020, 21:37:50,-9.312865,-3.9625144,3.1944182,0.21980001,-0.08792,-1.1539501,10.612977304167408,1.1779825098704235,walk
09/07/2020, 21:37:50,-9.312865,-3.9625144,3.1944182,0.21003112,-0.09402556,-1.1832567,10.612977304167408,1.2054254035260177,walk
09/07/2020, 21:37:50,-9.353543,-3.888337,3.1848469,0.21003112,-0.09402556,-1.1832567,10.618436108030581,1.2054254035260177,walk
09/07/2020, 21:37:50,-9.353543,-3.888337,3.1848469,0.16851334,-0.102573335,-1.2137845,10.618436108030581,1.2297116499449585,walk
09/07/2020, 21:37:51,-8.382058,-3.9146578,3.0675986,-0.3858711,-0.039075557,0.40052447,9.746466319356356,0.5575331948497654,walk
09/07/2020, 21:37:51,-8.26481,-3.991228,3.07717,-0.3858711,-0.039075557,0.40052447,9.68018358313028,0.5575331948497654,walk
09/07/2020, 21:37:51,-8.26481,-3.991228,3.07717,-0.3174889,-0.015874445,0.35534334,9.68018358313028,0.4767809725540025,walk
09/07/2020, 21:37:51,-8.157132,-4.074977,3.0939198,-0.3174889,-0.015874445,0.35534334,9.628944970440177,0.4767809725540025,walk
09/07/2020, 21:37:51,-8.157132,-4.074977,3.0939198,-0.24666445,0.0036633336,0.30649891,9.628944970440177,0.3934442216704122,walk
09/07/2020, 21:37:51,-8.161918,-4.074977,3.1561332,-0.24666445,0.0036633336,0.30649891,9.653160821493424,0.3934442216704122,walk
09/07/2020, 21:37:51,-8.161918,-4.074977,3.1561332,-0.19293556,0.014653334,0.26864445,9.653160821493424,0.33107203247362216,walk
09/07/2020, 21:37:51,-8.233703,-4.0390844,3.2303107,-0.19293556,0.014653334,0.26864445,9.723320915995142,0.33107203247362216,walk
09/07/2020, 21:37:51,-8.233703,-4.0390844,3.2303107,-0.16973445,0.015874445,0.2185789,9.723320915995142,0.27719761646666674,walk
09/07/2020, 21:37:51,-8.343773,-3.9338005,3.2997024,-0.16973445,0.015874445,0.2185789,9.797008116143948,0.27719761646666674,walk
09/07/2020, 21:37:51,-8.343773,-3.9338005,3.2997024,-0.18683001,0.0012211112,0.17706113,9.797008116143948,0.2574054922717146,walk
09/07/2020, 21:37:51,-8.429914,-3.8261235,3.3427732,-0.18683001,0.0012211112,0.17706113,9.842601869499934,0.2574054922717146,walk
09/07/2020, 21:37:51,-8.429914,-3.8261235,3.3427732,-0.23445335,-0.02198,0.14164889,9.842601869499934,0.27480156756595864,walk
09/07/2020, 21:37:51,-8.46102,-3.7256248,3.3403804,-0.23445335,-0.02198,0.14164889,9.829918054340913,0.27480156756595864,walk
09/07/2020, 21:37:51,-8.46102,-3.7256248,3.3403804,-0.2845189,-0.054950003,0.098910004,9.829918054340913,0.30619225122277705,walk
09/07/2020, 21:37:51,-8.453842,-3.6275191,3.318845,-0.2845189,-0.054950003,0.098910004,9.779625489729527,0.30619225122277705,walk
09/07/2020, 21:37:51,-8.453842,-3.6275191,3.318845,-0.32970002,-0.08059334,0.054950003,9.779625489729527,0.34382683777715844,walk
09/07/2020, 21:37:51,-8.410771,-3.5988052,3.2470603,-0.32970002,-0.08059334,0.054950003,9.707516387390317,0.34382683777715844,walk
09/07/2020, 21:37:51,-8.410771,-3.5988052,3.2470603,-0.3309211,-0.09768889,0.02075889,9.707516387390317,0.34566289108868836,walk
09/07/2020, 21:37:51,-8.319844,-3.641876,3.225525,-0.3309211,-0.09768889,0.02075889,9.63779434529463,0.34566289108868836,walk
09/07/2020, 21:37:52,-7.8580294,-3.9744785,3.3284163,0.10501556,-0.12577444,0.8327978,9.414003404791815,0.8487636281578205,walk
09/07/2020, 21:37:52,-7.8580294,-3.9744785,3.3284163,0.10013112,-0.12821667,0.8718734,9.414003404791815,0.8869210468426795,walk
09/07/2020, 21:37:52,-7.948957,-3.9984066,3.3499517,0.10013112,-0.12821667,0.8718734,9.507646883913958,0.8869210468426795,walk
09/07/2020, 21:37:52,-7.948957,-3.9984066,3.3499517,0.098910004,-0.13554333,0.9194967,9.507646883913958,0.9346814391059209,walk
09/07/2020, 21:37:52,-8.049456,-4.007978,3.4025939,0.098910004,-0.13554333,0.9194967,9.61432620660994,0.9346814391059209,walk
09/07/2020, 21:37:52,-8.049456,-4.007978,3.4025939,0.10135223,-0.13676445,0.9512456,9.61432620660994,0.9663565556210661,walk
09/07/2020, 21:37:52,-8.082955,-4.034299,3.385844,0.10135223,-0.13676445,0.9512456,9.647469848970884,0.9663565556210661,walk
09/07/2020, 21:37:52,-8.082955,-4.034299,3.385844,0.09768889,-0.13798556,0.97688895,9.647469848970884,0.9914106934809468,walk
09/07/2020, 21:37:52,-8.145168,-4.065406,3.3882368,0.09768889,-0.13798556,0.97688895,9.713466927246548,0.9914106934809468,walk
09/07/2020, 21:37:52,-8.145168,-4.065406,3.3882368,0.09646778,-0.14042778,1.00009,9.713466927246548,1.014497909614405,walk
09/07/2020, 21:37:52,-8.178668,-4.0414777,3.3523445,0.09646778,-0.14042778,1.00009,9.719175180521965,1.014497909614405,walk
09/07/2020, 21:37:52,-8.178668,-4.0414777,3.3523445,0.08059334,-0.14287001,1.0074167,9.719175180521965,1.0206838805692142,walk
09/07/2020, 21:37:52,-8.219346,-4.0127635,3.3355947,0.08059334,-0.14287001,1.0074167,9.735815940960048,1.0206838805692142,walk
09/07/2020, 21:37:52,-8.219346,-4.0127635,3.3355947,0.048844445,-0.14531223,1.0159645,9.735815940960048,1.0274654773068594,walk
09/07/2020, 21:37:52,-8.252846,-3.9768713,3.3092737,0.048844445,-0.14531223,1.0159645,9.740444585076897,1.0274654773068594,walk
09/07/2020, 21:37:52,-8.252846,-3.9768713,3.3092737,0.009768889,-0.14287001,1.0123012,9.740444585076897,1.022380068034868,walk
09/07/2020, 21:37:52,-8.286345,-3.9649072,3.2949169,0.009768889,-0.14287001,1.0123012,9.75912248462507,1.022380068034868,walk
09/07/2020, 21:37:52,-8.286345,-3.9649072,3.2949169,-0.024422223,-0.13798556,1.0049745,9.75912248462507,1.0146970845405379,walk
09/07/2020, 21:37:52,-8.374879,-3.9840498,3.3164523,-0.024422223,-0.13798556,1.0049745,9.84937077792389,1.0146970845405379,walk
09/07/2020, 21:37:52,-8.374879,-3.9840498,3.3164523,-0.05250778,-0.13798556,1.0025322,9.84937077792389,1.0133449465784543,walk
09/07/2020, 21:37:53,-8.980264,-3.912265,3.050849,0.13920668,-0.068382226,-1.1356333,10.259563031706731,1.1461752624465489,walk
09/07/2020, 21:37:53,-8.987442,-3.9577286,3.0412776,0.13920668,-0.068382226,-1.1356333,10.280423123197798,1.1461752624465489,walk
09/07/2020, 21:37:53,-8.987442,-3.9577286,3.0412776,0.13798556,-0.05372889,-1.1624979,10.280423123197798,1.1718908328602693,walk
09/07/2020, 21:37:53,-8.949157,-3.9840498,3.0963125,0.13798556,-0.05372889,-1.1624979,10.273617218916495,1.1718908328602693,walk
09/07/2020, 21:37:53,-8.949157,-3.9840498,3.0963125,0.16485001,-0.03174889,-1.18692,10.273617218916495,1.198733796913909,walk
09/07/2020, 21:37:53,-8.930014,-4.005585,3.089134,0.16485001,-0.03174889,-1.18692,10.263167414797774,1.198733796913909,walk
09/07/2020, 21:37:53,-8.930014,-4.005585,3.089134,0.18805112,-0.0061055557,-1.2089001,10.263167414797774,1.2234541015856293,walk
09/07/2020, 21:37:53,-8.879765,-4.0007997,3.0723844,0.18805112,-0.0061055557,-1.2089001,10.212549246509859,1.2234541015856293,walk
09/07/2020, 21:37:53,-8.879765,-4.0007997,3.0723844,0.1965989,0.01099,-1.2382067,10.212549246509859,1.2537654684501307,walk
09/07/2020, 21:37:53,-8.872586,-3.979264,3.0460632,0.1965989,0.01099,-1.2382067,10.189986743990811,1.2537654684501307,walk
09/07/2020, 21:37:53,-8.872586,-3.979264,3.0460632,0.19904111,0.024422223,-1.2479756,10.189986743990811,1.2639845242673726,walk
09/07/2020, 21:37:53,-8.874979,-3.9338005,3.0723844,0.19904111,0.024422223,-1.2479756,10.182317235337113,1.2639845242673726,walk
09/07/2020, 21:37:53,-8.874979,-3.9338005,3.0723844,0.18072446,0.039075557,-1.2626289,10.182317235337113,1.276095607799849,walk
09/07/2020, 21:37:53,-8.9108715,-3.818945,3.129812,0.18072446,0.039075557,-1.2626289,10.187428259723127,1.276095607799849,walk
09/07/2020, 21:37:53,-8.9108715,-3.818945,3.129812,0.15019667,0.035412222,-1.2675134,10.187428259723127,1.276872456619739,walk
09/07/2020, 21:37:53,-8.997013,-3.7328033,3.1848469,0.15019667,0.035412222,-1.2675134,10.24808835956225,1.276872456619739,walk
09/07/2020, 21:37:53,-8.997013,-3.7328033,3.1848469,0.11112112,0.03297,-1.284609,10.24808835956225,1.289827548274051,walk
09/07/2020, 21:37:53,-9.044869,-3.7088752,3.1369905,0.11112112,0.03297,-1.284609,10.266748641424714,1.289827548274051,walk
09/07/2020, 21:37:53,-9.044869,-3.7088752,3.1369905,0.057392225,0.028085556,-1.2931567,10.266748641424714,1.2947343464959806,walk
09/07/2020, 21:37:53,-9.049655,-3.6586258,3.1274192,0.057392225,0.028085556,-1.2931567,10.250002390873542,1.2947343464959806,walk
09/07/2020, 21:37:54,-8.279166,-3.9361932,3.979264,0.014653334,0.064718895,0.06594,9.993635604708844,0.09354859245518082,walk
09/07/2020, 21:37:54,-8.279166,-3.9361932,3.979264,0.015874445,0.057392225,-0.02198,9.993635604708844,0.0634742932177387,walk
09/07/2020, 21:37:54,-8.303095,-3.9170506,4.0007997,0.015874445,0.057392225,-0.02198,10.01454280578569,0.0634742932177387,walk
09/07/2020, 21:37:54,-8.303095,-3.9170506,4.0007997,0.0024422223,0.045181114,-0.12455334,10.01454280578569,0.1325172874124064,walk
09/07/2020, 21:37:54,-8.327023,-3.9146578,3.9984066,0.0024422223,0.045181114,-0.12455334,10.032502492043022,0.1325172874124064,walk
09/07/2020, 21:37:54,-8.327023,-3.9146578,3.9984066,-0.014653334,0.034191113,-0.22102112,10.032502492043022,0.22412961882637444,walk
09/07/2020, 21:37:54,-8.300702,-3.8835511,3.9601214,-0.014653334,0.034191113,-0.22102112,9.983295349077645,0.22412961882637444,walk
09/07/2020, 21:37:54,-8.300702,-3.8835511,3.9601214,-0.025643334,0.023201112,-0.3162678,9.983295349077645,0.3181527716965239,walk
09/07/2020, 21:37:54,-8.367701,-3.8261235,3.9744785,-0.025643334,0.023201112,-0.3162678,10.022679931531183,0.3181527716965239,walk
09/07/2020, 21:37:54,-8.367701,-3.8261235,3.9744785,-0.03297,0.019537779,-0.4163989,10.022679931531183,0.4181588217013167,walk
09/07/2020, 21:37:54,-8.379665,-3.7878382,4.0007997,-0.03297,0.019537779,-0.4163989,10.028604492403543,0.4181588217013167,walk
09/07/2020, 21:37:54,-8.379665,-3.7878382,4.0007997,-0.04029667,0.019537779,-0.51775116,10.028604492403543,0.5196843342619327,walk
09/07/2020, 21:37:54,-8.439486,-3.751946,3.9864426,-0.04029667,0.019537779,-0.51775116,10.059509891585854,0.5196843342619327,walk
09/07/2020, 21:37:54,-8.439486,-3.751946,3.9864426,-0.059834447,0.0024422223,-0.60933447,10.059509891585854,0.6122700551122227,walk
09/07/2020, 21:37:54,-8.496913,-3.7304106,3.9673,-0.059834447,0.0024422223,-0.60933447,10.092222829985307,0.6122700551122227,walk
09/07/2020, 21:37:54,-8.496913,-3.7304106,3.9673,-0.07448778,-0.02075889,-0.6935911,10.092222829985307,0.6978882432662598,walk
09/07/2020, 21:37:54,-8.5112705,-3.739982,3.9601214,-0.07448778,-0.02075889,-0.6935911,10.105035967342278,0.6978882432662598,walk
09/07/2020, 21:37:54,-8.5112705,-3.739982,3.9601214,-0.08303556,-0.035412222,-0.77906895,10.105035967342278,0.7842814248561344,walk
09/07/2020, 21:37:54,-8.504091,-3.7878382,3.9242291,-0.08303556,-0.035412222,-0.77906895,10.102814507581412,0.7842814248561344,walk
09/07/2020, 21:37:54,-8.504091,-3.7878382,3.9242291,-0.07448778,-0.04029667,-0.8486723,10.102814507581412,0.8528873751074372,walk
09/07/2020, 21:37:55,-8.145168,-3.6227336,4.2041893,-0.04151778,-0.13798556,0.56049,9.856123632961204,0.5787165055203123,walk
09/07/2020, 21:37:55,-8.200203,-3.6514473,4.213761,-0.04151778,-0.13798556,0.56049,9.916258173800644,0.5787165055203123,walk
09/07/2020, 21:37:55,-8.200203,-3.6514473,4.213761,-0.07448778,-0.15508112,0.6068922,9.916258173800644,0.6308064371302982,walk
09/07/2020, 21:37:55,-8.255239,-3.6993039,4.194618,-0.07448778,-0.15508112,0.6068922,9.971390794677818,0.6308064371302982,walk
09/07/2020, 21:37:55,-8.255239,-3.6993039,4.194618,-0.09768889,-0.17584,0.6435256,9.971390794677818,0.6742314330354491,walk
09/07/2020, 21:37:55,-8.34138,-3.7663028,4.194618,-0.09768889,-0.17584,0.6435256,10.067694935366015,0.6742314330354491,walk
09/07/2020, 21:37:55,-8.34138,-3.7663028,4.194618,-0.11356334,-0.20148334,0.67283225,10.067694935366015,0.7114741068694845,walk
09/07/2020, 21:37:55,-8.350951,-3.790231,4.139583,-0.11356334,-0.20148334,0.67283225,10.061828121273411,0.7114741068694845,walk
09/07/2020, 21:37:55,-8.350951,-3.790231,4.139583,-0.12089001,-0.23079,0.71435004,10.061828121273411,0.7603778048201683,walk
09/07/2020, 21:37:55,-8.331808,-3.8237305,4.0965123,-0.12089001,-0.23079,0.71435004,10.04098371268745,0.7603778048201683,walk
09/07/2020, 21:37:55,-8.331808,-3.8237305,4.0965123,-0.12577444,-0.24666445,0.7424356,10.04098371268745,0.7923844670123964,walk
09/07/2020, 21:37:55,-8.279166,-3.8117664,4.0366917,-0.12577444,-0.24666445,0.7424356,9.968401873439843,0.7923844670123964,walk
09/07/2020, 21:37:55,-8.279166,-3.8117664,4.0366917,-0.12577444,-0.25399113,0.7668578,9.968401873439843,0.8175583116639898,walk
09/07/2020, 21:37:55,-8.19781,-3.8380876,4.0031924,-0.12577444,-0.25399113,0.7668578,9.897502580524211,0.8175583116639898,walk
09/07/2020, 21:37:55,-8.19781,-3.8380876,4.0031924,-0.10867889,-0.2625389,0.7937223,9.897502580524211,0.843049717264784,walk
09/07/2020, 21:37:55,-8.181061,-3.8237305,3.9481573,-0.10867889,-0.2625389,0.7937223,9.855892476700578,0.843049717264784,walk
09/07/2020, 21:37:55,-8.181061,-3.8237305,3.9481573,-0.091583334,-0.2613178,0.8218078,9.855892476700578,0.86720387289337,walk
09/07/2020, 21:37:55,-8.228917,-3.8261235,3.9194436,-0.091583334,-0.2613178,0.8218078,9.885157360596084,0.86720387289337,walk
09/07/2020, 21:37:55,-8.228917,-3.8261235,3.9194436,-0.085477784,-0.26498112,0.8425667,9.885157360596084,0.8873782384802993,walk
09/07/2020, 21:37:55,-8.305488,-3.8213377,3.8404803,-0.085477784,-0.26498112,0.8425667,9.916301517255281,0.8873782384802993,walk
09/07/2020, 21:37:56,-8.224132,-3.35713,3.3930225,-0.09280445,0.024422223,-0.67283225,9.508904481006239,0.6796413375845648,walk
09/07/2020, 21:37:56,-8.224132,-3.35713,3.3930225,-0.10501556,0.029306669,-0.63742,9.508904481006239,0.6466772019778979,walk
09/07/2020, 21:37:56,-8.152347,-3.3116665,3.3930225,-0.10501556,0.029306669,-0.63742,9.430826694221906,0.6466772019778979,walk
09/07/2020, 21:37:56,-8.152347,-3.3116665,3.3930225,-0.12211112,0.023201112,-0.59834445,9.430826694221906,0.6111182309375233,walk
09/07/2020, 21:37:56,-8.092526,-3.2614172,3.4097722,-0.12211112,0.023201112,-0.59834445,9.36762361069969,0.6111182309375233,walk
09/07/2020, 21:37:56,-8.092526,-3.2614172,3.4097722,-0.14409111,0.019537779,-0.5641534,9.36762361069969,0.582591625910238,walk
09/07/2020, 21:37:56,-8.082955,-3.2422748,3.4480574,-0.14409111,0.019537779,-0.5641534,9.36672904004269,0.582591625910238,walk
09/07/2020, 21:37:56,-8.082955,-3.2422748,3.4480574,-0.15874445,0.018316668,-0.52141446,9.36672904004269,0.5453515745848959,walk
09/07/2020, 21:37:56,-8.1020975,-3.2853456,3.5126636,-0.15874445,0.018316668,-0.52141446,9.422116804657785,0.5453515745848959,walk
09/07/2020, 21:37:56,-8.1020975,-3.2853456,3.5126636,-0.15630223,0.013432222,-0.4701278,9.422116804657785,0.4956116940528671,walk
09/07/2020, 21:37:56,-8.087741,-3.278167,3.5653057,-0.15630223,0.013432222,-0.4701278,9.42705344108892,0.4956116940528671,walk
09/07/2020, 21:37:56,-8.087741,-3.278167,3.5653057,-0.14164889,0.017095556,-0.4249467,9.42705344108892,0.44825925507708997,walk
09/07/2020, 21:37:56,-8.054241,-3.330809,3.6681972,-0.14164889,0.017095556,-0.4249467,9.456255111298743,0.44825925507708997,walk
09/07/2020, 21:37:56,-8.054241,-3.330809,3.6681972,-0.11844778,0.03174889,-0.37488112,9.456255111298743,0.3944283481672342,walk
09/07/2020, 21:37:56,-7.9944205,-3.3762727,3.7974095,-0.11844778,0.03174889,-0.37488112,9.472607664006832,0.3944283481672342,walk
09/07/2020, 21:37:56,-7.9944205,-3.3762727,3.7974095,-0.08059334,0.037854444,-0.32359445,9.472607664006832,0.33562123607231475,walk
09/07/2020, 21:37:56,-7.9633136,-3.4121652,3.8476589,-0.08059334,0.037854444,-0.32359445,9.479541817999769,0.33562123607231475,walk
09/07/2020, 21:37:56,-7.9633136,-3.4121652,3.8476589,-0.037854444,0.05006556,-0.26620224,9.479541817999769,0.27350164953278555,walk
09/07/2020, 21:37:56,-7.9513497,-3.4456646,3.897908,-0.037854444,0.05006556,-0.26620224,9.502118396115325,0.27350164953278555,walk
09/07/2020, 21:37:56,-7.9513497,-3.4456646,3.897908,0.0,0.057392225,-0.21003112,9.502118396115325,0.21773134741731612,walk
09/07/2020, 21:37:57,-8.283952,-4.017549,3.3427732,0.61544,0.24300112,-1.13197,9.794829742458091,1.311172048254388,walk
09/07/2020, 21:37:57,-8.2145605,-4.1036906,3.3044882,0.61544,0.24300112,-1.13197,9.759043151684054,1.311172048254388,walk
09/07/2020, 21:37:57,-8.2145605,-4.1036906,3.3044882,0.75831,0.2869611,-1.1283067,9.759043151684054,1.3894088233152078,walk
09/07/2020, 21:37:57,-8.147561,-4.173083,3.2877383,0.75831,0.2869611,-1.1283067,9.726592158552942,1.3894088233152078,walk
09/07/2020, 21:37:57,-8.147561,-4.173083,3.2877383,0.9280445,0.34069002,-1.1356333,9.726592158552942,1.505655797992666,walk
09/07/2020, 21:37:57,-8.126026,-4.2999024,3.2542388,0.9280445,0.34069002,-1.1356333,9.752514162389373,1.505655797992666,walk
09/07/2020, 21:37:57,-8.126026,-4.2999024,3.2542388,1.1136534,0.39686114,-1.1356333,9.752514162389373,1.6393248026389688,walk
09/07/2020, 21:37:57,-8.135597,-4.3501515,3.2877383,1.1136534,0.39686114,-1.1356333,9.793925870938578,1.6393248026389688,walk
09/07/2020, 21:37:57,-8.135597,-4.3501515,3.2877383,1.3090311,0.46280113,-1.1295278,9.793925870938578,1.7898548679604602,walk
09/07/2020, 21:37:57,-8.176275,-4.359723,3.2542388,1.3090311,0.46280113,-1.1295278,9.820831578955799,1.7898548679604602,walk
09/07/2020, 21:37:57,-8.176275,-4.359723,3.2542388,1.4726601,0.5104245,-1.1283067,9.820831578955799,1.9241457702437381,walk
09/07/2020, 21:37:57,-8.185846,-4.2951164,3.1944182,1.4726601,0.5104245,-1.1283067,9.780614132200698,1.9241457702437381,walk
09/07/2020, 21:37:57,-8.185846,-4.2951164,3.1944182,1.6020979,0.5470578,-1.1270856,9.780614132200698,2.033792442837363,walk
09/07/2020, 21:37:57,-8.276773,-4.208975,3.1154552,1.6020979,0.5470578,-1.1270856,9.794207919622615,2.033792442837363,walk
09/07/2020, 21:37:57,-8.276773,-4.208975,3.1154552,1.7034501,0.57514334,-1.10999,9.794207919622615,2.112962339432587,walk
09/07/2020, 21:37:57,-8.3581295,-4.1228333,3.048456,1.7034501,0.57514334,-1.10999,9.805568136811553,2.112962339432587,walk
09/07/2020, 21:37:57,-8.3581295,-4.1228333,3.048456,1.7779379,0.5800278,-1.1051056,9.805568136811553,2.172269292742061,walk
09/07/2020, 21:37:57,-8.46102,-3.993621,3.1106694,1.7779379,0.5800278,-1.1051056,9.85972316664593,2.172269292742061,walk
09/07/2020, 21:37:57,-8.46102,-3.993621,3.1106694,1.8328879,0.5678167,-1.0977789,9.85972316664593,2.210658801147581,walk
09/07/2020, 21:37:57,-8.559127,-3.8691943,3.1513474,1.8328879,0.5678167,-1.0977789,9.907588365601493,2.210658801147581,walk
09/07/2020, 21:37:58,-8.52802,-2.7996025,3.1274192,0.02198,0.21247335,0.7558678,9.505032812590454,0.7854706510512749,walk
09/07/2020, 21:37:58,-8.52802,-2.7996025,3.1274192,-0.048844445,0.18072446,0.72411895,9.505032812590454,0.7479273761587238,walk
09/07/2020, 21:37:58,-8.516056,-2.8187451,3.1944182,-0.048844445,0.18072446,0.72411895,9.522228865057517,0.7479273761587238,walk
09/07/2020, 21:37:58,-8.516056,-2.8187451,3.1944182,-0.09646778,0.16118668,0.68504333,9.522228865057517,0.7103319990374511,walk
09/07/2020, 21:37:58,-8.458628,-2.8713872,3.290131,-0.09646778,0.16118668,0.68504333,9.519359741320391,0.7103319990374511,walk
09/07/2020, 21:37:58,-8.458628,-2.8713872,3.290131,-0.12577444,0.14897557,0.63742,9.519359741320391,0.6665712148727976,walk
09/07/2020, 21:37:58,-8.437093,-2.9647074,3.3762727,-0.12577444,0.14897557,0.63742,9.558935171446677,0.6665712148727976,walk
09/07/2020, 21:37:58,-8.437093,-2.9647074,3.3762727,-0.13554333,0.13798556,0.57270116,9.558935171446677,0.6044821113869528,walk
09/07/2020, 21:37:58,-8.4347,-3.0388846,3.4504502,-0.13554333,0.13798556,0.57270116,9.606486902492922,0.6044821113869528,walk
09/07/2020, 21:37:58,-8.4347,-3.0388846,3.4504502,-0.12821667,0.12943779,0.5140878,9.606486902492922,0.5454171960231031,walk
09/07/2020, 21:37:58,-8.398808,-3.1345978,3.5413775,-0.12821667,0.12943779,0.5140878,9.638829078083717,0.5454171960231031,walk
09/07/2020, 21:37:58,-8.398808,-3.1345978,3.5413775,-0.10379445,0.12699556,0.44570556,9.638829078083717,0.4749258987882344,walk
09/07/2020, 21:37:58,-8.396415,-3.2733815,3.5892339,-0.10379445,0.12699556,0.44570556,9.700381788261875,0.4749258987882344,walk
09/07/2020, 21:37:58,-8.396415,-3.2733815,3.5892339,-0.06716111,0.123332225,0.37732336,9.700381788261875,0.4026094512176781,walk
09/07/2020, 21:37:58,-8.427522,-3.3810585,3.7016966,-0.06716111,0.123332225,0.37732336,9.805979621842603,0.4026094512176781,walk
09/07/2020, 21:37:58,-8.427522,-3.3810585,3.7016966,-0.018316668,0.12577444,0.30039334,9.805979621842603,0.3261761354861071,walk
09/07/2020, 21:37:58,-8.465807,-3.4600215,3.792624,-0.018316668,0.12577444,0.30039334,9.900789515693289,0.3261761354861071,walk
09/07/2020, 21:37:58,-8.465807,-3.4600215,3.792624,0.034191113,0.12455334,0.2185789,9.900789515693289,0.2538883687553671,walk
09/07/2020, 21:37:58,-8.566305,-3.5006995,3.845266,0.034191113,0.12455334,0.2185789,10.021105360283673,0.2538883687553671,walk
09/07/2020, 21:37:58,-8.566305,-3.5006995,3.845266,0.07693,0.11234222,0.14164889,10.021105360283673,0.19647749982321602,walk
09/07/2020, 21:37:59,-7.9800634,-3.225525,3.6203406,-0.54461557,-0.045181114,0.6203245,9.33768115397527,0.82671030267374,walk
09/07/2020, 21:37:59,-7.987242,-3.2829528,3.5844483,-0.54461557,-0.045181114,0.6203245,9.349977924390506,0.82671030267374,walk
09/07/2020, 21:37:59,-7.987242,-3.2829528,3.5844483,-0.5153089,-0.047623336,0.6874856,9.349977924390506,0.8604926951575845,walk
09/07/2020, 21:37:59,-7.9968133,-3.266203,3.5509489,-0.5153089,-0.047623336,0.6874856,9.339504390671472,0.8604926951575845,walk
09/07/2020, 21:37:59,-7.9968133,-3.266203,3.5509489,-0.4823389,-0.05006556,0.7485411,9.339504390671472,0.8918919122571366,walk
09/07/2020, 21:37:59,-8.049456,-3.2709885,3.5294135,-0.4823389,-0.05006556,0.7485411,9.37815872446554,0.8918919122571366,walk
09/07/2020, 21:37:59,-8.049456,-3.2709885,3.5294135,-0.4493689,-0.054950003,0.80471224,9.37815872446554,0.9233166782962571,walk
09/07/2020, 21:37:59,-8.142776,-3.290131,3.5365918,-0.4493689,-0.054950003,0.80471224,9.46769440578175,0.9233166782962571,walk
09/07/2020, 21:37:59,-8.142776,-3.290131,3.5365918,-0.42372558,-0.057392225,0.8523356,9.46769440578175,0.9535791305648295,walk
09/07/2020, 21:37:59,-8.221739,-3.2614172,3.548556,-0.42372558,-0.057392225,0.8523356,9.530271837482989,0.9535791305648295,walk
09/07/2020, 21:37:59,-8.221739,-3.2614172,3.548556,-0.41395667,-0.05250778,0.8975167,9.530271837482989,0.9897744537594845,walk
09/07/2020, 21:37:59,-8.29113,-3.2063823,3.4911282,-0.41395667,-0.05250778,0.8975167,9.550481726777512,0.9897744537594845,walk
09/07/2020, 21:37:59,-8.29113,-3.2063823,3.4911282,-0.42250445,-0.068382226,0.9402556,9.550481726777512,1.033086009633245,walk
09/07/2020, 21:37:59,-8.382058,-3.2039895,3.4767714,-0.42250445,-0.068382226,0.9402556,9.62353295462304,1.033086009633245,walk
09/07/2020, 21:37:59,-8.382058,-3.2039895,3.4767714,-0.42861003,-0.07937223,0.98055226,9.62353295462304,1.073074663064634,walk
09/07/2020, 21:37:59,-8.477771,-3.199204,3.4624143,-0.42861003,-0.07937223,0.98055226,9.700299809677144,1.073074663064634,walk
09/07/2020, 21:37:59,-8.477771,-3.199204,3.4624143,-0.43471557,-0.07937223,1.0159645,9.700299809677144,1.1079085964229936,walk
09/07/2020, 21:37:59,-8.547162,-3.196811,3.4528432,-0.43471557,-0.07937223,1.0159645,9.756828666086891,1.1079085964229936,walk
09/07/2020, 21:37:59,-8.547162,-3.196811,3.4528432,-0.4383789,-0.081814446,1.0501556,9.756828666086891,1.1409191606796636,walk
09/07/2020, 21:37:59,-8.673982,-3.2087753,3.495914,-0.4383789,-0.081814446,1.0501556,9.887143739925898,1.1409191606796636,walk
09/07/2020, 21:38:00,-9.068798,-1.9980069,3.4097722,0.80471224,-0.16729222,-1.1563922,9.892506065005414,1.4187288074626292,walk
09/07/2020, 21:38:00,-8.977871,-1.9286151,3.4073794,0.80471224,-0.16729222,-1.1563922,9.794486056617979,1.4187288074626292,walk
09/07/2020, 21:38:00,-8.977871,-1.9286151,3.4073794,0.7021389,-0.17950334,-1.10999,9.794486056617979,1.3256312781076027,walk
09/07/2020, 21:38:00,-8.932407,-1.8999012,3.3619158,0.7021389,-0.17950334,-1.10999,9.731392706064213,1.3256312781076027,walk
09/07/2020, 21:38:00,-8.932407,-1.8999012,3.3619158,0.61544,-0.1965989,-1.064809,9.731392706064213,1.2454861167194322,walk
09/07/2020, 21:38:00,-8.865408,-1.9645073,3.3427732,0.61544,-0.1965989,-1.064809,9.676201721932262,1.2454861167194322,walk
09/07/2020, 21:38:00,-8.865408,-1.9645073,3.3427732,0.57270116,-0.19782001,-1.0245123,9.676201721932262,1.1902708952363774,walk
09/07/2020, 21:38:00,-8.817552,-2.0697916,3.4169507,0.57270116,-0.19782001,-1.0245123,9.680330863799378,1.1902708952363774,walk
09/07/2020, 21:38:00,-8.817552,-2.0697916,3.4169507,0.5788067,-0.17217667,-0.97933114,9.680330863799378,1.150543990703688,walk
09/07/2020, 21:38:00,-8.841479,-2.1559331,3.4695928,0.5788067,-0.17217667,-0.97933114,9.73950092224931,1.150543990703688,walk
09/07/2020, 21:38:00,-8.841479,-2.1559331,3.4695928,0.61666113,-0.14775445,-0.9268234,9.73950092224931,1.1229888247245332,walk
09/07/2020, 21:38:00,-8.836694,-2.1463618,3.5413775,0.61666113,-0.14775445,-0.9268234,9.75886164888362,1.1229888247245332,walk
09/07/2020, 21:38:00,-8.836694,-2.1463618,3.5413775,0.6325356,-0.14164889,-0.8779789,9.75886164888362,1.0913352597578134,walk
09/07/2020, 21:38:00,-8.807981,-2.050649,3.5509489,0.6325356,-0.14164889,-0.8779789,9.715704810567773,1.0913352597578134,walk
09/07/2020, 21:38:00,-8.807981,-2.050649,3.5509489,0.63619894,-0.14531223,-0.8437878,9.715704810567773,1.0666970364607684,walk
09/07/2020, 21:38:00,-8.702696,-1.969293,3.5509489,0.63619894,-0.14531223,-0.8437878,9.603346692944353,1.0666970364607684,walk
09/07/2020, 21:38:00,-8.702696,-1.969293,3.5509489,0.63131446,-0.14409111,-0.79616445,9.603346692944353,1.0262543683008263,walk
09/07/2020, 21:38:00,-8.6141615,-1.969293,3.5581272,0.63131446,-0.14409111,-0.79616445,9.525868046230826,1.0262543683008263,walk
09/07/2020, 21:38:00,-8.6141615,-1.969293,3.5581272,0.64963114,-0.12699556,-0.7448778,9.525868046230826,0.9964895655519556,walk
09/07/2020, 21:38:00,-8.5016985,-2.0267208,3.5437703,0.64963114,-0.12699556,-0.7448778,9.431054149111322,0.9964895655519556,walk
09/07/2020, 21:38:01,-8.82473,-1.174876,4.4339004,1.1392968,-0.27475002,-0.41151446,9.945635428483245,1.2421066209180043,walk
09/07/2020, 21:38:01,-8.922835,-1.0025927,4.3836513,1.1392968,-0.27475002,-0.41151446,9.991925795896185,1.2421066209180043,walk
09/07/2020, 21:38:01,-8.922835,-1.0025927,4.3836513,1.1624979,-0.33458444,-0.47745445,9.991925795896185,1.3005040648028243,walk
09/07/2020, 21:38:01,-9.049655,-1.0815558,4.3118663,1.1624979,-0.33458444,-0.47745445,10.082569553187074,1.3005040648028243,walk
09/07/2020, 21:38:01,-9.049655,-1.0815558,4.3118663,1.2162267,-0.36633334,-0.52141446,10.082569553187074,1.373055180614707,walk
09/07/2020, 21:38:01,-9.085547,-1.2323036,4.2568316,1.2162267,-0.36633334,-0.52141446,10.108726937050413,1.373055180614707,walk
09/07/2020, 21:38:01,-9.085547,-1.2323036,4.2568316,1.2723979,-0.37976557,-0.53118336,10.108726937050413,1.4301657269908534,walk
09/07/2020, 21:38:01,-9.020942,-1.2107682,4.206582,1.2723979,-0.37976557,-0.53118336,10.0268979335497,1.4301657269908534,walk
09/07/2020, 21:38:01,-9.020942,-1.2107682,4.206582,1.284609,-0.37854445,-0.51164556,10.0268979335497,1.4336307946748637,walk
09/07/2020, 21:38:01,-8.941978,-0.9834501,4.1874394,1.284609,-0.37854445,-0.51164556,9.92274165179415,1.4336307946748637,walk
09/07/2020, 21:38:01,-8.941978,-0.9834501,4.1874394,1.2491968,-0.41395667,-0.50676113,9.92274165179415,1.410198403613252,walk
09/07/2020, 21:38:01,-8.963513,-0.6867401,4.1850467,1.2491968,-0.41395667,-0.50676113,9.91618876539437,1.410198403613252,walk
09/07/2020, 21:38:01,-8.963513,-0.6867401,4.1850467,1.2223322,-0.46158,-0.5360678,9.91618876539437,1.4122750708569691,walk
09/07/2020, 21:38:01,-9.004191,-0.56470615,4.063013,1.2223322,-0.46158,-0.5360678,9.89456573262499,1.4122750708569691,walk
09/07/2020, 21:38:01,-9.004191,-0.56470615,4.063013,1.2186689,-0.48844448,-0.5836911,9.89456573262499,1.436811508457906,walk
09/07/2020, 21:38:01,-8.980264,-0.61016977,3.9720855,1.2186689,-0.48844448,-0.5836911,9.838440246083383,1.436811508457906,walk
09/07/2020, 21:38:01,-8.980264,-0.61016977,3.9720855,1.2052367,-0.5018767,-0.60811335,9.838440246083383,1.4402352298486847,walk
09/07/2020, 21:38:01,-8.937193,-0.66759753,3.940979,1.2052367,-0.5018767,-0.60811335,9.790322732559913,1.4402352298486847,walk
09/07/2020, 21:38:01,-8.937193,-0.66759753,3.940979,1.1881411,-0.5250778,-0.6227667,9.790322732559913,1.4405638958569214,walk
09/07/2020, 21:38:01,-8.920443,-0.6628119,4.0031924,1.1881411,-0.5250778,-0.6227667,9.799957398679695,1.4405638958569214,walk
09/07/2020, 21:38:02,-8.894122,0.05503492,3.952943,-3.3873622,0.4261678,0.6935911,9.733149348499014,3.48380690875657,walk
09/07/2020, 21:38:02,-8.894122,0.05503492,3.952943,-3.7304945,0.41151446,0.7070234,9.733149348499014,3.819138047153404,walk
09/07/2020, 21:38:02,-8.906086,-0.0741775,3.7974095,-3.7304945,0.41151446,0.7070234,9.682158268904852,3.819138047153404,walk
09/07/2020, 21:38:02,-8.906086,-0.0741775,3.7974095,-4.0272245,0.36999667,0.7216767,9.682158268904852,4.10807160412724,walk
09/07/2020, 21:38:02,-8.9826565,-0.25842485,3.6490545,-4.0272245,0.36999667,0.7216767,9.698994781053784,4.10807160412724,walk
09/07/2020, 21:38:02,-8.9826565,-0.25842485,3.6490545,-4.2006226,0.30894113,0.73633003,9.698994781053784,4.275845695948219,walk
09/07/2020, 21:38:02,-9.083155,-0.61016977,3.6203406,-4.2006226,0.30894113,0.73633003,9.797084873239223,4.275845695948219,walk
09/07/2020, 21:38:02,-9.083155,-0.61016977,3.6203406,-4.244582,0.2820767,0.7485411,9.797084873239223,4.319300743307177,walk
09/07/2020, 21:38:02,-9.12144,-1.0552348,3.6921253,-4.244582,0.2820767,0.7485411,9.896765952016823,4.319300743307177,walk
09/07/2020, 21:38:02,-9.12144,-1.0552348,3.6921253,-4.2042856,0.29184556,0.7717422,9.896765952016823,4.284481004820071,walk
09/07/2020, 21:38:02,-9.049655,-1.4452649,3.7136607,-4.2042856,0.29184556,0.7717422,9.888191015617119,4.284481004820071,walk
09/07/2020, 21:38:02,-9.049655,-1.4452649,3.7136607,-4.106597,0.31504667,0.80227005,9.888191015617119,4.196073179377022,walk
09/07/2020, 21:38:02,-8.953942,-1.713261,3.694518,-4.106597,0.31504667,0.80227005,9.83655477727814,4.196073179377022,walk
09/07/2020, 21:38:02,-8.953942,-1.713261,3.694518,-3.9832647,0.34435335,0.84745115,9.83655477727814,4.086948767580766,walk
09/07/2020, 21:38:02,-8.841479,-1.861616,3.6179478,-3.9832647,0.34435335,0.84745115,9.732775392064559,4.086948767580766,walk
09/07/2020, 21:38:02,-8.841479,-1.861616,3.6179478,-3.8294046,0.37488112,0.8865267,9.732775392064559,3.9485193405647805,walk
09/07/2020, 21:38:02,-8.752945,-1.9740787,3.5198421,-3.8294046,0.37488112,0.8865267,9.638481234897611,3.9485193405647805,walk
09/07/2020, 21:38:02,-8.752945,-1.9740787,3.5198421,-3.6499012,0.40785113,0.9060645,9.638481234897611,3.782733648808796,walk
09/07/2020, 21:38:02,-8.760123,-2.1128623,3.3906298,-3.6499012,0.40785113,0.9060645,9.628100380426314,3.782733648808796,walk
09/07/2020, 21:38:02,-8.760123,-2.1128623,3.3906298,-3.4655135,0.42250445,0.9268234,9.628100380426314,3.612103982871607,walk
09/07/2020, 21:38:03,-8.135597,-1.8376877,4.3764725,0.2613178,0.08303556,0.085477784,9.4190524882634,0.28720783887553614,walk
09/07/2020, 21:38:03,-8.135597,-1.8376877,4.3764725,0.24788557,0.089141116,0.11356334,9.4190524882634,0.28686238101561473,walk
09/07/2020, 21:38:03,-8.106883,-1.8017955,4.35733,0.24788557,0.089141116,0.11356334,9.378397683690588,0.28686238101561473,walk
09/07/2020, 21:38:03,-8.106883,-1.8017955,4.35733,0.2295689,0.09646778,0.13798556,9.378397683690588,0.2846891734460814,walk
09/07/2020, 21:38:03,-8.114061,-1.7635103,4.3740797,0.2295689,0.09646778,0.13798556,9.385122997789209,0.2846891734460814,walk
09/07/2020, 21:38:03,-8.114061,-1.7635103,4.3740797,0.20026223,0.11356334,0.15996556,9.385122997789209,0.28034010403256593,walk
09/07/2020, 21:38:03,-8.200203,-1.7228323,4.2999024,0.20026223,0.11356334,0.15996556,9.418101745273697,0.28034010403256593,walk
09/07/2020, 21:38:03,-8.200203,-1.7228323,4.2999024,0.16607112,0.13676445,0.17950334,9.418101745273697,0.2801884705007999,walk
09/07/2020, 21:38:03,-8.384451,-1.6749759,4.1347976,0.16607112,0.13676445,0.17950334,9.497426611775202,0.2801884705007999,walk
09/07/2020, 21:38:03,-8.384451,-1.6749759,4.1347976,0.12455334,0.13554333,0.19415668,9.497426611775202,0.2675487688014801,walk
09/07/2020, 21:38:03,-8.523234,-1.5768701,3.9361932,0.12455334,0.13554333,0.19415668,9.519751071780455,0.2675487688014801,walk
09/07/2020, 21:38:03,-8.523234,-1.5768701,3.9361932,0.08059334,0.123332225,0.2185789,9.519751071780455,0.263596020060919,walk
09/07/2020, 21:38:03,-8.556734,-1.4691931,3.8524444,0.08059334,0.123332225,0.2185789,9.498292188876738,0.263596020060919,walk
09/07/2020, 21:38:03,-8.556734,-1.4691931,3.8524444,0.02075889,0.13310112,0.23079,9.498292188876738,0.26722811567824867,walk
09/07/2020, 21:38:03,-8.465807,-1.4356936,3.7998023,0.02075889,0.13310112,0.23079,9.389866943753853,0.26722811567824867,walk
09/07/2020, 21:38:03,-8.465807,-1.4356936,3.7998023,-0.013432222,0.16118668,0.2503278,9.389866943753853,0.2980361987985373,walk
09/07/2020, 21:38:03,-8.384451,-1.3950156,3.8165522,-0.013432222,0.16118668,0.2503278,9.317250454244096,0.2980361987985373,walk
09/07/2020, 21:38:03,-8.384451,-1.3950156,3.8165522,-0.018316668,0.20148334,0.27719223,9.317250454244096,0.3431713440440607,walk
09/07/2020, 21:38:03,-8.384451,-1.3423735,3.830909,-0.018316668,0.20148334,0.27719223,9.315409146295183,0.3431713440440607,walk
09/07/2020, 21:38:03,-8.384451,-1.3423735,3.830909,-0.017095556,0.25521225,0.3284789,9.315409146295183,0.4163219171494965,walk
09/07/2020, 21:38:04,-8.879765,-0.8662018,3.2015967,0.32115224,-0.5556056,-0.7570889,9.478963331555548,0.9924817052312095,walk
09/07/2020, 21:38:04,-8.834301,-0.8446664,3.3020952,0.32115224,-0.5556056,-0.7570889,9.469010929069936,0.9924817052312095,walk
09/07/2020, 21:38:04,-8.834301,-0.8446664,3.3020952,0.37610224,-0.5018767,-0.7228978,9.469010929069936,0.9570341671950903,walk
09/07/2020, 21:38:04,-8.915657,-0.8255238,3.3236306,0.37610224,-0.5018767,-0.7228978,9.550756526339672,0.9570341671950903,walk
09/07/2020, 21:38:04,-8.915657,-0.8255238,3.3236306,0.41029334,-0.46280113,-0.6777167,9.550756526339672,0.9175104348959194,walk
09/07/2020, 21:38:04,-9.040084,-0.8135597,3.2685957,0.41029334,-0.46280113,-0.6777167,9.647212751632733,0.9175104348959194,walk
09/07/2020, 21:38:04,-9.040084,-0.8135597,3.2685957,0.4249467,-0.44448447,-0.64841,9.647212751632733,0.8936339838723721,walk
09/07/2020, 21:38:04,-9.138189,-0.7848458,3.2303107,0.4249467,-0.44448447,-0.64841,9.724062629691147,0.8936339838723721,walk
09/07/2020, 21:38:04,-9.138189,-0.7848458,3.2303107,0.4163989,-0.43960002,-0.6105556,9.724062629691147,0.8598920630674454,walk
09/07/2020, 21:38:04,-9.042477,-0.7680961,3.225525,0.4163989,-0.43960002,-0.6105556,9.631218330887494,0.8598920630674454,walk
09/07/2020, 21:38:04,-9.042477,-0.7680961,3.225525,0.39686114,-0.42128336,-0.58124894,9.631218330887494,0.820261399432949,walk
09/07/2020, 21:38:04,-8.886943,-0.7752745,3.2805598,0.39686114,-0.42128336,-0.58124894,9.504781769759703,0.820261399432949,walk
09/07/2020, 21:38:04,-8.886943,-0.7752745,3.2805598,0.39808223,-0.39197668,-0.55438447,9.504781769759703,0.7870561102541767,walk
09/07/2020, 21:38:04,-8.7266245,-0.78723866,3.3523445,0.39808223,-0.39197668,-0.55438447,9.381467550778764,0.7870561102541767,walk
09/07/2020, 21:38:04,-8.7266245,-0.78723866,3.3523445,0.41273558,-0.3602278,-0.53851,9.381467550778764,0.7681847237922222,walk
09/07/2020, 21:38:04,-8.633304,-0.79441714,3.4169507,0.41273558,-0.3602278,-0.53851,9.318829458736978,0.7681847237922222,walk
09/07/2020, 21:38:04,-8.633304,-0.79441714,3.4169507,0.44448447,-0.33336335,-0.5250778,9.318829458736978,0.7644633993150205,walk
09/07/2020, 21:38:04,-8.5423765,-0.78723866,3.4911282,0.44448447,-0.33336335,-0.5250778,9.261744837548623,0.7644633993150205,walk
09/07/2020, 21:38:04,-8.5423765,-0.78723866,3.4911282,0.4713489,-0.3162678,-0.5189722,9.261744837548623,0.769108102593154,walk
09/07/2020, 21:38:04,-8.46102,-0.8063812,3.5796626,0.4713489,-0.3162678,-0.5189722,9.222423874594162,0.769108102593154,walk
09/07/2020, 21:38:05,-8.82473,-0.77766734,4.8215375,0.048844445,-0.0061055557,-0.10013112,10.086022430109931,0.11157642322304143,walk
09/07/2020, 21:38:05,-8.76491,-0.7369894,4.8239303,0.048844445,-0.0061055557,-0.10013112,10.031804391883982,0.11157642322304143,walk
09/07/2020, 21:38:05,-8.76491,-0.7369894,4.8239303,0.06227667,-0.054950003,-0.12943779,10.031804391883982,0.15379215705152963,walk
09/07/2020, 21:38:05,-8.719446,-0.6652047,4.855037,0.06227667,-0.054950003,-0.12943779,10.002131040765981,0.15379215705152963,walk
09/07/2020, 21:38:05,-8.719446,-0.6652047,4.855037,0.054950003,-0.10013112,-0.15874445,10.002131040765981,0.1955646827378974,walk
09/07/2020, 21:38:05,-8.71466,-0.6149554,4.843073,0.054950003,-0.10013112,-0.15874445,9.98893481469997,0.1955646827378974,walk
09/07/2020, 21:38:05,-8.71466,-0.6149554,4.843073,0.035412222,-0.15019667,-0.18194556,9.98893481469997,0.2385733708239455,walk
09/07/2020, 21:38:05,-8.781659,-0.59581286,4.8358946,0.035412222,-0.15019667,-0.18194556,10.04282860576923,0.2385733708239455,walk
09/07/2020, 21:38:05,-8.781659,-0.59581286,4.8358946,0.007326667,-0.20881,-0.20514667,10.04282860576923,0.29281470792550557,walk
09/07/2020, 21:38:05,-8.843872,-0.5838487,4.8047876,0.007326667,-0.20881,-0.20514667,10.081712986542907,0.29281470792550557,walk
09/07/2020, 21:38:05,-8.843872,-0.5838487,4.8047876,-0.02075889,-0.26986557,-0.23323223,10.081712986542907,0.3572892830463112,walk
09/07/2020, 21:38:05,-8.9013,-0.6125626,4.7401814,-0.02075889,-0.26986557,-0.23323223,10.103351049386259,0.3572892830463112,walk
09/07/2020, 21:38:05,-8.9013,-0.6125626,4.7401814,-0.04029667,-0.3309211,-0.25399113,10.103351049386259,0.41909915005062665,walk
09/07/2020, 21:38:05,-8.9826565,-0.64606214,4.6229334,-0.04029667,-0.3309211,-0.25399113,10.123093737015914,0.41909915005062665,walk
09/07/2020, 21:38:05,-8.9826565,-0.64606214,4.6229334,-0.06349778,-0.3834289,-0.28329778,10.123093737015914,0.48094419769373414,walk
09/07/2020, 21:38:05,-9.020942,-0.66999036,4.575077,-0.06349778,-0.3834289,-0.28329778,10.136942681785326,0.48094419769373414,walk
09/07/2020, 21:38:05,-9.020942,-0.66999036,4.575077,-0.08425667,-0.4383789,-0.32237336,10.136942681785326,0.5506358418972577,walk
09/07/2020, 21:38:05,-9.059227,-0.6652047,4.505685,-0.08425667,-0.4383789,-0.32237336,10.13968870038238,0.5506358418972577,walk
09/07/2020, 21:38:05,-9.059227,-0.6652047,4.505685,-0.09646778,-0.48966557,-0.35778558,10.13968870038238,0.6140756660595277,walk
09/07/2020, 21:38:05,-9.066405,-0.64845496,4.421936,-0.09646778,-0.48966557,-0.35778558,10.108101559481915,0.6140756660595277,walk
09/07/2020, 21:38:06,-8.449057,-1.4548361,4.4075794,-0.4493689,0.3614489,0.45425335,9.640013609192875,0.7341143115252365,walk
09/07/2020, 21:38:06,-8.489735,-1.4117653,4.3740797,-0.4493689,0.3614489,0.45425335,9.654079399288657,0.7341143115252365,walk
09/07/2020, 21:38:06,-8.489735,-1.4117653,4.3740797,-0.5140878,0.3370267,0.46524334,9.654079399288657,0.7709245189520698,walk
09/07/2020, 21:38:06,-8.535198,-1.3926228,4.3405805,-0.5140878,0.3370267,0.46524334,9.676241295784154,0.7709245189520698,walk
09/07/2020, 21:38:06,-8.535198,-1.3926228,4.3405805,-0.59468114,0.30405667,0.47501224,9.676241295784154,0.8195930421250845,walk
09/07/2020, 21:38:06,-8.599805,-1.4069797,4.254439,-0.59468114,0.30405667,0.47501224,9.69724115008213,0.8195930421250845,walk
09/07/2020, 21:38:06,-8.599805,-1.4069797,4.254439,-0.67161113,0.27475002,0.48722336,9.69724115008213,0.8740341443906128,walk
09/07/2020, 21:38:06,-8.652447,-1.3782659,4.206582,-0.67161113,0.27475002,0.48722336,9.719042349312348,0.8740341443906128,walk
09/07/2020, 21:38:06,-8.652447,-1.3782659,4.206582,-0.7351089,0.24300112,0.4798967,9.719042349312348,0.9108981794371409,walk
09/07/2020, 21:38:06,-8.633304,-1.416551,4.1898327,-0.7351089,0.24300112,0.4798967,9.700270431605395,0.9108981794371409,walk
09/07/2020, 21:38:06,-8.633304,-1.416551,4.1898327,-0.78029,0.21980001,0.4823389,9.700270431605395,0.9433002491700233,walk
09/07/2020, 21:38:06,-8.6141615,-1.5026926,4.1347976,-0.78029,0.21980001,0.4823389,9.672559855638072,0.9433002491700233,walk
09/07/2020, 21:38:06,-8.6141615,-1.5026926,4.1347976,-0.80227005,0.20636779,0.47745445,9.672559855638072,0.9561316129376666,walk
09/07/2020, 21:38:06,-8.556734,-1.5984055,4.1467614,-0.80227005,0.20636779,0.47745445,9.642003346571236,0.9561316129376666,walk
09/07/2020, 21:38:06,-8.556734,-1.5984055,4.1467614,-0.79128003,0.2075889,0.4701278,9.642003346571236,0.9435239147029959,walk
09/07/2020, 21:38:06,-8.496913,-1.7252251,4.1491547,-0.79128003,0.2075889,0.4701278,9.61194131373253,0.9435239147029959,walk
09/07/2020, 21:38:06,-8.496913,-1.7252251,4.1491547,-0.7680789,0.21125223,0.46524334,9.61194131373253,0.9225096752231742,walk
09/07/2020, 21:38:06,-8.46102,-1.8544376,4.173083,-0.7680789,0.21125223,0.46524334,9.614698458906123,0.9225096752231742,walk
09/07/2020, 21:38:06,-8.46102,-1.8544376,4.173083,-0.72778225,0.22224224,0.4493689,9.614698458906123,0.8837369615013687,walk
09/07/2020, 21:38:06,-8.446664,-1.9525433,4.1898327,-0.72778225,0.22224224,0.4493689,9.628772166273183,0.8837369615013687,walk
09/07/2020, 21:38:07,-8.1738825,-2.658426,3.6634114,0.48478112,-0.19171445,-0.58124894,9.34345582983945,0.7807800525215683,walk
09/07/2020, 21:38:07,-8.216953,-2.6321049,3.6801612,0.48478112,-0.19171445,-0.58124894,9.38029231781104,0.7807800525215683,walk
09/07/2020, 21:38:07,-8.216953,-2.6321049,3.6801612,0.48966557,-0.18072446,-0.55438447,9.38029231781104,0.7614301269637,walk
09/07/2020, 21:38:07,-8.279166,-2.589034,3.656233,0.48966557,-0.18072446,-0.55438447,9.413592888692929,0.7614301269637,walk
09/07/2020, 21:38:07,-8.279166,-2.589034,3.656233,0.47623336,-0.17950334,-0.52019334,9.413592888692929,0.7277504883684079,walk
09/07/2020, 21:38:07,-8.315059,-2.4909284,3.6394832,0.47623336,-0.17950334,-0.52019334,9.412266662850065,0.7277504883684079,walk
09/07/2020, 21:38:07,-8.315059,-2.4909284,3.6394832,0.43349445,-0.18072446,-0.4921078,9.412266662850065,0.6802564675325578,walk
09/07/2020, 21:38:07,-8.293523,-2.4311078,3.5605202,0.43349445,-0.18072446,-0.4921078,9.347197967585346,0.6802564675325578,walk
09/07/2020, 21:38:07,-8.293523,-2.4311078,3.5605202,0.37976557,-0.17706113,-0.45547447,9.347197967585346,0.6188937871308087,walk
09/07/2020, 21:38:07,-8.30788,-2.3712873,3.5437703,0.37976557,-0.17706113,-0.45547447,9.338211203298064,0.6188937871308087,walk
09/07/2020, 21:38:07,-8.30788,-2.3712873,3.5437703,0.31993112,-0.17706113,-0.4163989,9.338211203298064,0.5541611841538192,walk
09/07/2020, 21:38:07,-8.30788,-2.3425734,3.5006995,0.31993112,-0.17706113,-0.4163989,9.314688618100668,0.5541611841538192,walk
09/07/2020, 21:38:07,-8.30788,-2.3425734,3.5006995,0.2735289,-0.16973445,-0.39197668,9.314688618100668,0.5072214162823712,walk
09/07/2020, 21:38:07,-8.32463,-2.2971098,3.507878,0.2735289,-0.16973445,-0.39197668,9.321018355403766,0.5072214162823712,walk
09/07/2020, 21:38:07,-8.32463,-2.2971098,3.507878,0.23323223,-0.15874445,-0.35168,9.321018355403766,0.4508612920950943,walk
09/07/2020, 21:38:07,-8.286345,-2.2971098,3.5150564,0.23323223,-0.15874445,-0.35168,9.289555455657968,0.4508612920950943,walk
09/07/2020, 21:38:07,-8.286345,-2.2971098,3.5150564,0.19782001,-0.14042778,-0.31871,9.289555455657968,0.4005356181790362,walk
09/07/2020, 21:38:07,-8.295917,-2.347359,3.5318062,0.19782001,-0.14042778,-0.31871,9.316972726091738,0.4005356181790362,walk
09/07/2020, 21:38:07,-8.295917,-2.347359,3.5318062,0.18072446,-0.11966889,-0.28085557,9.316972726091738,0.35477009809236304,walk
09/07/2020, 21:38:07,-8.319844,-2.3688943,3.5389848,0.18072446,-0.11966889,-0.28085557,9.346436856108703,0.35477009809236304,walk
09/07/2020, 21:38:08,-8.717052,-2.2229323,3.9984066,-0.14042778,-0.18072446,-0.18438779,9.844576552387274,0.2939049983038306,walk
09/07/2020, 21:38:08,-8.69791,-2.2444677,4.019942,-0.14042778,-0.18072446,-0.18438779,9.841301300404968,0.2939049983038306,walk
09/07/2020, 21:38:08,-8.69791,-2.2444677,4.019942,-0.11966889,-0.19782001,-0.21980001,9.841301300404968,0.31900696559791647,walk
09/07/2020, 21:38:08,-8.69791,-2.321038,4.034299,-0.11966889,-0.19782001,-0.21980001,9.864908958656532,0.31900696559791647,walk
09/07/2020, 21:38:08,-8.69791,-2.321038,4.034299,-0.081814446,-0.21613668,-0.2503278,9.864908958656532,0.340694398039826,walk
09/07/2020, 21:38:08,-8.707481,-2.3904297,4.0438704,-0.081814446,-0.21613668,-0.2503278,9.893799805192014,0.340694398039826,walk
09/07/2020, 21:38:08,-8.707481,-2.3904297,4.0438704,-0.042738892,-0.23811668,-0.27963445,9.893799805192014,0.36975882718715825,walk
09/07/2020, 21:38:08,-8.740981,-2.4095724,4.0390844,-0.042738892,-0.23811668,-0.27963445,9.92597565312788,0.36975882718715825,walk
09/07/2020, 21:38:08,-8.740981,-2.4095724,4.0390844,-0.014653334,-0.25765446,-0.31138334,9.92597565312788,0.4044256699425218,walk
09/07/2020, 21:38:08,-8.774481,-2.4047868,4.0366917,-0.014653334,-0.25765446,-0.31138334,9.95336088632397,0.4044256699425218,walk
09/07/2020, 21:38:08,-8.774481,-2.4047868,4.0366917,0.019537779,-0.27719223,-0.33458444,9.95336088632397,0.43492989160106554,walk
09/07/2020, 21:38:08,-8.827123,-2.3784657,4.031906,0.019537779,-0.27719223,-0.33458444,9.99156948825267,0.43492989160106554,walk
09/07/2020, 21:38:08,-8.827123,-2.3784657,4.031906,0.068382226,-0.29673,-0.34801668,9.99156948825267,0.46242884612616747,walk
09/07/2020, 21:38:08,-8.896515,-2.333002,4.034299,0.068382226,-0.29673,-0.34801668,10.043228742618828,0.46242884612616747,walk
09/07/2020, 21:38:08,-8.896515,-2.333002,4.034299,0.117226675,-0.31260446,-0.35778558,10.043228742618828,0.4893609741963167,walk
09/07/2020, 21:38:08,-8.949157,-2.2899313,4.019942,0.117226675,-0.31260446,-0.35778558,10.074280332229833,0.4893609741963167,walk
09/07/2020, 21:38:08,-8.949157,-2.2899313,4.019942,0.13554333,-0.3382478,-0.39075556,10.074280332229833,0.5342971866325845,walk
09/07/2020, 21:38:08,-8.932407,-2.2372892,3.991228,0.13554333,-0.3382478,-0.39075556,10.03609816030945,0.5342971866325845,walk
09/07/2020, 21:38:08,-8.932407,-2.2372892,3.991228,0.13920668,-0.35656446,-0.41151446,10.03609816030945,0.5620150055363664,walk
09/07/2020, 21:38:08,-8.9108715,-2.2061825,3.952943,0.13920668,-0.35656446,-0.41151446,9.994830222284158,0.5620150055363664,walk
09/07/2020, 21:38:09,-8.5423765,-3.0053852,3.5581272,-0.21613668,0.35656446,0.88408446,9.729584033418282,0.9774756353253569,walk
09/07/2020, 21:38:09,-8.5423765,-3.0053852,3.5581272,-0.20148334,0.3602278,0.8755367,9.729584033418282,0.967948385769739,walk
09/07/2020, 21:38:09,-8.580662,-2.9790642,3.5437703,-0.20148334,0.3602278,0.8755367,9.749917341752946,0.967948385769739,walk
09/07/2020, 21:38:09,-8.580662,-2.9790642,3.5437703,-0.19904111,0.3614489,0.8621045,9.749917341752946,0.9557650384572085,walk
09/07/2020, 21:38:09,-8.580662,-2.914458,3.5557344,-0.19904111,0.3614489,0.8621045,9.73473518978054,0.9557650384572085,walk
09/07/2020, 21:38:09,-8.580662,-2.914458,3.5557344,-0.18927222,0.36755446,0.8523356,9.73473518978054,0.9473099708924834,walk
09/07/2020, 21:38:09,-8.539984,-2.900101,3.574877,-0.18927222,0.36755446,0.8523356,9.701631495468096,0.9473099708924834,walk
09/07/2020, 21:38:09,-8.539984,-2.900101,3.574877,-0.18683001,0.3724389,0.8327978,9.701631495468096,0.931218777691051,walk
09/07/2020, 21:38:09,-8.504091,-2.9192436,3.5389848,-0.18683001,0.3724389,0.8327978,9.662606506167247,0.931218777691051,walk
09/07/2020, 21:38:09,-8.504091,-2.9192436,3.5389848,-0.18683001,0.37854445,0.8205867,9.662606506167247,0.9228021761146608,walk
09/07/2020, 21:38:09,-8.506484,-2.9168508,3.534199,-0.18683001,0.37854445,0.8205867,9.662238445042243,0.9228021761146608,walk
09/07/2020, 21:38:09,-8.506484,-2.9168508,3.534199,-0.17828223,0.38220778,0.8095967,9.662238445042243,0.9128604420145126,walk
09/07/2020, 21:38:09,-8.530413,-2.9072795,3.5294135,-0.17828223,0.38220778,0.8095967,9.67868657477204,0.9128604420145126,walk
09/07/2020, 21:38:09,-8.530413,-2.9072795,3.5294135,-0.16851334,0.3858711,0.7998278,9.67868657477204,0.9038903662700948,walk
09/07/2020, 21:38:09,-8.530413,-2.8785655,3.5365918,-0.16851334,0.3858711,0.7998278,9.672722540631161,0.9038903662700948,walk
09/07/2020, 21:38:09,-8.530413,-2.8785655,3.5365918,-0.16240779,0.38709223,0.7766267,9.672722540631161,0.8828169267322409,walk
09/07/2020, 21:38:09,-8.554341,-2.9048867,3.5605202,-0.16240779,0.38709223,0.7766267,9.710428730053184,0.8828169267322409,walk
09/07/2020, 21:38:09,-8.554341,-2.9048867,3.5605202,-0.14164889,0.3931978,0.7558678,9.710428730053184,0.8637158218803946,walk
09/07/2020, 21:38:09,-8.590233,-2.9359934,3.6179478,-0.14164889,0.3931978,0.7558678,9.772497339276743,0.8637158218803946,walk
09/07/2020, 21:38:09,-8.590233,-2.9359934,3.6179478,-0.10379445,0.3944189,0.7314456,9.772497339276743,0.8374677507411321,walk
09/07/2020, 21:38:10,-8.30788,-2.6751757,3.711268,-0.12455334,-0.09646778,-0.65085226,9.48424753993353,0.6696478435398675,walk
09/07/2020, 21:38:10,-8.255239,-2.6392834,3.7471602,-0.12455334,-0.09646778,-0.65085226,9.44224495222483,0.6696478435398675,walk
09/07/2020, 21:38:10,-8.255239,-2.6392834,3.7471602,-0.123332225,-0.08669889,-0.6007867,9.44224495222483,0.6194127679977675,walk
09/07/2020, 21:38:10,-8.200203,-2.5914268,3.7734814,-0.123332225,-0.08669889,-0.6007867,9.391378122842083,0.6194127679977675,walk
09/07/2020, 21:38:10,-8.200203,-2.5914268,3.7734814,-0.12089001,-0.078151114,-0.5372889,9.391378122842083,0.5562385791031554,walk
09/07/2020, 21:38:10,-8.140383,-2.5603201,3.7686956,-0.12089001,-0.078151114,-0.5372889,9.328672857077965,0.5562385791031554,walk
09/07/2020, 21:38:10,-8.140383,-2.5603201,3.7686956,-0.117226675,-0.058613338,-0.47257003,9.328672857077965,0.4904080461631338,walk
09/07/2020, 21:38:10,-8.087741,-2.5459633,3.8213377,-0.117226675,-0.058613338,-0.47257003,9.300328150795316,0.4904080461631338,walk
09/07/2020, 21:38:10,-8.087741,-2.5459633,3.8213377,-0.10867889,-0.048844445,-0.40052447,9.300328150795316,0.41787166729436936,walk
09/07/2020, 21:38:10,-8.037491,-2.5196424,3.8380876,-0.10867889,-0.048844445,-0.40052447,9.2563909151996,0.41787166729436936,walk
09/07/2020, 21:38:10,-8.037491,-2.5196424,3.8380876,-0.09402556,-0.04029667,-0.33336335,9.2563909151996,0.348705826486881,walk
09/07/2020, 21:38:10,-8.006385,-2.498107,3.8404803,-0.09402556,-0.04029667,-0.33336335,9.22453391081798,0.348705826486881,walk
09/07/2020, 21:38:10,-8.006385,-2.498107,3.8404803,-0.08425667,-0.026864445,-0.2625389,9.22453391081798,0.2770335075120588,walk
09/07/2020, 21:38:10,-7.9800634,-2.4837499,3.8380876,-0.08425667,-0.026864445,-0.2625389,9.196811512095206,0.2770335075120588,walk
09/07/2020, 21:38:10,-7.9800634,-2.4837499,3.8380876,-0.068382226,-0.0061055557,-0.18316667,9.196811512095206,0.1956104159634877,walk
09/07/2020, 21:38:10,-7.9346,-2.4765713,3.8572302,-0.068382226,-0.0061055557,-0.18316667,9.16348762319228,0.1956104159634877,walk
09/07/2020, 21:38:10,-7.9346,-2.4765713,3.8572302,-0.042738892,0.01099,-0.10745778,9.16348762319228,0.11616611963398214,walk
09/07/2020, 21:38:10,-7.893922,-2.4765713,3.8763726,-0.042738892,0.01099,-0.10745778,9.13639272709781,0.11616611963398214,walk
09/07/2020, 21:38:10,-7.893922,-2.4765713,3.8763726,-0.023201112,0.034191113,-0.035412222,9.13639272709781,0.05441828063714685,walk
09/07/2020, 21:38:10,-7.8628154,-2.4909284,3.8931224,-0.023201112,0.034191113,-0.035412222,9.120580702100563,0.05441828063714685,walk
09/07/2020, 21:38:11,-8.796016,-2.8307092,3.3667014,0.10867889,-0.36755446,-0.9842156,9.834504850207074,1.0562138802556433,walk
09/07/2020, 21:38:11,-8.796016,-2.8307092,3.3667014,0.08669889,-0.3602278,-0.9854367,9.834504850207074,1.0527897258586278,walk
09/07/2020, 21:38:11,-8.7577305,-2.8977082,3.3667014,0.08669889,-0.3602278,-0.9854367,9.819838796574759,1.0527897258586278,walk
09/07/2020, 21:38:11,-8.7577305,-2.8977082,3.3667014,0.08303556,-0.35412225,-0.9732256,9.819838796574759,1.0389733051377434,walk
09/07/2020, 21:38:11,-8.729017,-2.9503503,3.3882368,0.08303556,-0.35412225,-0.9732256,9.817354910360551,1.0389733051377434,walk
09/07/2020, 21:38:11,-8.729017,-2.9503503,3.3882368,0.085477784,-0.33458444,-0.9646778,9.817354910360551,1.0246250439443576,walk
09/07/2020, 21:38:11,-8.669196,-2.9862428,3.438486,0.085477784,-0.33458444,-0.9646778,9.792639790338,1.0246250439443576,walk
09/07/2020, 21:38:11,-8.669196,-2.9862428,3.438486,0.10013112,-0.3174889,-0.9414767,9.792639790338,0.998600936035954,walk
09/07/2020, 21:38:11,-8.657232,-3.0388846,3.4672,0.10013112,-0.3174889,-0.9414767,9.808362085754922,0.998600936035954,walk
09/07/2020, 21:38:11,-8.657232,-3.0388846,3.4672,0.12577444,-0.30283555,-0.9194967,9.808362085754922,0.9762186190953668,walk
09/07/2020, 21:38:11,-8.650054,-3.048456,3.4791641,0.12577444,-0.30283555,-0.9194967,9.809235470782223,0.9762186190953668,walk
09/07/2020, 21:38:11,-8.650054,-3.048456,3.4791641,0.14287001,-0.2942878,-0.8950745,9.809235470782223,0.9529824163900665,walk
09/07/2020, 21:38:11,-8.609376,-3.0412776,3.481557,0.14287001,-0.2942878,-0.8950745,9.771998896486982,0.9529824163900665,walk
09/07/2020, 21:38:11,-8.609376,-3.0412776,3.481557,0.15630223,-0.28085557,-0.8755367,9.771998896486982,0.9326707426366241,walk
09/07/2020, 21:38:11,-8.504091,-3.010171,3.4480574,0.15630223,-0.28085557,-0.8755367,9.657628963561756,0.9326707426366241,walk
09/07/2020, 21:38:11,-8.504091,-3.010171,3.4480574,0.15630223,-0.26376,-0.84623003,9.657628963561756,0.9000583249309394,walk
09/07/2020, 21:38:11,-8.4012,-2.9982069,3.4289148,0.15630223,-0.26376,-0.84623003,9.556509160369279,0.9000583249309394,walk
09/07/2020, 21:38:11,-8.4012,-2.9982069,3.4289148,0.15386,-0.24788557,-0.81326,9.556509160369279,0.8640092675705364,walk
09/07/2020, 21:38:11,-8.334201,-2.9647074,3.3762727,0.15386,-0.24788557,-0.81326,9.46824223258517,0.8640092675705364,walk
09/07/2020, 21:38:11,-8.334201,-2.9647074,3.3762727,0.14775445,-0.23567446,-0.77418447,9.46824223258517,0.8226392962861043,walk
09/07/2020, 21:38:12,-8.671589,-3.0532417,3.7734814,0.09646778,0.24300112,0.21491556,9.937700977255021,0.33844389944966186,walk
09/07/2020, 21:38:12,-8.666803,-3.0029924,3.830909,0.09646778,0.24300112,0.21491556,9.940186500071091,0.33844389944966186,walk
09/07/2020, 21:38:12,-8.666803,-3.0029924,3.830909,0.07937223,0.2075889,0.17828223,9.940186500071091,0.284916925049582,walk
09/07/2020, 21:38:12,-8.709874,-2.9216363,3.9242291,0.07937223,0.2075889,0.17828223,9.989866919388856,0.284916925049582,walk
09/07/2020, 21:38:12,-8.709874,-2.9216363,3.9242291,0.06349778,0.16851334,0.14164889,9.989866919388856,0.22911377655350165,walk
09/07/2020, 21:38:12,-8.717052,-2.8594232,3.9146578,0.06349778,0.16851334,0.14164889,9.974359645204018,0.22911377655350165,walk
09/07/2020, 21:38:12,-8.717052,-2.8594232,3.9146578,0.036633335,0.12455334,0.10501556,9.974359645204018,0.16698444004339263,walk
09/07/2020, 21:38:12,-8.693125,-2.8402805,3.912265,0.036633335,0.12455334,0.10501556,9.947031200784753,0.16698444004339263,walk
09/07/2020, 21:38:12,-8.693125,-2.8402805,3.912265,0.0,0.08059334,0.064718895,9.947031200784753,0.10336257443757657,walk
09/07/2020, 21:38:12,-8.681161,-2.7708886,3.9338005,0.0,0.08059334,0.064718895,9.925480569645046,0.10336257443757657,walk
09/07/2020, 21:38:12,-8.681161,-2.7708886,3.9338005,-0.035412222,0.037854444,0.035412222,9.925480569645046,0.06277746333803726,walk
09/07/2020, 21:38:12,-8.695518,-2.7230322,3.9290147,-0.035412222,0.037854444,0.035412222,9.922907145807706,0.06277746333803726,walk
09/07/2020, 21:38:12,-8.695518,-2.7230322,3.9290147,-0.07326667,-0.0061055557,0.0024422223,9.922907145807706,0.07356118003952032,walk
09/07/2020, 21:38:12,-8.688339,-2.658426,3.9649072,-0.07326667,-0.0061055557,0.0024422223,9.913372611787405,0.07356118003952032,walk
09/07/2020, 21:38:12,-8.688339,-2.658426,3.9649072,-0.10379445,-0.05250778,-0.035412222,9.913372611787405,0.12159103561268701,walk
09/07/2020, 21:38:12,-8.681161,-2.6249263,3.9816568,-0.10379445,-0.05250778,-0.035412222,9.904866685615323,0.12159103561268701,walk
09/07/2020, 21:38:12,-8.681161,-2.6249263,3.9816568,-0.10135223,-0.09280445,-0.07204556,9.904866685615323,0.15516282457268837,walk
09/07/2020, 21:38:12,-8.669196,-2.6416762,3.9553359,-0.10135223,-0.09280445,-0.07204556,9.888280757024823,0.15516282457268837,walk
09/07/2020, 21:38:12,-8.669196,-2.6416762,3.9553359,-0.07570889,-0.12699556,-0.11478445,9.888280757024823,0.18717686490069163,walk
09/07/2020, 21:38:12,-8.671589,-2.696711,3.9553359,-0.07570889,-0.12699556,-0.11478445,9.90522015403305,0.18717686490069163,walk
09/07/2020, 21:38:13,-8.4347,-3.182454,3.8380876,-0.14409111,0.12455334,0.69481224,9.798116888547568,0.7204441890634979,walk
09/07/2020, 21:38:13,-8.4347,-3.182454,3.8380876,-0.15752333,0.12089001,0.7009178,9.798116888547568,0.7285010153017207,walk
09/07/2020, 21:38:13,-8.446664,-3.196811,3.8069808,-0.15752333,0.12089001,0.7009178,9.80096086121789,0.7285010153017207,walk
09/07/2020, 21:38:13,-8.446664,-3.196811,3.8069808,-0.15996556,0.123332225,0.7021389,9.80096086121789,0.7306153940081889,walk
09/07/2020, 21:38:13,-8.463413,-3.1848469,3.7950168,-0.15996556,0.123332225,0.7021389,9.806873382165493,0.7306153940081889,walk
09/07/2020, 21:38:13,-8.463413,-3.1848469,3.7950168,-0.16362889,0.12455334,0.70336,9.806873382165493,0.7328050676943519,walk
09/07/2020, 21:38:13,-8.499306,-3.2015967,3.7758741,-0.16362889,0.12455334,0.70336,9.83593640583125,0.7328050676943519,walk
09/07/2020, 21:38:13,-8.499306,-3.2015967,3.7758741,-0.16729222,0.11966889,0.7070234,9.83593640583125,0.7363351103291221,walk
09/07/2020, 21:38:13,-8.568698,-3.2303107,3.7567315,-0.16729222,0.11966889,0.7070234,9.898006007472558,0.7363351103291221,walk
09/07/2020, 21:38:13,-8.568698,-3.2303107,3.7567315,-0.1856089,0.11112112,0.6996967,9.898006007472558,0.7323756302338781,walk
09/07/2020, 21:38:13,-8.568698,-3.2327034,3.7160535,-0.1856089,0.11112112,0.6996967,9.883420930695328,0.7323756302338781,walk
09/07/2020, 21:38:13,-8.568698,-3.2327034,3.7160535,-0.20392556,0.10745778,0.6874856,9.883420930695328,0.7250994601560647,walk
09/07/2020, 21:38:13,-8.571091,-3.237489,3.7256248,-0.20392556,0.10745778,0.6874856,9.890662810663422,0.7250994601560647,walk
09/07/2020, 21:38:13,-8.571091,-3.237489,3.7256248,-0.22102112,0.10501556,0.6789378,9.890662810663422,0.7216890799587987,walk
09/07/2020, 21:38:13,-8.549556,-3.2231321,3.7471602,-0.22102112,0.10501556,0.6789378,9.875459194204845,0.7216890799587987,walk
09/07/2020, 21:38:13,-8.549556,-3.2231321,3.7471602,-0.23567446,0.098910004,0.6679478,9.875459194204845,0.7151782574494344,walk
09/07/2020, 21:38:13,-8.556734,-3.2063823,3.739982,-0.23567446,0.098910004,0.6679478,9.873502419574166,0.7151782574494344,walk
09/07/2020, 21:38:13,-8.556734,-3.2063823,3.739982,-0.24788557,0.09524667,0.6618422,9.873502419574166,0.7131299445706596,walk
09/07/2020, 21:38:13,-8.602198,-3.2422748,3.6993039,-0.24788557,0.09524667,0.6618422,9.909338982777905,0.7131299445706596,walk
09/07/2020, 21:38:13,-8.602198,-3.2422748,3.6993039,-0.25643334,0.089141116,0.64963114,9.909338982777905,0.704077280373442,walk
09/07/2020, 21:38:14,-8.724232,-3.0293136,3.333202,0.17339778,-0.17706113,-0.6972545,9.81830915088005,0.7399873245703301,walk
09/07/2020, 21:38:14,-8.683554,-2.9982069,3.3164523,0.17339778,-0.17706113,-0.6972545,9.766893300784572,0.7399873245703301,walk
09/07/2020, 21:38:14,-8.683554,-2.9982069,3.3164523,0.15874445,-0.16485001,-0.6935911,9.766893300784572,0.7303724850042916,walk
09/07/2020, 21:38:14,-8.62134,-2.9718857,3.3092737,0.15874445,-0.16485001,-0.6935911,9.701077103416878,0.7303724850042916,walk
09/07/2020, 21:38:14,-8.62134,-2.9718857,3.3092737,0.15386,-0.15386,-0.6935911,9.701077103416878,0.7269212059563029,walk
09/07/2020, 21:38:14,-8.597412,-2.9790642,3.2853456,0.15386,-0.15386,-0.6935911,9.67387275363165,0.7269212059563029,walk
09/07/2020, 21:38:14,-8.597412,-2.9790642,3.2853456,0.1526389,-0.14042778,-0.6972545,9.67387275363165,0.7274492447133889,walk
09/07/2020, 21:38:14,-8.559127,-2.9886355,3.3092737,0.1526389,-0.14042778,-0.6972545,9.651004478569316,0.7274492447133889,walk
09/07/2020, 21:38:14,-8.559127,-2.9886355,3.3092737,0.14775445,-0.13188,-0.68626446,9.651004478569316,0.7142706863024746,walk
09/07/2020, 21:38:14,-8.532805,-3.010171,3.2829528,0.14775445,-0.13188,-0.68626446,9.625366319474605,0.7142706863024746,walk
09/07/2020, 21:38:14,-8.532805,-3.010171,3.2829528,0.13432223,-0.11966889,-0.68626446,9.625366319474605,0.709451906135468,walk
09/07/2020, 21:38:14,-8.496913,-3.0149565,3.2638102,0.13432223,-0.11966889,-0.68626446,9.588532164717991,0.709451906135468,walk
09/07/2020, 21:38:14,-8.496913,-3.0149565,3.2638102,0.11600556,-0.11112112,-0.6691689,9.588532164717991,0.6881803514033641,walk
09/07/2020, 21:38:14,-8.5016985,-3.0125637,3.278167,0.11600556,-0.11112112,-0.6691689,9.596915978726429,0.6881803514033641,walk
