DATE,TIME,ax,ay,az,gx,gy,gz,ma,mg,label
23/10/2020, 15:17:34,0.77359134,3.891907,9.14658,-0.10916909,0.16730292,0.026736183,9.97022088324183,0.20155143472882892,stand
23/10/2020, 15:17:34,0.7496411,3.8392165,9.139395,-0.10916909,0.16730292,0.026736183,9.941331978160965,0.20155143472882892,stand
23/10/2020, 15:17:34,0.7496411,3.8392165,9.139395,-0.1421558,0.19418098,0.046283863,9.941331978160965,0.24506472524141468,stand
23/10/2020, 15:17:34,0.5939649,3.755391,9.1202345,-0.1421558,0.19418098,0.046283863,9.881013717990797,0.24506472524141468,stand
23/10/2020, 15:17:34,0.5939649,3.755391,9.1202345,-0.07740411,0.21250694,0.06338808,9.881013717990797,0.23488005988199562,stand
23/10/2020, 15:17:34,0.39517823,3.6955154,9.24717,-0.07740411,0.21250694,0.06338808,9.966100599592309,0.23488005988199562,stand
23/10/2020, 15:17:34,0.39517823,3.6955154,9.24717,-0.1421558,0.19051579,0.06460981,9.966100599592309,0.2463310027784681,stand
23/10/2020, 15:17:34,-0.27303225,3.9302273,8.818462,-0.1421558,0.19051579,0.06460981,9.658494276106444,0.2463310027784681,stand
23/10/2020, 15:17:34,-0.27303225,3.9302273,8.818462,-0.18613808,0.30413666,0.07927057,9.658494276106444,0.3652811492352664,stand
23/10/2020, 15:17:34,-1.0585986,3.9829175,7.441326,-0.18613808,0.30413666,0.07927057,8.506326939727735,0.3652811492352664,stand
23/10/2020, 15:17:34,-1.0585986,3.9829175,7.441326,-0.17392078,0.057347216,0.15013091,8.506326939727735,0.23680462822446016,stand
23/10/2020, 15:17:34,1.7699195,4.033213,7.2425394,-0.17392078,0.057347216,0.15013091,8.476662099816927,0.23680462822446016,stand
23/10/2020, 15:17:34,1.7699195,4.033213,7.2425394,-0.026091449,0.34078857,0.14035708,8.476662099816927,0.36948305010199634,stand
23/10/2020, 15:17:34,-2.0070264,3.5206788,4.502637,-0.026091449,0.34078857,0.14035708,6.057810921992763,0.36948305010199634,stand
23/10/2020, 15:17:34,-2.0070264,3.5206788,4.502637,-0.122608125,0.40920544,0.13058324,6.057810921992763,0.44669209169146684,stand
23/10/2020, 15:17:34,-2.6776319,3.1398706,5.975574,-0.122608125,0.40920544,0.13058324,7.2619546154687855,0.44669209169146684,stand
23/10/2020, 15:17:34,-2.6776319,3.1398706,5.975574,-0.2533332,0.51793945,0.12203112,7.2619546154687855,0.5893475907961135,stand
23/10/2020, 15:17:34,-1.6238233,3.417693,2.0381618,-0.2533332,0.51793945,0.12203112,4.297851807109754,0.5893475907961135,stand
23/10/2020, 15:17:34,-1.6238233,3.417693,2.0381618,-0.03586529,0.38843605,0.08415749,4.297851807109754,0.39906311058628713,stand
23/10/2020, 15:17:34,3.0153298,4.29427,1.343606,-0.03586529,0.38843605,0.08415749,5.416479139206443,0.39906311058628713,stand
23/10/2020, 15:17:34,3.0153298,4.29427,1.343606,-0.25822014,0.20639828,0.0804923,5.416479139206443,0.3402306554160559,stand
23/10/2020, 15:17:34,4.646338,4.5074267,14.712605,-0.25822014,0.20639828,0.0804923,16.073770944889212,0.3402306554160559,stand
23/10/2020, 15:17:34,4.646338,4.5074267,14.712605,0.0020083413,0.11721199,0.07438365,16.073770944889212,0.1388366377648825,stand
23/10/2020, 15:17:34,-1.7459693,3.7601807,16.58551,0.0020083413,0.11721199,0.07438365,17.095804109437275,0.1388366377648825,stand
23/10/2020, 15:17:34,-1.7459693,3.7601807,16.58551,-0.28143305,0.6413342,0.058501165,17.095804109437275,0.7028061404398421,stand
23/10/2020, 15:17:34,-1.6405884,3.410508,0.9508228,-0.28143305,0.6413342,0.058501165,3.902199188020923,0.7028061404398421,stand
23/10/2020, 15:17:34,-1.6405884,3.410508,0.9508228,-0.51844865,0.61934304,0.09881825,3.902199188020923,0.8137197639387055,stand
23/10/2020, 15:17:34,5.103787,4.1553593,9.362132,-0.51844865,0.61934304,0.09881825,11.44400143189203,0.8137197639387055,stand
23/10/2020, 15:17:34,5.103787,4.1553593,9.362132,-0.19346847,0.24671538,0.059722893,11.44400143189203,0.3191635176842545,stand
23/10/2020, 15:17:34,-0.2945874,4.061953,19.023642,-0.19346847,0.24671538,0.059722893,19.454695671413354,0.3191635176842545,stand
23/10/2020, 15:17:35,-3.403323,1.83219,15.728094,-1.245378,0.45074427,-0.14674948,16.19606345319337,1.3325435132538137,stand
23/10/2020, 15:17:35,-4.1793094,1.5735279,1.7914747,-1.245378,0.45074427,-0.14674948,4.811652371953515,1.3325435132538137,stand
23/10/2020, 15:17:35,-4.1793094,1.5735279,1.7914747,-1.0169145,0.18440714,-0.101545475,4.811652371953515,1.0384760720707085,stand
23/10/2020, 15:17:35,2.0237916,1.6741188,3.7218604,-1.0169145,0.18440714,-0.101545475,4.555288219215368,1.0384760720707085,stand
23/10/2020, 15:17:35,2.0237916,1.6741188,3.7218604,-1.2282737,-0.07215616,-0.06122838,4.555288219215368,1.2319138887907952,stand
23/10/2020, 15:17:35,1.5016773,1.3771362,18.764978,-1.2282737,-0.07215616,-0.06122838,18.875273601139348,1.2319138887907952,stand
23/10/2020, 15:17:35,1.5016773,1.3771362,18.764978,-0.693156,-0.17478149,-0.014802639,18.875273601139348,0.7150055467844585,stand
23/10/2020, 15:17:35,-4.641548,0.6346802,15.067068,-0.693156,-0.17478149,-0.014802639,15.77857184258284,0.7150055467844585,stand
23/10/2020, 15:17:35,-4.641548,0.6346802,15.067068,-0.63695645,0.18318541,-0.024576478,15.77857184258284,0.6632302936375124,stand
23/10/2020, 15:17:35,-3.9877076,0.6993457,0.7065308,-0.63695645,0.18318541,-0.024576478,4.1097545213436675,0.6632302936375124,stand
23/10/2020, 15:17:35,-3.9877076,0.6993457,0.7065308,-0.38283664,0.013364935,0.045062132,4.1097545213436675,0.38571117443946124,stand
23/10/2020, 15:17:35,2.0381618,1.84177,4.8523097,-0.38283664,0.013364935,0.045062132,5.575942048443086,0.38571117443946124,stand
23/10/2020, 15:17:35,2.0381618,1.84177,4.8523097,-0.5050096,-0.29084584,0.041396942,5.575942048443086,0.5842428413928888,stand
23/10/2020, 15:17:35,0.73527104,2.078877,18.38417,-0.5050096,-0.29084584,0.041396942,18.51594121617435,0.5842428413928888,stand
23/10/2020, 15:17:35,0.73527104,2.078877,18.38417,-0.27654612,-0.2517505,0.042618673,18.51594121617435,0.37639397166834115,stand
23/10/2020, 15:17:35,-5.245093,1.456172,13.749807,-0.27654612,-0.2517505,0.042618673,14.788124912966621,0.37639397166834115,stand
23/10/2020, 15:17:35,-5.245093,1.456172,13.749807,-0.3865018,0.09888604,0.021849263,14.788124912966621,0.399549086787917,stand
23/10/2020, 15:17:35,-4.414021,1.3004956,-0.16046631,-0.3865018,0.09888604,0.021849263,4.6044130819807565,0.399549086787917,stand
23/10/2020, 15:17:35,-4.414021,1.3004956,-0.16046631,-0.39749736,-0.08803865,0.11103555,4.6044130819807565,0.42199981679692217,stand
23/10/2020, 15:17:35,1.5423926,1.8609302,4.3397756,-0.39749736,-0.08803865,0.11103555,4.967462946480371,0.42199981679692217,stand
23/10/2020, 15:17:35,1.5423926,1.8609302,4.3397756,-0.58442205,-0.39957982,0.14646573,4.967462946480371,0.7229560020153043,stand
23/10/2020, 15:17:35,0.81909674,1.6836988,18.743423,-0.58442205,-0.39957982,0.14646573,18.83671107460791,0.7229560020153043,stand
23/10/2020, 15:17:35,0.81909674,1.6836988,18.743423,-0.42193198,-0.31039354,0.17945243,18.83671107460791,0.5536911815711096,stand
23/10/2020, 15:17:35,-4.878655,1.0753639,15.237115,-0.42193198,-0.31039354,0.17945243,16.035191059611606,0.5536911815711096,stand
23/10/2020, 15:17:35,-4.878655,1.0753639,15.237115,-0.2533332,0.0011476353,0.15868303,16.035191059611606,0.29893032200652603,stand
23/10/2020, 15:17:35,-4.5768824,0.93405765,1.7890797,-0.2533332,0.0011476353,0.15868303,5.002111745028974,0.29893032200652603,stand
23/10/2020, 15:17:35,-4.5768824,0.93405765,1.7890797,-0.0016568489,-0.16622938,0.22587818,5.002111745028974,0.2804565998907714,stand
23/10/2020, 15:17:35,1.3531861,1.2981006,4.150569,-0.0016568489,-0.16622938,0.22587818,4.554492348940434,0.2804565998907714,stand
23/10/2020, 15:17:35,1.3531861,1.2981006,4.150569,-0.2484463,-0.44844902,0.23198684,4.554492348940434,0.5627166034462169,stand
23/10/2020, 15:17:35,1.7627344,1.3939015,17.826132,-0.2484463,-0.44844902,0.23198684,17.96722487197488,0.5627166034462169,stand
23/10/2020, 15:17:36,-0.48139894,1.7004639,9.632769,-0.11039082,-0.07826482,-0.052676268,9.793546542608103,0.14521123899140756,stand
23/10/2020, 15:17:36,-0.48139894,1.7004639,9.632769,-0.17758597,-0.061160598,-0.07466742,9.793546542608103,0.20212031098110514,stand
23/10/2020, 15:17:36,-0.4406836,1.8130299,9.524993,-0.17758597,-0.061160598,-0.07466742,9.706017203969367,0.20212031098110514,stand
23/10/2020, 15:17:36,-0.4406836,1.8130299,9.524993,-0.23012036,-0.033060808,-0.09177163,9.706017203969367,0.24994085301487987,stand
23/10/2020, 15:17:36,-0.33769777,1.7387843,9.405242,-0.23012036,-0.033060808,-0.09177163,9.570579246742689,0.24994085301487987,stand
23/10/2020, 15:17:36,-0.33769777,1.7387843,9.405242,-0.26677227,-0.007404475,-0.10643239,9.570579246742689,0.28731537501505633,stand
23/10/2020, 15:17:36,-0.31374758,1.6860938,9.438772,-0.26677227,-0.007404475,-0.10643239,9.593319057878539,0.28731537501505633,stand
23/10/2020, 15:17:36,-0.31374758,1.6860938,9.438772,-0.27898955,0.015808396,-0.13819736,9.593319057878539,0.31174282237310363,stand
23/10/2020, 15:17:36,-0.2562671,1.6813037,9.477093,-0.27898955,0.015808396,-0.13819736,9.62848596350218,0.31174282237310363,stand
23/10/2020, 15:17:36,-0.2562671,1.6813037,9.477093,-0.28021127,0.036577806,-0.1846231,9.62848596350218,0.3375529342060362,stand
23/10/2020, 15:17:36,-0.20118165,1.7268091,9.469908,-0.28021127,0.036577806,-0.1846231,9.628161655834736,0.3375529342060362,stand
23/10/2020, 15:17:36,-0.20118165,1.7268091,9.469908,-0.29853725,0.052460294,-0.24326615,9.628161655834736,0.38865794035759726,stand
23/10/2020, 15:17:36,-0.17723145,1.8896705,9.268726,-0.29853725,0.052460294,-0.24326615,9.461054575530518,0.38865794035759726,stand
23/10/2020, 15:17:36,-0.17723145,1.8896705,9.268726,-0.36206722,0.07078625,-0.30679613,9.461054575530518,0.4798200024792816,stand
23/10/2020, 15:17:36,-0.19878663,2.0166066,9.0148535,-0.36206722,0.07078625,-0.30679613,9.239794445790247,0.4798200024792816,stand
23/10/2020, 15:17:36,-0.19878663,2.0166066,9.0148535,-0.46835774,0.09155566,-0.38009992,9.239794445790247,0.6100961929765816,stand
23/10/2020, 15:17:36,-0.16765137,2.1674929,8.6077,-0.46835774,0.09155566,-0.38009992,8.877986122289327,0.6100961929765816,stand
23/10/2020, 15:17:36,-0.16765137,2.1674929,8.6077,-0.63695645,0.10377296,-0.47417313,8.877986122289327,0.8008261401038234,stand
23/10/2020, 15:17:36,-0.098195806,2.3375392,8.047266,-0.63695645,0.10377296,-0.47417313,8.380466698706671,0.8008261401038234,stand
23/10/2020, 15:17:36,-0.098195806,2.3375392,8.047266,-0.9032936,0.1135468,-0.58168536,8.380466698706671,1.080365718061962,stand
23/10/2020, 15:17:36,-0.098195806,2.548301,7.5012016,-0.9032936,0.1135468,-0.58168536,7.9228471017218585,1.080365718061962,stand
23/10/2020, 15:17:36,-0.098195806,2.548301,7.5012016,-1.2575953,0.13675967,-0.6940845,7.9228471017218585,1.4429145765518385,stand
23/10/2020, 15:17:36,-0.011975098,2.4740553,6.871311,-1.2575953,0.13675967,-0.6940845,7.303150718756652,1.4429145765518385,stand
23/10/2020, 15:17:36,-0.011975098,2.4740553,6.871311,-1.6509924,0.15630735,-0.81625754,7.303150718756652,1.8483734033507988,stand
23/10/2020, 15:17:36,0.13651612,2.1291726,6.224656,-1.6509924,0.15630735,-0.81625754,6.580148636887426,1.8483734033507988,stand
23/10/2020, 15:17:36,0.13651612,2.1291726,6.224656,-2.019955,0.15386389,-0.96408683,6.580148636887426,2.2435140722315756,stand
23/10/2020, 15:17:36,0.2706372,1.7507594,5.745652,-2.019955,0.15386389,-0.96408683,6.012563682733163,2.2435140722315756,stand
23/10/2020, 15:17:36,0.2706372,1.7507594,5.745652,-2.3559308,0.12332064,-1.1339073,6.012563682733163,2.6175109827910115,stand
23/10/2020, 15:17:36,0.4047583,1.3747413,5.257068,-2.3559308,0.12332064,-1.1339073,5.448899758651566,2.6175109827910115,stand
23/10/2020, 15:17:36,0.4047583,1.3747413,5.257068,-2.6613631,0.06589933,-1.2988409,5.448899758651566,2.9621249190794803,stand
23/10/2020, 15:17:37,12.116405,-3.056045,3.178191,1.0526962,1.4708889,2.4433181,12.89370264470796,3.0399813887709652,stand
23/10/2020, 15:17:37,10.399176,-2.6776319,2.7063723,1.0526962,1.4708889,2.4433181,11.074159888653126,3.0399813887709652,stand
23/10/2020, 15:17:37,10.399176,-2.6776319,2.7063723,0.9903879,1.4757758,2.5862606,11.074159888653126,3.138076834400273,stand
23/10/2020, 15:17:37,9.172925,-2.4668703,2.327959,0.9903879,1.4757758,2.5862606,9.779948643827531,3.138076834400273,stand
23/10/2020, 15:17:37,9.172925,-2.4668703,2.327959,0.93296665,1.4488977,2.7279813,9.779948643827531,3.226703193904109,stand
23/10/2020, 15:17:37,8.372989,-2.299219,2.0573218,0.93296665,1.4488977,2.7279813,8.923335712488795,3.226703193904109,stand
23/10/2020, 15:17:37,8.372989,-2.299219,2.0573218,0.9024234,1.4085807,2.8452673,8.923335712488795,3.300608038350986,stand
23/10/2020, 15:17:37,7.95865,-2.3710694,1.9447559,0.9024234,1.4085807,2.8452673,8.529018549183354,3.300608038350986,stand
23/10/2020, 15:17:37,7.95865,-2.3710694,1.9447559,0.9195276,1.3804809,2.9564447,8.529018549183354,3.3899592869153357,stand
23/10/2020, 15:17:37,7.661668,-2.550696,1.7339942,0.9195276,1.3804809,2.9564447,8.259173048210096,3.3899592869153357,stand
23/10/2020, 15:17:37,7.661668,-2.550696,1.7339942,0.9964966,1.312064,3.0529616,8.259173048210096,3.469163017512805,stand
23/10/2020, 15:17:37,7.798184,-2.7758276,1.6621436,0.9964966,1.312064,3.0529616,8.442725439572696,3.469163017512805,stand
23/10/2020, 15:17:37,7.798184,-2.7758276,1.6621436,1.1333303,1.2094387,3.1238217,8.442725439572696,3.53630341320542,stand
23/10/2020, 15:17:37,8.353828,-2.8380983,1.463357,1.1333303,1.2094387,3.1238217,8.943302799163934,3.53630341320542,stand
23/10/2020, 15:17:37,8.353828,-2.8380983,1.463357,1.275051,1.1202524,3.159252,8.943302799163934,3.586306340489626,stand
23/10/2020, 15:17:37,9.105865,-2.7207422,1.3555812,1.275051,1.1202524,3.159252,9.599833711911348,3.586306340489626,stand
23/10/2020, 15:17:37,9.105865,-2.7207422,1.3555812,1.4118848,1.0445051,3.1470346,9.599833711911348,3.603919622701641,stand
23/10/2020, 15:17:37,9.800421,-2.5962012,1.3843213,1.4118848,1.0445051,3.1470346,10.232538942965093,3.603919622701641,stand
23/10/2020, 15:17:37,9.800421,-2.5962012,1.3843213,1.4497584,0.97120124,3.063957,10.232538942965093,3.5260266093189965,stand
23/10/2020, 15:17:37,10.406361,-2.196233,1.2693604,1.4497584,0.97120124,3.063957,10.711071697401708,3.5260266093189965,stand
23/10/2020, 15:17:37,10.406361,-2.196233,1.2693604,1.3874502,0.93943626,2.9100192,10.711071697401708,3.357941347958349,stand
23/10/2020, 15:17:37,10.938055,-2.1291726,1.4944923,1.3874502,0.93943626,2.9100192,11.24312816975997,3.357941347958349,stand
23/10/2020, 15:17:37,10.938055,-2.1291726,1.4944923,1.3960023,0.9321059,2.7670767,11.24312816975997,3.236411197832897,stand
23/10/2020, 15:17:37,11.441009,-2.680027,1.7387843,1.3960023,0.9321059,2.7670767,11.878661233508312,3.236411197832897,stand
23/10/2020, 15:17:37,11.441009,-2.680027,1.7387843,1.4314325,0.93821454,2.588704,11.878661233508312,3.103326352431057,stand
23/10/2020, 15:17:37,11.879297,-3.06323,1.7363893,1.4314325,0.93821454,2.588704,12.390162601873559,3.103326352431057,stand
23/10/2020, 15:17:37,11.879297,-3.06323,1.7363893,1.5181754,0.89301056,2.3675709,12.390162601873559,2.950883960241437,stand
23/10/2020, 15:17:37,12.207415,-3.3530276,1.8537452,1.5181754,0.89301056,2.3675709,12.794535442623168,2.950883960241437,stand
23/10/2020, 15:17:37,12.207415,-3.3530276,1.8537452,1.6757785,0.8294806,2.1378856,12.794535442623168,2.840215901609486,stand
23/10/2020, 15:17:37,12.712764,-3.6907253,1.8896705,1.6757785,0.8294806,2.1378856,13.371861167690804,2.840215901609486,stand
23/10/2020, 15:17:38,9.560919,-3.4631984,2.7734327,1.7759603,0.63278204,0.2845212,10.540248616112393,1.9066726257550983,stand
23/10/2020, 15:17:38,9.766891,-3.6859353,2.7518775,1.7759603,0.63278204,0.2845212,10.795883442578713,1.9066726257550983,stand
23/10/2020, 15:17:38,9.766891,-3.6859353,2.7518775,1.8358251,0.7085293,0.3737075,10.795883442578713,2.002978982097352,stand
23/10/2020, 15:17:38,9.891431,-3.8368216,2.560276,1.8358251,0.7085293,0.3737075,10.91405595395074,2.002978982097352,stand
23/10/2020, 15:17:38,9.891431,-3.8368216,2.560276,1.8969116,0.76839405,0.45311996,10.91405595395074,2.096191980744502,stand
23/10/2020, 15:17:38,9.972861,-3.8176613,2.3638844,1.8969116,0.76839405,0.45311996,10.937113407450589,2.096191980744502,stand
23/10/2020, 15:17:38,9.972861,-3.8176613,2.3638844,1.9445591,0.8148198,0.5215369,10.937113407450589,2.1719213002141706,stand
23/10/2020, 15:17:38,10.071057,-3.6811452,2.179468,1.9445591,0.8148198,0.5215369,10.941988203847636,2.1719213002141706,stand
23/10/2020, 15:17:38,10.071057,-3.6811452,2.179468,1.9726589,0.8514717,0.588732,10.941988203847636,2.227777478558816,stand
23/10/2020, 15:17:38,10.140513,-3.5566041,2.0333717,1.9726589,0.8514717,0.588732,10.936820648557532,2.227777478558816,stand
23/10/2020, 15:17:38,10.140513,-3.5566041,2.0333717,1.9689937,0.88568014,0.6608141,10.936820648557532,2.2578841068736937,stand
23/10/2020, 15:17:38,10.346485,-3.4871485,1.8369801,1.9689937,0.88568014,0.6608141,11.071786460978252,2.2578841068736937,stand
23/10/2020, 15:17:38,10.346485,-3.4871485,1.8369801,1.9335635,0.91011477,0.73656136,11.071786460978252,2.260420141390972,stand
23/10/2020, 15:17:38,10.535691,-3.3793726,1.6214283,1.9335635,0.91011477,0.73656136,11.182574796300777,2.260420141390972,stand
23/10/2020, 15:17:38,10.535691,-3.3793726,1.6214283,1.8859161,0.92966247,0.80619997,11.182574796300777,2.2518681749720932,stand
23/10/2020, 15:17:38,10.796748,-3.3362625,1.5064673,1.8859161,0.92966247,0.80619997,11.400432533229315,2.2518681749720932,stand
23/10/2020, 15:17:38,10.796748,-3.3362625,1.5064673,1.8321599,0.95409703,0.864843,11.400432533229315,2.239433945277992,stand
23/10/2020, 15:17:38,11.029065,-3.2356715,1.3867164,1.8321599,0.95409703,0.864843,11.577254862663937,2.239433945277992,stand
23/10/2020, 15:17:38,11.029065,-3.2356715,1.3867164,1.7722951,0.99441415,0.9149339,11.577254862663937,2.228675293536589,stand
23/10/2020, 15:17:38,11.1176815,-3.1039455,1.3627661,1.7722951,0.99441415,0.9149339,11.623013860744498,2.228675293536589,stand
23/10/2020, 15:17:38,11.1176815,-3.1039455,1.3627661,1.7051,1.0530572,0.9638031,11.623013860744498,2.2237832866396725,stand
23/10/2020, 15:17:38,11.064991,-3.04886,1.3052857,1.7051,1.0530572,0.9638031,11.551335171928434,2.2237832866396725,stand
23/10/2020, 15:17:38,11.064991,-3.04886,1.3052857,1.6244658,1.1055917,1.0163375,11.551335171928434,2.2122757649038776,stand
23/10/2020, 15:17:38,10.897339,-3.0201197,1.219065,1.6244658,1.1055917,1.0163375,11.373620203974399,2.2122757649038776,stand
23/10/2020, 15:17:38,10.897339,-3.0201197,1.219065,1.5255057,1.1373566,1.0676502,11.373620203974399,2.181885559795367,stand
23/10/2020, 15:17:38,10.703342,-3.032095,1.0274634,1.5255057,1.1373566,1.0676502,11.17187630933242,2.181885559795367,stand
23/10/2020, 15:17:38,10.703342,-3.032095,1.0274634,1.4204369,1.1410218,1.1177411,11.17187630933242,2.1375024940672147,stand
23/10/2020, 15:17:38,10.624307,-3.168611,0.84065187,1.4204369,1.1410218,1.1177411,11.118573827372394,2.1375024940672147,stand
23/10/2020, 15:17:38,10.624307,-3.168611,0.84065187,1.3275855,1.1068133,1.1629452,11.118573827372394,2.0832571329488965,stand
23/10/2020, 15:17:38,10.854229,-3.4943337,0.76161623,1.3275855,1.1068133,1.1629452,11.428241955933828,2.0832571329488965,stand
23/10/2020, 15:17:39,13.776153,-1.7914747,3.0416749,0.7741417,-1.5724406,-1.5773953,14.221235820548873,2.357973903270703,stand
23/10/2020, 15:17:39,13.776153,-1.7914747,3.0416749,0.47237438,-1.2938862,-1.5456303,14.221235820548873,2.070326580142022,stand
23/10/2020, 15:17:39,13.43127,-1.9399658,3.3482375,0.47237438,-1.2938862,-1.5456303,13.977595151714086,2.070326580142022,stand
23/10/2020, 15:17:39,13.43127,-1.9399658,3.3482375,0.1632767,-1.0935224,-1.493096,13.977595151714086,1.857898337504436,stand
23/10/2020, 15:17:39,12.71995,-1.9399658,3.7625759,0.1632767,-1.0935224,-1.493096,13.405878022434273,1.857898337504436,stand
23/10/2020, 15:17:39,12.71995,-1.9399658,3.7625759,-0.1299385,-0.9591322,-1.4307877,13.405878022434273,1.7274177179682226,stand
23/10/2020, 15:17:39,11.8002615,-1.9184108,4.3493557,-0.1299385,-0.9591322,-1.4307877,12.7217674207308,1.7274177179682226,stand
23/10/2020, 15:17:39,11.8002615,-1.9184108,4.3493557,-0.34740645,-0.82718533,-1.3709229,12.7217674207308,1.6384005844657643,stand
23/10/2020, 15:17:39,11.05541,-1.8681153,4.6128078,-0.34740645,-0.82718533,-1.3709229,12.123941146539618,1.6384005844657643,stand
23/10/2020, 15:17:39,11.05541,-1.8681153,4.6128078,-0.5086748,-0.7050123,-1.3110582,12.123941146539618,1.573107095667711,stand
23/10/2020, 15:17:39,10.37283,-1.9279908,4.5457473,-0.5086748,-0.7050123,-1.3110582,11.4881058994153,1.573107095667711,stand
23/10/2020, 15:17:39,10.37283,-1.9279908,4.5457473,-0.6418434,-0.5999436,-1.2328675,11.4881058994153,1.5138881865023797,stand
23/10/2020, 15:17:39,9.575289,-1.9112257,4.3254056,-0.6418434,-0.5999436,-1.2328675,10.679329204098302,1.5138881865023797,stand
23/10/2020, 15:17:39,9.575289,-1.9112257,4.3254056,-0.73958176,-0.52541804,-1.1033641,10.679329204098302,1.4284458913579132,stand
23/10/2020, 15:17:39,8.933423,-1.9830762,3.9733377,-0.73958176,-0.52541804,-1.1033641,9.976274385240256,1.4284458913579132,stand
23/10/2020, 15:17:39,8.933423,-1.9830762,3.9733377,-0.78722924,-0.480214,-0.940874,9.976274385240256,1.3174138336131596,stand
23/10/2020, 15:17:39,8.514295,-2.3543043,3.6404297,-0.78722924,-0.480214,-0.940874,9.554511521160954,1.3174138336131596,stand
23/10/2020, 15:17:39,8.514295,-2.3543043,3.6404297,-0.7957814,-0.42767963,-0.786936,9.554511521160954,1.1981010408631596,stand
23/10/2020, 15:17:39,8.377779,-2.7159522,3.4943337,-0.7957814,-0.42767963,-0.786936,9.47491137312805,1.1981010408631596,stand
23/10/2020, 15:17:39,8.377779,-2.7159522,3.4943337,-0.7481339,-0.34948888,-0.71241045,9.47491137312805,1.0905849157399081,stand
23/10/2020, 15:17:39,8.425679,-3.0033545,3.4655933,-0.7481339,-0.34948888,-0.71241045,9.592838257295941,1.0905849157399081,stand
23/10/2020, 15:17:39,8.425679,-3.0033545,3.4655933,-0.6320695,-0.25785914,-0.6904193,9.592838257295941,0.9709181515832432,stand
23/10/2020, 15:17:39,8.440049,-3.3147073,3.535049,-0.6320695,-0.25785914,-0.6904193,9.732331967440306,0.9709181515832432,stand
23/10/2020, 15:17:39,8.440049,-3.3147073,3.535049,-0.49401402,-0.20654647,-0.59512436,9.732331967440306,0.800552502729396,stand
23/10/2020, 15:17:39,8.487949,-3.276387,3.4703834,-0.49401402,-0.20654647,-0.59512436,9.737738809956893,0.800552502729396,stand
23/10/2020, 15:17:39,8.487949,-3.276387,3.4703834,-0.43659276,-0.21265511,-0.50471634,9.737738809956893,0.7004098895356827,stand
23/10/2020, 15:17:39,8.868757,-2.8788135,3.6188745,-0.43659276,-0.21265511,-0.50471634,10.001933579455999,0.7004098895356827,stand
23/10/2020, 15:17:39,8.868757,-2.8788135,3.6188745,-0.45491868,-0.20288128,-0.45584717,10.001933579455999,0.6752099422647189,stand
23/10/2020, 15:17:39,9.172925,-2.6704469,3.7027004,-0.45491868,-0.20288128,-0.45584717,10.246161698403416,0.6752099422647189,stand
23/10/2020, 15:17:39,9.172925,-2.6704469,3.7027004,-0.5135617,-0.14545996,-0.4191953,10.246161698403416,0.6786965022961547,stand
23/10/2020, 15:17:40,8.372989,-2.4884255,1.1903248,-0.4915706,-0.7709858,-0.30068746,8.815672084988648,0.9625350242863981,stand
23/10/2020, 15:17:40,8.372989,-2.4884255,1.1903248,-0.3913887,-0.84551126,-0.43263432,8.815672084988648,1.027252096937633,stand
23/10/2020, 15:17:40,8.873548,-2.550696,1.331631,-0.3913887,-0.84551126,-0.43263432,9.328404832673401,1.027252096937633,stand
23/10/2020, 15:17:40,8.873548,-2.550696,1.331631,-0.32785875,-0.9065978,-0.56091595,9.328404832673401,1.1153643419865478,stand
23/10/2020, 15:17:40,9.307046,-2.5914114,1.3555812,-0.32785875,-0.9065978,-0.56091595,9.755722277461189,1.1153643419865478,stand
23/10/2020, 15:17:40,9.307046,-2.5914114,1.3555812,-0.31441975,-0.9725712,-0.67820203,9.755722277461189,1.2266672337199134,stand
23/10/2020, 15:17:40,9.630374,-2.4788454,1.3052857,-0.31441975,-0.9725712,-0.67820203,10.029583618247935,1.2266672337199134,stand
23/10/2020, 15:17:40,9.630374,-2.4788454,1.3052857,-0.32297182,-1.0446532,-0.8101489,10.029583618247935,1.3608645375413577,stand
23/10/2020, 15:17:40,10.008787,-2.3974147,1.2765454,-0.32297182,-1.0446532,-0.8101489,10.370775557190326,1.3608645375413577,stand
23/10/2020, 15:17:40,10.008787,-2.3974147,1.2765454,-0.35962373,-1.1216222,-0.9604217,10.370775557190326,1.519794526795788,stand
23/10/2020, 15:17:40,10.473421,-2.2273684,1.2909156,-0.35962373,-1.1216222,-0.9604217,10.785183464684838,1.519794526795788,stand
23/10/2020, 15:17:40,10.473421,-2.2273684,1.2909156,-0.390167,-1.2108085,-1.1290205,10.785183464684838,1.7008746954861005,stand
23/10/2020, 15:17:40,11.136841,-2.0309765,1.5256275,-0.390167,-1.2108085,-1.1290205,11.422855526890208,1.7008746954861005,stand
23/10/2020, 15:17:40,11.136841,-2.0309765,1.5256275,-0.38772357,-1.2755601,-1.3135016,11.422855526890208,1.871542059139006,stand
23/10/2020, 15:17:40,11.833792,-1.8537452,1.8202149,-0.38772357,-1.2755601,-1.3135016,12.115617206219161,1.871542059139006,stand
23/10/2020, 15:17:40,11.833792,-1.8537452,1.8202149,-0.36084545,-1.285334,-1.4979829,12.115617206219161,2.006550660352871,stand
23/10/2020, 15:17:40,12.212205,-1.9208057,1.8202149,-0.36084545,-1.285334,-1.4979829,12.49562427423547,2.006550660352871,stand
23/10/2020, 15:17:40,12.212205,-1.9208057,1.8202149,-0.36695415,-1.2743385,-1.6812423,12.49562427423547,2.141300947197898,stand
23/10/2020, 15:17:40,12.535533,-1.9303858,1.5280225,-0.36695415,-1.2743385,-1.6812423,12.77500797121718,2.141300947197898,stand
23/10/2020, 15:17:40,12.535533,-1.9303858,1.5280225,-0.38283664,-1.335425,-1.8852713,12.77500797121718,2.3418308628638256,stand
23/10/2020, 15:17:40,12.961846,-1.7699195,1.0442286,-0.38283664,-1.335425,-1.8852713,13.123737623252357,2.3418308628638256,stand
23/10/2020, 15:17:40,12.961846,-1.7699195,1.0442286,-0.41460162,-1.497915,-2.1174,13.123737623252357,2.6265997810699004,stand
23/10/2020, 15:17:40,14.025235,-1.7028589,0.99393314,-0.41460162,-1.497915,-2.1174,14.163151250755083,2.6265997810699004,stand
23/10/2020, 15:17:40,14.025235,-1.7028589,0.99393314,-0.46347082,-1.6799529,-2.3544157,14.163151250755083,2.9292183063771975,stand
23/10/2020, 15:17:40,15.347286,-1.9711012,1.3651612,-0.46347082,-1.6799529,-2.3544157,15.533450978558204,2.9292183063771975,stand
23/10/2020, 15:17:40,15.347286,-1.9711012,1.3651612,-0.5098965,-1.7691392,-2.552336,15.533450978558204,3.1471045113372464,stand
23/10/2020, 15:17:40,16.525635,-2.6321266,2.2225783,-0.5098965,-1.7691392,-2.552336,16.88089301335698,3.1471045113372464,stand
23/10/2020, 15:17:40,16.525635,-2.6321266,2.2225783,-0.48301846,-1.7166047,-2.6903913,16.88089301335698,3.227730459352526,stand
23/10/2020, 15:17:40,16.700472,-3.4775686,3.403323,-0.48301846,-1.7166047,-2.6903913,17.394880036998046,3.227730459352526,stand
23/10/2020, 15:17:40,16.700472,-3.4775686,3.403323,-0.29975897,-1.5418973,-2.7551432,17.394880036998046,3.171453385694085,stand
23/10/2020, 15:17:41,8.720266,-3.3745828,-0.34009278,1.5951443,0.46907023,1.4378344,9.356629576437633,2.1981537332771124,stand
23/10/2020, 15:17:41,8.6077,-3.1997461,-0.4742139,1.5951443,0.46907023,1.4378344,9.195420567274942,2.1981537332771124,stand
23/10/2020, 15:17:41,8.6077,-3.1997461,-0.4742139,1.4570888,0.48983964,1.3633089,9.195420567274942,2.0546683196364453,stand
23/10/2020, 15:17:41,8.5430355,-3.1111305,-0.57959473,1.4570888,0.48983964,1.3633089,9.110352274670078,2.0546683196364453,stand
23/10/2020, 15:17:41,8.5430355,-3.1111305,-0.57959473,1.2970421,0.5008352,1.2887833,9.110352274670078,1.895815548355045,stand
23/10/2020, 15:17:41,8.487949,-3.06323,-0.6179151,1.2970421,0.5008352,1.2887833,9.044914695975008,1.895815548355045,stand
23/10/2020, 15:17:41,8.487949,-3.06323,-0.6179151,1.1272217,0.49961346,1.2069274,9.044914695975008,1.7253742133889456,stand
23/10/2020, 15:17:41,8.538245,-3.0201197,-0.60594,1.1272217,0.49961346,1.2069274,9.076889179791367,1.7253742133889456,stand
23/10/2020, 15:17:41,8.538245,-3.0201197,-0.60594,0.958623,0.48373097,1.1104107,9.076889179791367,1.544657112470617,stand
23/10/2020, 15:17:41,8.461604,-3.0416749,-0.57959473,0.958623,0.48373097,1.1104107,9.010352946237107,1.544657112470617,stand
23/10/2020, 15:17:41,8.461604,-3.0416749,-0.57959473,0.7973546,0.4556312,1.0151157,9.010352946237107,1.3688805912836894,stand
23/10/2020, 15:17:41,8.461604,-3.0416749,-0.57959473,0.65685564,0.42508793,0.9185991,9.010352946237107,1.2066413891255918,stand
23/10/2020, 15:17:41,8.370594,-3.06323,-0.5460645,0.65685564,0.42508793,0.9185991,8.93019647170659,1.2066413891255918,stand
23/10/2020, 15:17:41,8.262817,-3.0799952,-0.5029541,0.65685564,0.42508793,0.9185991,8.832524220790651,1.2066413891255918,stand
23/10/2020, 15:17:41,8.262817,-3.0799952,-0.5029541,0.5505651,0.35667107,0.82086074,8.832524220790651,1.0507847373315604,stand
23/10/2020, 15:17:41,8.121511,-3.1901662,-0.38080812,0.5505651,0.35667107,0.82086074,8.733906560729865,1.0507847373315604,stand
23/10/2020, 15:17:41,8.121511,-3.1901662,-0.38080812,0.4601571,0.28092378,0.7267875,8.733906560729865,0.9049214367859062,stand
23/10/2020, 15:17:41,8.040081,-3.319497,-0.2945874,0.4601571,0.28092378,0.7267875,8.703375532895846,0.9049214367859062,stand
23/10/2020, 15:17:41,8.040081,-3.319497,-0.2945874,0.40029234,0.19295925,0.62660563,8.703375532895846,0.7681808655807293,stand
23/10/2020, 15:17:41,8.006551,-3.410508,-0.2682422,0.40029234,0.19295925,0.62660563,8.706800426843827,0.7681808655807293,stand
23/10/2020, 15:17:41,8.006551,-3.410508,-0.2682422,0.3575318,0.11110334,0.5227586,8.706800426843827,0.6430003790542115,stand
23/10/2020, 15:17:41,8.080796,-3.527864,-0.21555176,0.3575318,0.11110334,0.5227586,8.819952081527093,0.6430003790542115,stand
23/10/2020, 15:17:41,8.080796,-3.527864,-0.21555176,0.33065373,0.032912616,0.4140246,8.819952081527093,0.5308780366603953,stand
23/10/2020, 15:17:41,8.054451,-3.5733693,-0.17962648,0.33065373,0.032912616,0.4140246,8.813365662669568,0.5308780366603953,stand
23/10/2020, 15:17:41,8.054451,-3.5733693,-0.17962648,0.31354952,-0.037947726,0.31139928,8.813365662669568,0.4435344887365967,stand
23/10/2020, 15:17:41,7.9826,-3.6404297,-0.14849122,0.31354952,-0.037947726,0.31139928,8.774775464079433,0.4435344887365967,stand
23/10/2020, 15:17:41,7.9826,-3.6404297,-0.14849122,0.31965816,-0.111251526,0.22465645,8.774775464079433,0.40623732085632763,stand
23/10/2020, 15:17:41,7.8652444,-3.661985,-0.035925295,0.31965816,-0.111251526,0.22465645,8.67602982226961,0.40623732085632763,stand
23/10/2020, 15:17:41,7.8652444,-3.661985,-0.035925295,0.3392058,-0.18699878,0.15013091,8.67602982226961,0.41541354349518306,stand
23/10/2020, 15:17:41,7.702383,-3.7338357,0.100590825,0.3392058,-0.18699878,0.15013091,8.560277568148614,0.41541354349518306,stand
23/10/2020, 15:17:42,13.067227,-4.160149,1.3531861,1.755191,0.79160696,1.810462,13.78007199503893,2.6429357853468454,stand
23/10/2020, 15:17:42,11.03625,-3.8799317,0.92926764,1.755191,0.79160696,1.810462,11.735255636340616,2.6429357853468454,stand
23/10/2020, 15:17:42,11.03625,-3.8799317,0.92926764,1.6965479,0.7818331,1.9863912,11.735255636340616,2.7267723819986016,stand
23/10/2020, 15:17:42,9.596844,-3.6021094,0.63707525,1.6965479,0.7818331,1.9863912,10.27036837733376,2.7267723819986016,stand
23/10/2020, 15:17:42,9.596844,-3.6021094,0.63707525,1.6269093,0.773281,2.1879766,10.27036837733376,2.834085177809697,stand
23/10/2020, 15:17:42,8.655601,-3.2668068,0.19160157,1.6269093,0.773281,2.1879766,9.25354845137589,2.834085177809697,stand
23/10/2020, 15:17:42,8.655601,-3.2668068,0.19160157,1.5572706,0.7305204,2.3871186,9.25354845137589,2.9422928244846958,stand
23/10/2020, 15:17:42,8.155042,-2.9171338,-0.25866213,1.5572706,0.7305204,2.3871186,8.664945516025012,2.9422928244846958,stand
23/10/2020, 15:17:42,8.155042,-2.9171338,-0.25866213,1.4827452,0.62911683,2.570378,8.664945516025012,3.0333421548418498,stand
23/10/2020, 15:17:42,8.159832,-2.7566676,-0.53169435,1.4827452,0.62911683,2.570378,8.629297393112354,3.0333421548418498,stand
23/10/2020, 15:17:42,8.159832,-2.7566676,-0.53169435,1.3911154,0.48739618,2.7218726,8.629297393112354,3.0953751703661085,stand
23/10/2020, 15:17:42,8.976534,-2.802173,-0.488584,1.3911154,0.48739618,2.7218726,9.416424372767418,3.0953751703661085,stand
23/10/2020, 15:17:42,8.976534,-2.802173,-0.488584,1.3043725,0.38843605,2.8257196,9.416424372767418,3.1363930781049376,stand
23/10/2020, 15:17:42,10.171648,-2.9794044,-0.23471193,1.3043725,0.38843605,2.8257196,10.60162082506977,3.1363930781049376,stand
23/10/2020, 15:17:42,10.171648,-2.9794044,-0.23471193,1.2518382,0.36888835,2.8941367,10.60162082506977,3.174776300684809,stand
23/10/2020, 15:17:42,11.163186,-3.1278956,0.1460962,1.2518382,0.36888835,2.8941367,11.594041497748107,3.174776300684809,stand
23/10/2020, 15:17:42,11.163186,-3.1278956,0.1460962,1.2628337,0.39943162,2.9307885,11.594041497748107,3.216180333520503,stand
23/10/2020, 15:17:42,11.829002,-3.1853762,0.5245093,1.2628337,0.39943162,2.9307885,12.261607914912524,3.216180333520503,stand
23/10/2020, 15:17:42,11.829002,-3.1853762,0.5245093,1.3312507,0.46296158,2.936897,12.261607914912524,3.25759512349086,stand
23/10/2020, 15:17:42,12.102035,-3.2644117,0.8262818,1.3312507,0.46296158,2.936897,12.561781958054429,3.25759512349086,stand
23/10/2020, 15:17:42,12.102035,-3.2644117,0.8262818,1.4314325,0.5411523,2.919793,12.561781958054429,3.296518662861171,stand
23/10/2020, 15:17:42,12.0253935,-3.2739918,0.974773,1.4314325,0.5411523,2.919793,12.50117167843023,3.296518662861171,stand
23/10/2020, 15:17:42,12.0253935,-3.2739918,0.974773,1.551162,0.6071257,2.8684802,12.50117167843023,3.3170595214260095,stand
23/10/2020, 15:17:42,11.754756,-3.2811768,0.99393314,1.551162,0.6071257,2.8684802,12.244521726965319,3.3170595214260095,stand
23/10/2020, 15:17:42,11.754756,-3.2811768,0.99393314,1.6647829,0.65355146,2.787846,12.244521726965319,3.312207325327459,stand
23/10/2020, 15:17:42,11.414663,-3.159031,0.9532178,1.6647829,0.65355146,2.787846,11.882030091314926,3.312207325327459,stand
23/10/2020, 15:17:42,11.414663,-3.159031,0.9532178,1.7515258,0.68165123,2.683999,11.882030091314926,3.2766357525877887,stand
23/10/2020, 15:17:42,11.160791,-3.0177248,0.6993457,1.7515258,0.68165123,2.683999,11.582703126214449,3.2766357525877887,stand
23/10/2020, 15:17:42,11.160791,-3.0177248,0.6993457,1.7832907,0.6938685,2.5716,11.582703126214449,3.2054181869259355,stand
23/10/2020, 15:17:42,11.064991,-2.8452833,0.44547364,1.7832907,0.6938685,2.5716,11.433639377795998,3.2054181869259355,stand
23/10/2020, 15:17:43,8.152647,-1.1543995,0.8095166,-0.03586529,0.2760369,0.66570103,8.27366960818022,0.7215542572959992,stand
23/10/2020, 15:17:43,7.8772197,-1.1112891,0.9316626,-0.03586529,0.2760369,0.66570103,8.009591040478886,0.7215542572959992,stand
23/10/2020, 15:17:43,7.8772197,-1.1112891,0.9316626,-0.024869718,0.21250694,0.70113117,8.009591040478886,0.7330502103216566,stand
23/10/2020, 15:17:43,7.8556643,-0.96758795,1.0274634,-0.024869718,0.21250694,0.70113117,7.9814389936242165,0.7330502103216566,stand
23/10/2020, 15:17:43,7.8556643,-0.96758795,1.0274634,-0.011430688,0.15142043,0.7243441,7.9814389936242165,0.7400899578077086,stand
23/10/2020, 15:17:43,8.1143265,-0.8143067,1.0490186,-0.011430688,0.15142043,0.7243441,8.222276424902947,0.7400899578077086,stand
23/10/2020, 15:17:43,8.1143265,-0.8143067,1.0490186,-0.026091449,0.10255123,0.7255658,8.222276424902947,0.733241594290535,stand
23/10/2020, 15:17:43,8.626861,-0.7592212,1.1424243,-0.026091449,0.10255123,0.7255658,8.73523178521376,0.733241594290535,stand
23/10/2020, 15:17:43,8.626861,-0.7592212,1.1424243,-0.0566347,0.0768949,0.7060181,8.73523178521376,0.7124477939544799,stand
23/10/2020, 15:17:43,9.22801,-0.8909473,1.1975098,-0.0566347,0.0768949,0.7060181,9.347940336606067,0.7124477939544799,stand
23/10/2020, 15:17:43,9.22801,-0.8909473,1.1975098,-0.08839968,0.07933836,0.67914003,9.347940336606067,0.6894492440976737,stand
23/10/2020, 15:17:43,9.721385,-1.0346485,1.2717555,-0.08839968,0.07933836,0.67914003,9.858660451522216,0.6894492440976737,stand
23/10/2020, 15:17:43,9.721385,-1.0346485,1.2717555,-0.11283428,0.10499469,0.64737505,9.858660451522216,0.6654696930131447,stand
23/10/2020, 15:17:43,10.025552,-1.4202466,1.3124708,-0.11283428,0.10499469,0.64737505,10.210355958819184,0.6654696930131447,stand
23/10/2020, 15:17:43,10.025552,-1.4202466,1.3124708,-0.13604715,0.14286833,0.607058,10.210355958819184,0.6383099468044197,stand
23/10/2020, 15:17:43,10.059082,-1.6429834,1.3627661,-0.13604715,0.14286833,0.607058,10.283076264172589,0.6383099468044197,stand
23/10/2020, 15:17:43,10.059082,-1.6429834,1.3627661,-0.13360369,0.17096812,0.56551915,10.283076264172589,0.6057160693032316,stand
23/10/2020, 15:17:43,10.075848,-1.6836988,1.2957057,-0.13360369,0.17096812,0.56551915,10.297397736102825,0.6057160693032316,stand
23/10/2020, 15:17:43,10.075848,-1.6836988,1.2957057,-0.09939525,0.17096812,0.52642375,10.297397736102825,0.5623446271863802,stand
23/10/2020, 15:17:43,10.142908,-1.7435743,1.2286451,-0.09939525,0.17096812,0.52642375,10.364757816961479,0.5623446271863802,stand
23/10/2020, 15:17:43,10.142908,-1.7435743,1.2286451,-0.052969508,0.15508562,0.49832395,10.364757816961479,0.5245799039725507,stand
23/10/2020, 15:17:43,10.461446,-1.7986598,1.1160791,-0.052969508,0.15508562,0.49832395,10.673455767624706,0.5245799039725507,stand
23/10/2020, 15:17:43,10.461446,-1.7986598,1.1160791,-0.018761069,0.1257641,0.48610666,10.673455767624706,0.5024622132169801,stand
23/10/2020, 15:17:43,10.8925495,-1.8705103,0.98914313,-0.018761069,0.1257641,0.48610666,11.096163661404532,0.5024622132169801,stand
23/10/2020, 15:17:43,10.8925495,-1.8705103,0.98914313,7.866118E-4,0.09277739,0.4922153,11.096163661404532,0.5008833888266186,stand
23/10/2020, 15:17:43,11.383529,-1.951941,0.88376224,7.866118E-4,0.09277739,0.4922153,11.583429340878146,0.5008833888266186,stand
23/10/2020, 15:17:43,11.383529,-1.951941,0.88376224,0.009338722,0.062234137,0.5080978,11.583429340878146,0.5119801771547122,stand
23/10/2020, 15:17:43,11.876903,-2.0070264,0.8765772,0.009338722,0.062234137,0.5080978,12.077141946359173,0.5119801771547122,stand
23/10/2020, 15:17:43,11.876903,-2.0070264,0.8765772,0.03621678,0.013364935,0.52520204,12.077141946359173,0.5266188899061298,stand
23/10/2020, 15:17:43,12.422967,-2.198628,1.0466236,0.03621678,0.013364935,0.52520204,12.659363878497917,0.5266188899061298,stand
23/10/2020, 15:17:44,10.756033,-0.33290774,0.366438,-1.2356042,-0.6365954,-1.2499716,10.767420724401237,1.8693315563818529,stand
23/10/2020, 15:17:44,10.724898,-0.7664063,1.0370435,-1.2356042,-0.6365954,-1.2499716,10.802142477409934,1.8693315563818529,stand
23/10/2020, 15:17:44,10.724898,-0.7664063,1.0370435,-1.3699944,-0.65736485,-1.2499716,10.802142477409934,1.9675980972766327,stand
23/10/2020, 15:17:44,10.763218,-1.2478052,1.7220191,-1.3699944,-0.65736485,-1.2499716,10.971291069597276,1.9675980972766327,stand
23/10/2020, 15:17:44,10.763218,-1.2478052,1.7220191,-1.3822118,-0.6830212,-1.2475282,10.971291069597276,1.9832685177316367,stand
23/10/2020, 15:17:44,10.653048,-1.949546,2.5075855,-1.3822118,-0.6830212,-1.2475282,11.116480425234688,1.9832685177316367,stand
23/10/2020, 15:17:44,10.653048,-1.949546,2.5075855,-1.2490432,-0.69646025,-1.2365327,11.116480425234688,1.8905499056012258,stand
23/10/2020, 15:17:44,10.468631,-2.574646,3.1231055,-1.2490432,-0.69646025,-1.2365327,11.22385053195915,1.8905499056012258,stand
23/10/2020, 15:17:44,10.468631,-2.574646,3.1231055,-0.9998102,-0.7050123,-1.2096546,11.22385053195915,1.7204438453152886,stand
23/10/2020, 15:17:44,10.27224,-2.8955786,3.439248,-0.9998102,-0.7050123,-1.2096546,11.213015254539723,1.7204438453152886,stand
23/10/2020, 15:17:44,10.27224,-2.8955786,3.439248,-0.71759063,-0.72578174,-1.1839982,11.213015254539723,1.5631849687348838,stand
23/10/2020, 15:17:44,9.975257,-3.056045,3.3985329,-0.71759063,-0.72578174,-1.1839982,10.972474089685276,1.5631849687348838,stand
23/10/2020, 15:17:44,9.975257,-3.056045,3.3985329,-0.46224904,-0.77587265,-1.180333,10.972474089685276,1.486216193957238,stand
23/10/2020, 15:17:44,9.656719,-3.1015503,3.403323,-0.46224904,-0.77587265,-1.180333,10.69833853333314,1.486216193957238,stand
23/10/2020, 15:17:44,9.656719,-3.1015503,3.403323,-0.2887634,-0.8381809,-1.1730027,10.69833853333314,1.4703288423884515,stand
23/10/2020, 15:17:44,9.457932,-3.2548318,3.3889527,-0.2887634,-0.8381809,-1.1730027,10.56084358641715,1.4703288423884515,stand
23/10/2020, 15:17:44,9.457932,-3.2548318,3.3889527,-0.16781214,-0.8736111,-1.144903,10.56084358641715,1.4498827564521606,stand
23/10/2020, 15:17:44,9.311836,-3.4057178,3.4943337,-0.16781214,-0.8736111,-1.144903,10.512829143346218,1.4498827564521606,stand
23/10/2020, 15:17:44,9.311836,-3.4057178,3.4943337,-0.07007373,-0.8736111,-1.1058075,10.512829143346218,1.4109985792277242,stand
23/10/2020, 15:17:44,9.3453665,-3.5182838,3.6931202,-0.07007373,-0.8736111,-1.1058075,10.646752224510083,1.4109985792277242,stand
23/10/2020, 15:17:44,9.3453665,-3.5182838,3.6931202,0.016669102,-0.8247419,-1.0459428,10.646752224510083,1.3320936027837216,stand
23/10/2020, 15:17:44,9.364527,-3.3769777,3.786526,0.016669102,-0.8247419,-1.0459428,10.650639341064805,1.3320936027837216,stand
23/10/2020, 15:17:44,9.364527,-3.3769777,3.786526,0.096081555,-0.7526598,-0.9799693,10.650639341064805,1.2393822290209893,stand
23/10/2020, 15:17:44,9.364527,-2.8883936,3.4775686,0.096081555,-0.7526598,-0.9799693,10.398589452432992,1.2393822290209893,stand
23/10/2020, 15:17:44,9.364527,-2.8883936,3.4775686,0.07653388,-0.6463693,-0.9139959,10.398589452432992,1.1220691703513272,stand
23/10/2020, 15:17:44,9.1849,-2.3471193,3.1853762,0.07653388,-0.6463693,-0.9139959,10.000899144898227,1.1220691703513272,stand
23/10/2020, 15:17:44,9.1849,-2.3471193,3.1853762,-0.0028785784,-0.5290832,-0.8590181,10.000899144898227,1.0088852189904027,stand
23/10/2020, 15:17:44,9.050779,-2.0142114,2.7279274,-0.0028785784,-0.5290832,-0.8590181,9.665156102791503,1.0088852189904027,stand
23/10/2020, 15:17:44,9.050779,-2.0142114,2.7279274,-0.1262733,-0.45333594,-0.7954881,9.665156102791503,0.9242617433847465,stand
23/10/2020, 15:17:44,9.096285,-1.9375709,2.3998096,-0.1262733,-0.45333594,-0.7954881,9.604981290325858,0.9242617433847465,stand
23/10/2020, 15:17:45,7.6185575,-2.3926246,0.852627,-0.62473917,0.013364935,-0.20783597,8.030818326236671,0.6585388701560525,stand
23/10/2020, 15:17:45,7.6185575,-2.3926246,0.852627,-0.5990828,-0.06726924,-0.32756552,8.030818326236671,0.6860936932593648,stand
23/10/2020, 15:17:45,7.9682302,-2.430945,0.85741705,-0.5990828,-0.06726924,-0.32756552,8.374804503492832,0.6860936932593648,stand
23/10/2020, 15:17:45,7.9682302,-2.430945,0.85741705,-0.5599874,-0.13202094,-0.45462546,8.374804503492832,0.7332801313802012,stand
23/10/2020, 15:17:45,8.322693,-2.4980054,0.847837,-0.5599874,-0.13202094,-0.45462546,8.730754554202836,0.7332801313802012,stand
23/10/2020, 15:17:45,8.322693,-2.4980054,0.847837,-0.525779,-0.19066398,-0.5853505,8.730754554202836,0.8095872667294731,stand
23/10/2020, 15:17:45,8.720266,-2.5315359,0.8286768,-0.525779,-0.19066398,-0.5853505,9.118027428124494,0.8095872667294731,stand
23/10/2020, 15:17:45,8.720266,-2.5315359,0.8286768,-0.5050096,-0.24808529,-0.7063018,9.118027428124494,0.9030189606460971,stand
23/10/2020, 15:17:45,9.12263,-2.335144,0.77359134,-0.5050096,-0.24808529,-0.7063018,9.44847720831726,0.9030189606460971,stand
23/10/2020, 15:17:45,9.12263,-2.335144,0.77359134,-0.49523574,-0.32261083,-0.81870097,9.44847720831726,1.0097561393239038,stand
23/10/2020, 15:17:45,9.623189,-2.1267774,0.43589357,-0.49523574,-0.32261083,-0.81870097,9.865036814637024,1.0097561393239038,stand
23/10/2020, 15:17:45,9.623189,-2.1267774,0.43589357,-0.51478344,-0.42767963,-0.9262132,9.865036814637024,1.14270851810833,stand
23/10/2020, 15:17:45,10.375225,-1.8441651,0.026345216,-0.51478344,-0.42767963,-0.9262132,10.53788091275227,1.14270851810833,stand
23/10/2020, 15:17:45,10.375225,-1.8441651,0.026345216,-0.57220477,-0.55473953,-1.0398341,10.53788091275227,1.31011804472559,stand
23/10/2020, 15:17:45,11.421848,-1.719624,-0.21555176,-0.57220477,-0.55473953,-1.0398341,11.5525836042355,1.31011804472559,stand
23/10/2020, 15:17:45,11.421848,-1.719624,-0.21555176,-0.6320695,-0.6622518,-1.1620071,11.5525836042355,1.4793071963126496,stand
23/10/2020, 15:17:45,12.372671,-1.829795,0.07185059,-0.6320695,-0.6622518,-1.1620071,12.507449903354315,1.4793071963126496,stand
23/10/2020, 15:17:45,12.372671,-1.829795,0.07185059,-0.68582565,-0.6524779,-1.2744063,12.507449903354315,1.5875124269323995,stand
23/10/2020, 15:17:45,12.741505,-2.2129982,0.38559815,-0.68582565,-0.6524779,-1.2744063,12.938005564624556,1.5875124269323995,stand
23/10/2020, 15:17:45,12.741505,-2.2129982,0.38559815,-0.7163689,-0.5449657,-1.3758099,12.938005564624556,1.6440878688031508,stand
23/10/2020, 15:17:45,12.482842,-2.3543043,0.51013917,-0.7163689,-0.5449657,-1.3758099,12.713156425033013,1.6440878688031508,stand
23/10/2020, 15:17:45,12.482842,-2.3543043,0.51013917,-0.68949085,-0.5290832,-1.4967611,12.713156425033013,1.7307860655159246,stand
23/10/2020, 15:17:45,12.008629,-2.1004322,0.31853762,-0.68949085,-0.5290832,-1.4967611,12.19509935209732,1.7307860655159246,stand
23/10/2020, 15:17:45,12.008629,-2.1004322,0.31853762,-0.6638345,-0.6756908,-1.6482557,12.19509935209732,1.9010474031066549,stand
23/10/2020, 15:17:45,12.418177,-1.7603394,-0.15567628,-0.6638345,-0.6756908,-1.6482557,12.543290683411927,1.9010474031066549,stand
23/10/2020, 15:17:45,12.418177,-1.7603394,-0.15567628,-0.70537335,-0.91514987,-1.8058589,12.543290683411927,2.143869638361006,stand
23/10/2020, 15:17:45,13.98452,-1.3867164,-0.60594,-0.70537335,-0.91514987,-1.8058589,14.066163087828613,2.143869638361006,stand
23/10/2020, 15:17:45,13.98452,-1.3867164,-0.60594,-0.7957814,-1.1729349,-2.0159965,14.066163087828613,2.464403774152811,stand
23/10/2020, 15:17:45,16.264578,-1.5567628,-0.852627,-0.7957814,-1.1729349,-2.0159965,16.36114226980438,2.464403774152811,stand
23/10/2020, 15:17:45,16.264578,-1.5567628,-0.852627,-0.9142892,-1.3342032,-2.2432382,16.36114226980438,2.76552719429035,stand
23/10/2020, 15:17:46,11.615846,-2.069297,1.8705103,-1.1280919,1.2521992,1.5685595,11.946073421165078,2.3023842349498476,stand
23/10/2020, 15:17:46,11.615846,-2.069297,1.8705103,-1.1940653,1.3035119,1.5673378,11.946073421165078,2.3625162028881204,stand
23/10/2020, 15:17:46,11.496095,-2.0213966,1.6046631,-1.1940653,1.3035119,1.5673378,11.782240091433234,2.3625162028881204,stand
23/10/2020, 15:17:46,11.496095,-2.0213966,1.6046631,-1.2527084,1.3780375,1.5587857,11.782240091433234,2.4285959793651126,stand
23/10/2020, 15:17:46,11.108101,-2.1195924,1.4585669,-1.2527084,1.3780375,1.5587857,11.40219254715988,2.4285959793651126,stand
23/10/2020, 15:17:46,11.108101,-2.1195924,1.4585669,-1.304021,1.4330152,1.5282423,11.40219254715988,2.4676969205314467,stand
23/10/2020, 15:17:46,10.454261,-2.203418,1.3004956,-1.304021,1.4330152,1.5282423,10.76280210934652,2.4676969205314467,stand
23/10/2020, 15:17:46,10.454261,-2.203418,1.3004956,-1.3101296,1.4415674,1.4879253,10.76280210934652,2.451219692535513,stand
23/10/2020, 15:17:46,9.944121,-2.339934,1.5256275,-1.3101296,1.4415674,1.4879253,10.329006754284624,2.451219692535513,stand
23/10/2020, 15:17:46,9.944121,-2.339934,1.5256275,-1.2698126,1.4244632,1.44883,10.329006754284624,2.395960697876351,stand
23/10/2020, 15:17:46,9.541759,-2.4189699,1.9040406,-1.2698126,1.4244632,1.44883,10.026063121955872,2.395960697876351,stand
23/10/2020, 15:17:46,9.541759,-2.4189699,1.9040406,-1.208726,1.3963634,1.4085128,10.026063121955872,2.3226617783942634,stand
23/10/2020, 15:17:46,9.419612,-2.5075855,2.0621119,-1.208726,1.3963634,1.4085128,9.963401999127006,2.3226617783942634,stand
23/10/2020, 15:17:46,9.419612,-2.5075855,2.0621119,-1.1403092,1.3597115,1.3779696,9.963401999127006,2.246757847348798,stand
23/10/2020, 15:17:46,9.4507475,-2.560276,1.954336,-1.1403092,1.3597115,1.3779696,9.984541594941875,2.246757847348798,stand
23/10/2020, 15:17:46,9.4507475,-2.560276,1.954336,-1.0682272,1.3364986,1.3266569,9.984541594941875,2.165030364016515,stand
23/10/2020, 15:17:46,9.529783,-2.5123756,1.7938697,-1.0682272,1.3364986,1.3266569,10.017323420662628,2.165030364016515,stand
23/10/2020, 15:17:46,9.529783,-2.5123756,1.7938697,-1.0303535,1.3291682,1.244801,10.017323420662628,2.0923303218060365,stand
23/10/2020, 15:17:46,9.445957,-2.3447242,1.5519727,-1.0303535,1.3291682,1.244801,9.855580043723053,2.0923303218060365,stand
23/10/2020, 15:17:46,9.445957,-2.3447242,1.5519727,-1.0352404,1.3450507,1.1482843,9.855580043723053,2.0492537534930575,stand
23/10/2020, 15:17:46,9.333391,-2.184258,1.2957057,-1.0352404,1.3450507,1.1482843,9.672746623272802,2.0492537534930575,stand
23/10/2020, 15:17:46,9.333391,-2.184258,1.2957057,-1.0621185,1.3755939,1.0346634,9.672746623272802,2.022593084019359,stand
23/10/2020, 15:17:46,9.134604,-2.2177882,1.1591895,-1.0621185,1.3755939,1.0346634,9.4711827840277,2.022593084019359,stand
23/10/2020, 15:17:46,9.134604,-2.2177882,1.1591895,-1.0902183,1.4000286,0.91982085,9.4711827840277,1.9986811610838697,stand
23/10/2020, 15:17:46,8.8951025,-2.320774,1.0825489,-1.0902183,1.4000286,0.91982085,9.256389839016212,1.9986811610838697,stand
23/10/2020, 15:17:46,8.8951025,-2.320774,1.0825489,-1.0951052,1.3865895,0.81475204,9.256389839016212,1.945689271997292,stand
23/10/2020, 15:17:46,8.638836,-2.5315359,1.089734,-1.0951052,1.3865895,0.81475204,9.067837656112497,1.945689271997292,stand
23/10/2020, 15:17:46,8.638836,-2.5315359,1.089734,-1.064562,1.3597115,0.7304527,9.067837656112497,1.8750116754202126,stand
23/10/2020, 15:17:46,8.428074,-2.6033864,1.099314,-1.064562,1.3597115,0.7304527,8.889237388624837,1.8750116754202126,stand
23/10/2020, 15:17:46,8.428074,-2.6033864,1.099314,-1.0095841,1.3242813,0.65104026,8.889237388624837,1.7879693682370863,stand
23/10/2020, 15:17:47,8.423284,-5.633086,3.4655933,-1.340673,-0.05871714,-0.31290478,10.709514629062543,1.3779554102829377,stand
23/10/2020, 15:17:47,8.382568,-5.8055277,3.7218604,-1.340673,-0.05871714,-0.31290478,10.854669452702337,1.3779554102829377,stand
23/10/2020, 15:17:47,8.382568,-5.8055277,3.7218604,-1.277143,-0.057495408,-0.27625287,10.854669452702337,1.3079432763678647,stand
23/10/2020, 15:17:47,8.356223,-5.9635987,3.9350173,-1.277143,-0.057495408,-0.27625287,10.994331990541927,1.3079432763678647,stand
23/10/2020, 15:17:47,8.356223,-5.9635987,3.9350173,-1.1952871,-0.056273676,-0.22982712,10.994331990541927,1.2184820489942527,stand
23/10/2020, 15:17:47,8.243657,-6.071375,4.040398,-1.1952871,-0.056273676,-0.22982712,11.006556802701006,1.2184820489942527,stand
23/10/2020, 15:17:47,8.243657,-6.071375,4.040398,-1.0951052,-0.045278106,-0.18217964,11.006556802701006,1.1110782446856908,stand
23/10/2020, 15:17:47,8.040081,-6.0282645,4.253555,-1.0951052,-0.045278106,-0.18217964,10.912176897597341,1.1110782446856908,stand
23/10/2020, 15:17:47,8.040081,-6.0282645,4.253555,-0.9851495,-0.034282535,-0.12964526,10.912176897597341,0.9942347449044222,stand
23/10/2020, 15:17:47,7.7359133,-6.0019193,4.2990603,-0.9851495,-0.034282535,-0.12964526,10.69342363276938,0.9942347449044222,stand
23/10/2020, 15:17:47,7.7359133,-6.0019193,4.2990603,-0.8861894,-0.042834647,-0.056341458,10.69342363276938,0.8890111481842841,stand
23/10/2020, 15:17:47,7.4772515,-6.013894,4.497847,-0.8861894,-0.042834647,-0.056341458,10.597492194586604,0.8890111481842841,stand
23/10/2020, 15:17:47,7.4772515,-6.013894,4.497847,-0.7933379,-0.05871714,0.020627532,10.597492194586604,0.7957752143846768,stand
23/10/2020, 15:17:47,7.575447,-6.05461,4.6918435,-0.7933379,-0.05871714,0.020627532,10.773072614320755,0.7957752143846768,stand
23/10/2020, 15:17:47,7.575447,-6.05461,4.6918435,-0.7041516,-0.05871714,0.08537922,10.773072614320755,0.711735026801946,stand
23/10/2020, 15:17:47,7.7215433,-5.9372535,4.8187795,-0.7041516,-0.05871714,0.08537922,10.867099222665152,0.711735026801946,stand
23/10/2020, 15:17:47,7.7215433,-5.9372535,4.8187795,-0.61985224,-0.05505195,0.15013091,10.867099222665152,0.6401459313797575,stand
23/10/2020, 15:17:47,7.9347,-5.8103175,4.854705,-0.61985224,-0.05505195,0.15013091,10.967561860851093,0.6401459313797575,stand
23/10/2020, 15:17:47,7.9347,-5.8103175,4.854705,-0.5416615,-0.039169457,0.22954337,10.967561860851093,0.5895944267209396,stand
23/10/2020, 15:17:47,8.250843,-5.7145166,4.878655,-0.5416615,-0.039169457,0.22954337,11.159452747223174,0.5895944267209396,stand
23/10/2020, 15:17:47,8.250843,-5.7145166,4.878655,-0.4891271,-0.011069665,0.33949906,11.159452747223174,0.5955060589209039,stand
23/10/2020, 15:17:47,8.456815,-5.5636306,4.718189,-0.4891271,-0.011069665,0.33949906,11.16839318909126,0.5955060589209039,stand
23/10/2020, 15:17:47,8.456815,-5.5636306,4.718189,-0.47690982,-0.0037392848,0.4592286,11.16839318909126,0.6620784445823376,stand
23/10/2020, 15:17:47,8.734636,-5.4606447,4.471502,-0.47690982,-0.0037392848,0.4592286,11.22973021858356,0.6620784445823376,stand
23/10/2020, 15:17:47,8.734636,-5.4606447,4.471502,-0.49034888,-0.002517555,0.5520801,11.22973021858356,0.7384042178232586,stand
23/10/2020, 15:17:47,9.038804,-5.357659,4.2799,-0.49034888,-0.002517555,0.5520801,11.345573227818319,0.7384042178232586,stand
23/10/2020, 15:17:47,9.038804,-5.357659,4.2799,-0.5098965,0.018251857,0.5923972,11.345573227818319,0.7818324923345125,stand
23/10/2020, 15:17:47,9.187295,-5.5636306,4.25595,-0.5098965,0.018251857,0.5923972,11.553072496305733,0.7818324923345125,stand
23/10/2020, 15:17:47,9.187295,-5.5636306,4.25595,-0.46835774,0.085447006,0.6217187,11.553072496305733,0.7830672467490083,stand
23/10/2020, 15:17:47,9.041199,-5.886958,4.394861,-0.46835774,0.085447006,0.6217187,11.649650448472702,0.7830672467490083,stand
23/10/2020, 15:17:48,10.87818,-4.703819,1.6166383,-2.8971572,-0.33849332,-1.4124618,11.961363676975866,3.2408557109572538,stand
23/10/2020, 15:17:48,10.87818,-4.703819,1.6166383,-2.9362524,-0.2774068,-1.3562622,11.961363676975866,3.2462254402659303,stand
23/10/2020, 15:17:48,10.583591,-4.629573,1.7962648,-2.9362524,-0.2774068,-1.3562622,11.690676638929943,3.2462254402659303,stand
23/10/2020, 15:17:48,10.583591,-4.629573,1.7962648,-2.988787,-0.21265511,-1.3037277,11.690676638929943,3.2676865792307126,stand
23/10/2020, 15:17:48,10.370435,-4.392466,1.6453785,-2.988787,-0.21265511,-1.3037277,11.381869161299829,3.2676865792307126,stand
23/10/2020, 15:17:48,10.370435,-4.392466,1.6453785,-3.051095,-0.13935131,-1.2854018,11.381869161299829,3.313737675488002,stand
23/10/2020, 15:17:48,10.047108,-4.296665,1.5328126,-3.051095,-0.13935131,-1.2854018,11.034274751309841,3.313737675488002,stand
23/10/2020, 15:17:48,10.047108,-4.296665,1.5328126,-3.1268423,-0.050165027,-1.3098364,11.034274751309841,3.3904764286926654,stand
23/10/2020, 15:17:48,9.596844,-4.232,1.336421,-3.1268423,-0.050165027,-1.3098364,10.573327453282692,3.3904764286926654,stand
23/10/2020, 15:17:48,9.596844,-4.232,1.336421,-3.2074766,0.051238567,-1.3342711,10.573327453282692,3.4743072589293,stand
23/10/2020, 15:17:48,9.137,-4.382886,1.1567944,-3.2074766,0.051238567,-1.3342711,10.19963886542976,3.4743072589293,stand
23/10/2020, 15:17:48,9.137,-4.382886,1.1567944,-3.2881107,0.13309447,-1.3599274,10.19963886542976,3.560728704667725,stand
23/10/2020, 15:17:48,8.749006,-4.5792775,1.1088941,-3.2881107,0.13309447,-1.3599274,9.937028703091988,3.560728704667725,stand
23/10/2020, 15:17:48,8.749006,-4.5792775,1.1088941,-3.3101017,0.17707676,-1.4039097,9.937028703091988,3.599873908264131,stand
23/10/2020, 15:17:48,8.49753,-5.0630717,1.1927198,-3.3101017,0.17707676,-1.4039097,9.963196861622704,3.599873908264131,stand
23/10/2020, 15:17:48,8.49753,-5.0630717,1.1927198,-3.2648978,0.20762001,-1.456444,9.963196861622704,3.5810463643108807,stand
23/10/2020, 15:17:48,8.464,-5.7145166,1.4418018,-3.2648978,0.20762001,-1.456444,10.313766749102163,3.5810463643108807,stand
23/10/2020, 15:17:48,8.464,-5.7145166,1.4418018,-3.1341727,0.252824,-1.4796569,10.313766749102163,3.47510330771009,stand
23/10/2020, 15:17:48,8.4304695,-6.1623855,1.8968556,-3.1341727,0.252824,-1.4796569,10.613475959913641,3.47510330771009,stand
23/10/2020, 15:17:48,8.4304695,-6.1623855,1.8968556,-2.9179265,0.30291495,-1.4857656,10.613475959913641,3.2883965946739067,stand
23/10/2020, 15:17:48,8.47837,-6.4042826,2.1052222,-2.9179265,0.30291495,-1.4857656,10.83187651516545,3.2883965946739067,stand
23/10/2020, 15:17:48,8.47837,-6.4042826,2.1052222,-2.6515894,0.34323204,-1.5016481,10.83187651516545,3.0665422651638945,stand
23/10/2020, 15:17:48,8.270002,-6.5240335,2.2441335,-2.6515894,0.34323204,-1.5016481,10.76996229688276,3.0665422651638945,stand
23/10/2020, 15:17:48,8.270002,-6.5240335,2.2441335,-2.3791435,0.35667107,-1.5102001,10.76996229688276,2.8404651735017636,stand
23/10/2020, 15:17:48,8.023315,-6.5719337,2.2321582,-2.3791435,0.35667107,-1.5102001,10.608790402734162,2.8404651735017636,stand
23/10/2020, 15:17:48,8.023315,-6.5719337,2.2321582,-2.1543453,0.31268877,-1.4894308,10.608790402734162,2.6376849487571494,stand
23/10/2020, 15:17:48,7.8891945,-6.4186525,2.2776637,-2.1543453,0.31268877,-1.4894308,10.422391376347038,2.6376849487571494,stand
23/10/2020, 15:17:48,7.8891945,-6.4186525,2.2776637,-1.9881898,0.24915884,-1.4503354,10.422391376347038,2.473550403860702,stand
23/10/2020, 15:17:48,8.044871,-6.365962,2.3135889,-1.9881898,0.24915884,-1.4503354,10.516564109586941,2.473550403860702,stand
23/10/2020, 15:17:48,8.044871,-6.365962,2.3135889,-1.8513561,0.20151137,-1.4063531,10.516564109586941,2.333657110177309,stand
23/10/2020, 15:17:49,8.411309,-2.8740237,1.3292359,-0.5062313,0.27970207,-0.17484927,8.987602759721304,0.6042149050764423,stand
23/10/2020, 15:17:49,8.411309,-2.8740237,1.3292359,-0.5795351,0.2858107,-0.21516636,8.987602759721304,0.6810618819004431,stand
23/10/2020, 15:17:49,8.674761,-2.7135572,1.0490186,-0.5795351,0.2858107,-0.21516636,9.14960699915141,0.6810618819004431,stand
23/10/2020, 15:17:49,8.674761,-2.7135572,1.0490186,-0.66872144,0.28947592,-0.26403558,9.14960699915141,0.7750480351274154,stand
23/10/2020, 15:17:49,8.760982,-2.42376,0.8430469,-0.66872144,0.28947592,-0.26403558,9.129082002349453,0.7750480351274154,stand
23/10/2020, 15:17:49,8.760982,-2.42376,0.8430469,-0.77256846,0.22594596,-0.33856112,9.129082002349453,0.8732337838381249,stand
23/10/2020, 15:17:49,8.947793,-2.4165747,0.6514453,-0.77256846,0.22594596,-0.33856112,9.291243946423569,0.8732337838381249,stand
23/10/2020, 15:17:49,8.947793,-2.4165747,0.6514453,-0.87275034,0.1013295,-0.4448516,9.291243946423569,0.9848115447952464,stand
23/10/2020, 15:17:49,9.5561285,-2.435735,0.7209009,-0.87275034,0.1013295,-0.4448516,9.887977294202514,0.9848115447952464,stand
23/10/2020, 15:17:49,9.5561285,-2.435735,0.7209009,-0.94238895,-0.023286965,-0.59268093,9.887977294202514,1.113512418089838,stand
23/10/2020, 15:17:49,10.432706,-2.574646,1.0035132,-0.94238895,-0.023286965,-0.59268093,10.792459995013761,1.113512418089838,stand
23/10/2020, 15:17:49,10.432706,-2.574646,1.0035132,-0.97171044,-0.075821355,-0.7698318,10.792459995013761,1.2420189322891415,stand
23/10/2020, 15:17:49,11.0051155,-2.6776319,1.3531861,-0.97171044,-0.075821355,-0.7698318,11.40672575378116,1.2420189322891415,stand
23/10/2020, 15:17:49,11.0051155,-2.6776319,1.3531861,-0.93017167,-0.06238233,-0.94820434,11.40672575378116,1.329737701798522,stand
23/10/2020, 15:17:49,11.02667,-2.926714,1.4394068,-0.93017167,-0.06238233,-0.94820434,11.498913324749306,1.329737701798522,stand
23/10/2020, 15:17:49,11.02667,-2.926714,1.4394068,-0.83732015,-0.09536903,-1.1021423,11.498913324749306,1.3874141446385901,stand
23/10/2020, 15:17:49,10.95961,-2.9746144,0.974773,-0.83732015,-0.09536903,-1.1021423,11.397875421889665,1.3874141446385901,stand
23/10/2020, 15:17:49,10.95961,-2.9746144,0.974773,-0.7652381,-0.267633,-1.2670759,11.397875421889665,1.5042267462258727,stand
23/10/2020, 15:17:49,11.682906,-2.7758276,0.31374758,-0.7652381,-0.267633,-1.2670759,12.012241789004857,1.5042267462258727,stand
23/10/2020, 15:17:49,11.682906,-2.7758276,0.31374758,-0.7652381,-0.51075727,-1.4576658,12.012241789004857,1.7237319783198994,stand
23/10/2020, 15:17:49,13.383369,-2.5770411,-0.28500733,-0.7652381,-0.51075727,-1.4576658,13.632202609411603,1.7237319783198994,stand
23/10/2020, 15:17:49,13.383369,-2.5770411,-0.28500733,-0.8519809,-0.69768196,-1.6885728,13.632202609411603,2.015914085141027,stand
23/10/2020, 15:17:49,15.581998,-2.6369166,-0.732876,-0.8519809,-0.69768196,-1.6885728,15.820527622441984,2.015914085141027,stand
23/10/2020, 15:17:49,15.581998,-2.6369166,-0.732876,-0.9814843,-0.7331121,-1.9390274,15.820527622441984,2.2935980760954915,stand
23/10/2020, 15:17:49,17.409397,-2.9817994,-0.5221143,-0.9814843,-0.7331121,-1.9390274,17.670620787914455,2.2935980760954915,stand
23/10/2020, 15:17:49,17.409397,-2.9817994,-0.5221143,-1.0767792,-0.5205311,-2.189482,17.670620787914455,2.494842179973798,stand
23/10/2020, 15:17:49,17.816551,-3.5781593,0.14849122,-1.0767792,-0.5205311,-2.189482,18.172913107538374,2.494842179973798,stand
23/10/2020, 15:17:49,17.816551,-3.5781593,0.14849122,-1.0804445,-0.123468824,-2.3971763,18.172913107538374,2.6323105477898503,stand
23/10/2020, 15:17:49,15.809525,-4.2128396,0.9412427,-1.0804445,-0.123468824,-2.3971763,16.388258644327685,2.6323105477898503,stand
23/10/2020, 15:17:49,15.809525,-4.2128396,0.9412427,-1.014471,0.18196368,-2.5450056,16.388258644327685,2.7457814190538037,stand
23/10/2020, 15:17:50,9.134604,-2.3375392,0.90771246,1.1773126,0.80748945,1.2264751,9.472540838335236,1.882111958979108,stand
23/10/2020, 15:17:50,9.134604,-2.3375392,0.90771246,0.96595335,0.8490283,1.1922667,9.472540838335236,1.7536860610784761,stand
23/10/2020, 15:17:50,8.938213,-2.2129982,0.8430469,0.96595335,0.8490283,1.1922667,9.246607310942661,1.7536860610784761,stand
23/10/2020, 15:17:50,8.938213,-2.2129982,0.8430469,0.72649425,0.88568014,1.1666104,9.246607310942661,1.6349932539042435,stand
23/10/2020, 15:17:50,8.722662,-2.095642,0.6730005,0.72649425,0.88568014,1.1666104,8.996081221277818,1.6349932539042435,stand
23/10/2020, 15:17:50,8.722662,-2.095642,0.6730005,0.44916153,0.92477554,1.1495061,8.996081221277818,1.5421803189783665,stand
23/10/2020, 15:17:50,8.610096,-1.9447559,0.49097902,0.44916153,0.92477554,1.1495061,8.84063847791592,1.5421803189783665,stand
23/10/2020, 15:17:50,8.610096,-1.9447559,0.49097902,0.15838979,0.9492101,1.1385105,8.84063847791592,1.4907358029988451,stand
23/10/2020, 15:17:50,8.49274,-1.9567311,0.25387207,0.15838979,0.9492101,1.1385105,8.718937709276025,1.4907358029988451,stand
23/10/2020, 15:17:50,8.49274,-1.9567311,0.25387207,-0.10183871,0.9516536,1.1311802,8.718937709276025,1.481750406441804,stand
23/10/2020, 15:17:50,8.281978,-2.076482,0.28979737,-0.10183871,0.9516536,1.1311802,8.543237916720605,1.481750406441804,stand
23/10/2020, 15:17:50,8.281978,-2.076482,0.28979737,-0.31197625,0.9565405,1.1311802,8.543237916720605,1.513891518439741,stand
23/10/2020, 15:17:50,8.159832,-2.2489235,0.364043,-0.31197625,0.9565405,1.1311802,8.471897229864682,1.513891518439741,stand
23/10/2020, 15:17:50,8.159832,-2.2489235,0.364043,-0.44392312,0.9516536,1.1214063,8.471897229864682,1.5363152130467816,stand
23/10/2020, 15:17:50,7.999366,-2.4668703,0.5460645,-0.44392312,0.9516536,1.1214063,8.388890800184463,1.5363152130467816,stand
23/10/2020, 15:17:50,7.999366,-2.4668703,0.5460645,-0.48790538,0.9198886,1.1006368,8.388890800184463,1.5151396573468003,stand
23/10/2020, 15:17:50,7.7167535,-2.560276,0.9148975,-0.48790538,0.9198886,1.1006368,8.181707346894658,1.5151396573468003,stand
23/10/2020, 15:17:50,7.7167535,-2.560276,0.9148975,-0.48668367,0.88568014,1.0981934,8.181707346894658,1.492420537073761,stand
23/10/2020, 15:17:50,7.438931,-2.6009912,1.0633887,-0.48668367,0.88568014,1.0981934,7.951958580446708,1.492420537073761,stand
23/10/2020, 15:17:50,7.438931,-2.6009912,1.0633887,-0.4598056,0.8282589,1.1006368,7.951958580446708,1.4521829806646276,stand
23/10/2020, 15:17:50,7.4101906,-2.574646,1.3052857,-0.4598056,0.8282589,1.1006368,7.952578022826659,1.4521829806646276,stand
23/10/2020, 15:17:50,7.4101906,-2.574646,1.3052857,-0.43170583,0.77450275,1.0554329,7.952578022826659,1.3784640298521669,stand
23/10/2020, 15:17:50,7.431746,-2.6177564,1.1136842,-0.43170583,0.77450275,1.0554329,7.957624616706735,1.3784640298521669,stand
23/10/2020, 15:17:50,7.431746,-2.6177564,1.1136842,-0.41093642,0.6938685,0.9906812,7.957624616706735,1.2774080948676143,stand
23/10/2020, 15:17:50,7.462881,-2.572251,0.97956306,-0.41093642,0.6938685,0.9906812,7.954282717318715,1.2774080948676143,stand
23/10/2020, 15:17:50,7.462881,-2.572251,0.97956306,-0.39871913,0.60101706,0.9381468,7.954282717318715,1.183350296387288,stand
23/10/2020, 15:17:50,7.6209526,-2.430945,0.84544194,-0.39871913,0.60101706,0.9381468,8.043828932642697,1.183350296387288,stand
23/10/2020, 15:17:50,7.6209526,-2.430945,0.84544194,-0.39994085,0.56558686,0.86850816,8.043828932642697,1.1109219631308311,stand
23/10/2020, 15:17:50,7.767049,-2.323169,0.732876,-0.39994085,0.56558686,0.86850816,8.140102519162523,1.1109219631308311,stand
23/10/2020, 15:17:50,7.767049,-2.323169,0.732876,-0.43781447,0.5692521,0.76466113,8.140102519162523,1.049016723405985,stand
23/10/2020, 15:17:51,12.949871,-5.616321,4.1960745,0.30133218,0.034134343,0.9247078,14.725802667274918,0.9731652963719116,stand
23/10/2020, 15:17:51,12.949871,-5.616321,4.1960745,0.42961383,-7.409463E-5,0.9332599,14.725802667274918,1.0273957837158398,stand
23/10/2020, 15:17:51,14.458734,-6.013894,4.351751,0.42961383,-7.409463E-5,0.9332599,16.252988451525493,1.0273957837158398,stand
23/10/2020, 15:17:51,14.458734,-6.013894,4.351751,0.5945474,0.046351645,0.9344816,16.252988451525493,1.1085535506550628,stand
23/10/2020, 15:17:51,15.696959,-6.332432,4.4595265,0.5945474,0.046351645,0.9344816,17.50375893434265,1.1085535506550628,stand
23/10/2020, 15:17:51,15.696959,-6.332432,4.4595265,0.8217892,0.2760369,0.9576945,17.50375893434265,1.2917865771370391,stand
23/10/2020, 15:17:51,15.8694,-6.342012,4.253555,0.8217892,0.2760369,0.9576945,17.61112435514054,1.2917865771370391,stand
23/10/2020, 15:17:51,15.8694,-6.342012,4.253555,1.0588049,0.68531644,0.9906812,17.61112435514054,1.603800350122406,stand
23/10/2020, 15:17:51,14.691051,-5.7839723,3.4775686,1.0588049,0.68531644,0.9906812,16.1670895449405,1.603800350122406,stand
23/10/2020, 15:17:51,14.691051,-5.7839723,3.4775686,1.2249601,1.0701615,1.037107,16.1670895449405,1.9290836383535024,stand
23/10/2020, 15:17:51,12.564273,-4.8163843,2.4884255,1.2249601,1.0701615,1.037107,13.683960403587232,1.9290836383535024,stand
23/10/2020, 15:17:51,12.564273,-4.8163843,2.4884255,1.2396209,1.3364986,1.1238497,13.683960403587232,2.1414777260244153,stand
23/10/2020, 15:17:51,10.4494705,-3.8248463,1.5256275,1.2396209,1.3364986,1.1238497,11.231581472362377,2.1414777260244153,stand
23/10/2020, 15:17:51,10.4494705,-3.8248463,1.5256275,1.107674,1.4623368,1.2203665,11.231581472362377,2.20333040891515,stand
23/10/2020, 15:17:51,8.643626,-3.046465,0.974773,1.107674,1.4623368,1.2203665,9.21647465151072,2.20333040891515,stand
23/10/2020, 15:17:51,8.643626,-3.046465,0.974773,0.84378034,1.4488977,1.3523133,9.21647465151072,2.1540708133366713,stand
23/10/2020, 15:17:51,7.2449346,-2.3998096,0.728086,0.84378034,1.4488977,1.3523133,7.66669890429222,2.1540708133366713,stand
23/10/2020, 15:17:51,7.2449346,-2.3998096,0.728086,0.496809,1.3267248,1.5184686,7.66669890429222,2.076719707234107,stand
23/10/2020, 15:17:51,6.6294146,-1.8896705,0.8765772,0.496809,1.3267248,1.5184686,6.948984065141378,2.076719707234107,stand
23/10/2020, 15:17:51,6.6294146,-1.8896705,0.8765772,0.14739421,1.1422435,1.6565241,6.948984065141378,2.017552290599406,stand
23/10/2020, 15:17:51,6.6509695,-1.9399658,1.2693604,0.14739421,1.1422435,1.6565241,7.043446508688214,2.017552290599406,stand
23/10/2020, 15:17:51,6.6509695,-1.9399658,1.2693604,-0.1262733,0.92233205,1.7774754,7.043446508688214,2.0065044230789324,stand
23/10/2020, 15:17:51,7.321575,-2.5339308,1.8154249,-0.1262733,0.92233205,1.7774754,7.9575144185217255,2.0065044230789324,stand
23/10/2020, 15:17:51,7.321575,-2.5339308,1.8154249,-0.34740645,0.75251156,1.8348967,7.9575144185217255,2.013407740253335,stand
23/10/2020, 15:17:51,8.753797,-2.6560767,2.1650977,-0.34740645,0.75251156,1.8348967,9.400603486138591,2.013407740253335,stand
23/10/2020, 15:17:51,8.753797,-2.6560767,2.1650977,-0.661391,0.5778042,1.7640363,9.400603486138591,1.9705633315382172,stand
23/10/2020, 15:17:51,9.764495,-2.7087672,2.2345533,-0.661391,0.5778042,1.7640363,10.376705103311222,1.9705633315382172,stand
23/10/2020, 15:17:51,9.764495,-2.7087672,2.2345533,-0.88985455,0.41409236,1.7774754,10.376705103311222,2.0304512429373363,stand
23/10/2020, 15:17:51,10.923684,-3.4488282,2.5411158,-0.88985455,0.41409236,1.7774754,11.73365076013596,2.0304512429373363,stand
23/10/2020, 15:17:51,10.923684,-3.4488282,2.5411158,-0.94238895,0.40920544,1.810462,11.73365076013596,2.081662477928419,stand
23/10/2020, 15:17:52,9.175321,-4.239185,0.90771246,-1.3602207,-0.13935131,-0.5535856,10.147962294631133,1.4751528952656645,stand
23/10/2020, 15:17:52,9.402847,-4.2056546,0.9508228,-1.3602207,-0.13935131,-0.5535856,10.344328489228378,1.4751528952656645,stand
23/10/2020, 15:17:52,9.402847,-4.2056546,0.9508228,-1.3846552,-0.10636461,-0.4851687,10.344328489228378,1.4710446012064955,stand
23/10/2020, 15:17:52,9.489068,-4.0523734,0.99393314,-1.3846552,-0.10636461,-0.4851687,10.365907844480198,1.4710446012064955,stand
23/10/2020, 15:17:52,9.489068,-4.0523734,0.99393314,-1.484837,-0.06238233,-0.3996476,10.365907844480198,1.538944714570982,stand
23/10/2020, 15:17:52,9.520203,-3.8128712,0.9316626,-1.484837,-0.06238233,-0.3996476,10.297584202278555,1.538944714570982,stand
23/10/2020, 15:17:52,9.520203,-3.8128712,0.9316626,-1.6473272,-7.409463E-5,-0.3251221,10.297584202278555,1.6791042942884253,stand
23/10/2020, 15:17:52,9.477093,-3.5661843,0.83586186,-1.6473272,-7.409463E-5,-0.3251221,10.160296366007422,1.6791042942884253,stand
23/10/2020, 15:17:52,9.477093,-3.5661843,0.83586186,-1.8537996,0.061012406,-0.26770076,10.160296366007422,1.874022171662939,stand
23/10/2020, 15:17:52,9.208851,-3.6452198,0.7807764,-1.8537996,0.061012406,-0.26770076,9.934796089589746,1.874022171662939,stand
23/10/2020, 15:17:52,9.208851,-3.6452198,0.7807764,-2.0773764,0.09155566,-0.21150117,9.934796089589746,2.090121467104493,stand
23/10/2020, 15:17:52,8.926238,-3.7338357,0.84544194,-2.0773764,0.09155566,-0.21150117,9.712570565346427,2.090121467104493,stand
23/10/2020, 15:17:52,8.926238,-3.7338357,0.84544194,-2.2557487,0.0891122,-0.15530159,9.712570565346427,2.2628437825731993,stand
23/10/2020, 15:17:52,8.763377,-4.064348,0.98914313,-2.2557487,0.0891122,-0.15530159,9.710515453149021,2.2628437825731993,stand
23/10/2020, 15:17:52,8.763377,-4.064348,0.98914313,-2.34127,0.06834279,-0.101545475,9.710515453149021,2.3444673793142634,stand
23/10/2020, 15:17:52,8.715476,-4.4451566,1.0585986,-2.34127,0.06834279,-0.101545475,9.84070986161166,2.3444673793142634,stand
23/10/2020, 15:17:52,8.715476,-4.4451566,1.0585986,-2.3217223,0.020695316,-0.03923724,9.84070986161166,2.322146022887929,stand
23/10/2020, 15:17:52,8.8879175,-4.7253737,1.0298585,-2.3217223,0.020695316,-0.03923724,10.11853958412338,2.322146022887929,stand
23/10/2020, 15:17:52,8.8879175,-4.7253737,1.0298585,-2.2435315,-0.04405638,0.041396942,10.11853958412338,2.2443458084930694,stand
23/10/2020, 15:17:52,9.14179,-4.744534,1.1448194,-2.2435315,-0.04405638,0.041396942,10.363085735960764,2.2443458084930694,stand
23/10/2020, 15:17:52,9.14179,-4.744534,1.1448194,-2.195884,-0.10025595,0.109813824,10.363085735960764,2.2009127257545935,stand
23/10/2020, 15:17:52,9.319021,-4.4283915,1.3651612,-2.195884,-0.10025595,0.109813824,10.40761608310004,2.2009127257545935,stand
23/10/2020, 15:17:52,9.319021,-4.4283915,1.3651612,-2.1457932,-0.15156862,0.14402227,10.40761608310004,2.155955453328173,stand
23/10/2020, 15:17:52,9.273516,-4.358936,1.7387843,-2.1457932,-0.15156862,0.14402227,10.393352969374023,2.155955453328173,stand
23/10/2020, 15:17:52,9.273516,-4.358936,1.7387843,-2.0749328,-0.16134246,0.17090033,10.393352969374023,2.08820125761979,stand
23/10/2020, 15:17:52,8.830438,-4.406836,2.1555176,-2.0749328,-0.16134246,0.17090033,10.10163794249073,2.08820125761979,stand
23/10/2020, 15:17:52,8.830438,-4.406836,2.1555176,-1.9808595,-0.17355976,0.21366088,10.10163794249073,1.9998945949415825,stand
23/10/2020, 15:17:52,8.52148,-4.3349857,2.4764502,-1.9808595,-0.17355976,0.21366088,9.876260507341573,1.9998945949415825,stand
23/10/2020, 15:17:52,8.52148,-4.3349857,2.4764502,-1.9051123,-0.20043781,0.24909104,9.876260507341573,1.931754232204046,stand
23/10/2020, 15:17:52,8.255632,-4.1721244,2.699187,-1.9051123,-0.20043781,0.24909104,9.635751081360679,1.931754232204046,stand
23/10/2020, 15:17:53,10.152488,-4.8163843,0.5676197,-0.20079884,0.1343162,-1.9659054,11.251344701366877,1.9806931030930517,stand
23/10/2020, 15:17:53,10.152488,-4.8163843,0.5676197,-0.07129546,0.043908186,-2.0257702,11.251344701366877,2.0274998949123573,stand
23/10/2020, 15:17:53,11.019485,-4.8115945,0.16046631,-0.07129546,0.043908186,-2.0257702,12.025233928756263,2.0274998949123573,stand
23/10/2020, 15:17:53,11.019485,-4.8115945,0.16046631,-0.04563913,-0.059938867,-2.0563135,12.025233928756263,2.0576930939306464,stand
23/10/2020, 15:17:53,12.502003,-4.497847,-0.57001466,-0.04563913,-0.059938867,-2.0563135,13.298707342340096,2.0576930939306464,stand
23/10/2020, 15:17:53,12.502003,-4.497847,-0.57001466,-0.121386394,-0.15401207,-2.094187,13.298707342340096,2.1033482008575,stand
23/10/2020, 15:17:53,14.310243,-4.0811133,-1.2741505,-0.121386394,-0.15401207,-2.094187,14.935259968920107,2.1033482008575,stand
23/10/2020, 15:17:53,14.310243,-4.0811133,-1.2741505,-0.29365033,-0.158899,-2.1540518,14.935259968920107,2.179774869138087,stand
23/10/2020, 15:17:53,16.068186,-3.803291,-1.8561403,-0.29365033,-0.158899,-2.1540518,16.6161630592614,2.179774869138087,stand
23/10/2020, 15:17:53,16.068186,-3.803291,-1.8561403,-0.5379963,-0.035504267,-2.2285774,16.6161630592614,2.2928710564432255,stand
23/10/2020, 15:17:53,17.11002,-3.908672,-2.2393434,-0.5379963,-0.035504267,-2.2285774,17.693081981580217,2.2928710564432255,stand
23/10/2020, 15:17:53,17.11002,-3.908672,-2.2393434,-0.7933379,0.1013295,-2.3067682,17.693081981580217,2.4414815364567133,stand
23/10/2020, 15:17:53,17.428558,-4.3349857,-2.2177882,-0.7933379,0.1013295,-2.3067682,18.096003206168795,2.4414815364567133,stand
23/10/2020, 15:17:53,17.428558,-4.3349857,-2.2177882,-1.0132493,0.13675967,-2.3629677,18.096003206168795,2.5746832421563863,stand
23/10/2020, 15:17:53,17.12918,-4.996011,-1.7363893,-1.0132493,0.13675967,-2.3629677,17.92718633898427,2.5746832421563863,stand
23/10/2020, 15:17:53,17.12918,-4.996011,-1.7363893,-1.1219833,0.11965545,-2.3690765,17.92718633898427,2.6240593261467406,stand
23/10/2020, 15:17:53,16.310083,-5.6785917,-0.8286768,-1.1219833,0.11965545,-2.3690765,17.290226414154215,2.6240593261467406,stand
23/10/2020, 15:17:53,16.310083,-5.6785917,-0.8286768,-1.1146529,0.10865988,-2.3495288,17.290226414154215,2.602795329487364,stand
23/10/2020, 15:17:53,15.074254,-6.1456203,0.32332766,-1.1146529,0.10865988,-2.3495288,16.282086013605596,2.602795329487364,stand
23/10/2020, 15:17:53,15.074254,-6.1456203,0.32332766,-1.0279101,0.09522085,-2.289664,16.282086013605596,2.511618518362999,stand
23/10/2020, 15:17:53,13.515096,-6.2989016,1.3220508,-1.0279101,0.09522085,-2.289664,14.969361751627913,2.511618518362999,stand
23/10/2020, 15:17:53,13.515096,-6.2989016,1.3220508,-0.8849676,0.0768949,-2.162604,14.969361751627913,2.3379343422989027,stand
23/10/2020, 15:17:53,12.056529,-6.023474,1.7555494,-0.8849676,0.0768949,-2.162604,13.591323999374765,2.3379343422989027,stand
23/10/2020, 15:17:53,12.056529,-6.023474,1.7555494,-0.7322514,0.026803967,-2.0111096,13.591323999374765,2.1404374223327403,stand
23/10/2020, 15:17:53,10.643467,-5.688172,1.6501685,-0.7322514,0.026803967,-2.0111096,12.180383575970497,2.1404374223327403,stand
23/10/2020, 15:17:53,10.643467,-5.688172,1.6501685,-0.63451296,-0.042834647,-1.8608367,12.180383575970497,1.9665082998848338,stand
23/10/2020, 15:17:53,9.362132,-5.3241286,1.3747413,-0.63451296,-0.042834647,-1.8608367,10.85752164504271,1.9665082998848338,stand
23/10/2020, 15:17:53,9.362132,-5.3241286,1.3747413,-0.57098305,-0.118581906,-1.6971248,10.85752164504271,1.7945239014715928,stand
23/10/2020, 15:17:53,8.236472,-5.0439115,1.1352394,-0.57098305,-0.118581906,-1.6971248,9.724673996729722,1.7945239014715928,stand
23/10/2020, 15:17:53,8.236472,-5.0439115,1.1352394,-0.5599874,-0.21143338,-1.5321913,9.724673996729722,1.644962035893208,stand
23/10/2020, 15:17:54,9.393267,-2.4692652,-0.12933107,0.895093,0.49350482,1.2887833,9.71326186950422,1.6449015033398375,stand
23/10/2020, 15:17:54,9.393267,-2.4692652,-0.12933107,0.72649425,0.5252698,1.244801,9.71326186950422,1.5340247419707118,stand
23/10/2020, 15:17:54,9.644744,-2.4069948,-0.1101709,0.72649425,0.5252698,1.244801,9.941169295381753,1.5340247419707118,stand
23/10/2020, 15:17:54,9.644744,-2.4069948,-0.1101709,0.57377803,0.55214787,1.1763842,9.941169295381753,1.420552113621794,stand
23/10/2020, 15:17:54,9.716595,-2.4261549,-0.12933107,0.57377803,0.55214787,1.1763842,10.015745922177526,1.420552113621794,stand
23/10/2020, 15:17:54,9.716595,-2.4261549,-0.12933107,0.4283921,0.5900215,1.1067456,10.015745922177526,1.325341837570119,stand
23/10/2020, 15:17:54,9.687855,-2.4644752,-0.11256592,0.4283921,0.5900215,1.1067456,9.997041505304972,1.325341837570119,stand
23/10/2020, 15:17:54,9.687855,-2.4644752,-0.11256592,0.30377567,0.6217865,1.03222,9.997041505304972,1.2427293422299521,stand
23/10/2020, 15:17:54,9.589659,-2.4860303,-0.12933107,0.30377567,0.6217865,1.03222,9.907503624674368,1.2427293422299521,stand
23/10/2020, 15:17:54,9.589659,-2.4860303,-0.12933107,0.20725898,0.63522553,0.95647275,9.907503624674368,1.1667510001267756,stand
23/10/2020, 15:17:54,9.378897,-2.567461,-0.1580713,0.20725898,0.63522553,0.95647275,9.725253012102746,1.1667510001267756,stand
23/10/2020, 15:17:54,9.378897,-2.567461,-0.1580713,0.13639864,0.6437776,0.8819472,9.725253012102746,1.1004022434199983,stand
23/10/2020, 15:17:54,9.153765,-2.6201515,-0.21555176,0.13639864,0.6437776,0.8819472,9.523815684124965,1.1004022434199983,stand
23/10/2020, 15:17:54,9.153765,-2.6201515,-0.21555176,0.102190204,0.63278204,0.79886955,9.523815684124965,1.0242306911918224,stand
23/10/2020, 15:17:54,8.954978,-2.6560767,-0.28740236,0.102190204,0.63278204,0.79886955,9.344997280885504,1.0242306911918224,stand
23/10/2020, 15:17:54,8.954978,-2.6560767,-0.28740236,0.10463367,0.60468227,0.7182354,9.344997280885504,0.9446961943394806,stand
23/10/2020, 15:17:54,8.775352,-2.7470875,-0.30895755,0.10463367,0.60468227,0.7182354,9.200474920191349,0.9446961943394806,stand
23/10/2020, 15:17:54,8.775352,-2.7470875,-0.30895755,0.14006384,0.5778042,0.6376012,9.200474920191349,0.8717860214259847,stand
23/10/2020, 15:17:54,8.571775,-2.7590625,-0.26584718,0.14006384,0.5778042,0.6376012,9.008797638421497,0.8717860214259847,stand
23/10/2020, 15:17:54,8.571775,-2.7590625,-0.26584718,0.18160266,0.55092615,0.5667409,9.008797638421497,0.8109835761418392,stand
23/10/2020, 15:17:54,8.320298,-2.7135572,-0.26345217,0.18160266,0.55092615,0.5667409,8.75557890786277,0.8109835761418392,stand
23/10/2020, 15:17:54,8.320298,-2.7135572,-0.26345217,0.20481552,0.5081656,0.5105413,8.75557890786277,0.7488885846113983,stand
23/10/2020, 15:17:54,8.092772,-2.6297317,-0.3281177,0.20481552,0.5081656,0.5105413,8.515638604426377,0.7488885846113983,stand
23/10/2020, 15:17:54,8.092772,-2.6297317,-0.3281177,0.19870688,0.45074427,0.45800686,8.515638604426377,0.6726255310833564,stand
23/10/2020, 15:17:54,7.8844047,-2.4141798,-0.2802173,0.19870688,0.45074427,0.45800686,8.250492268756467,0.6726255310833564,stand
23/10/2020, 15:17:54,7.8844047,-2.4141798,-0.2802173,0.1632767,0.3859926,0.4054725,8.250492268756467,0.5831444900496772,stand
23/10/2020, 15:17:54,7.7478886,-2.318379,-0.28500733,0.1632767,0.3859926,0.4054725,8.092335091611217,0.5831444900496772,stand
23/10/2020, 15:17:54,7.7478886,-2.318379,-0.28500733,0.118072696,0.31879744,0.35171637,8.092335091611217,0.4891598648425049,stand
23/10/2020, 15:17:54,7.6185575,-2.2848487,-0.14130616,0.118072696,0.31879744,0.35171637,7.955056167920011,0.4891598648425049,stand
23/10/2020, 15:17:54,7.6185575,-2.2848487,-0.14130616,0.06431657,0.2516023,0.30162543,7.955056167920011,0.39801788278845474,stand
23/10/2020, 15:17:55,15.100598,-5.4055595,2.2489235,1.0111574,-0.05871714,0.61316663,16.19585752933739,1.1840018130197583,stand
23/10/2020, 15:17:55,15.100598,-5.4055595,2.2489235,1.0917915,0.015808396,0.73411787,16.19585752933739,1.3157460425561662,stand
23/10/2020, 15:17:55,13.850399,-5.010381,1.710044,1.0917915,0.015808396,0.73411787,14.827734941621538,1.3157460425561662,stand
23/10/2020, 15:17:55,13.850399,-5.010381,1.710044,1.0991219,0.064677596,0.8795038,14.827734941621538,1.4091767508370192,stand
23/10/2020, 15:17:55,12.248131,-4.5481424,1.2813355,1.0991219,0.064677596,0.8795038,13.127990258989918,1.4091767508370192,stand
23/10/2020, 15:17:55,12.248131,-4.5481424,1.2813355,1.06247,0.09644258,1.0358852,13.127990258989918,1.4870110167247679,stand
23/10/2020, 15:17:55,10.837463,-4.126619,0.9484278,1.06247,0.09644258,1.0358852,11.635252941278033,1.4870110167247679,stand
23/10/2020, 15:17:55,10.837463,-4.126619,0.9484278,0.98183584,0.11721199,1.2008188,11.635252941278033,1.5555404227817355,stand
23/10/2020, 15:17:55,9.678274,-3.903882,0.7113208,0.98183584,0.11721199,1.2008188,10.46017508440284,1.5555404227817355,stand
23/10/2020, 15:17:55,9.678274,-3.903882,0.7113208,0.8877626,0.10499469,1.3547567,10.46017508440284,1.6231180121545874,stand
23/10/2020, 15:17:55,9.678274,-3.903882,0.7113208,0.84744555,0.029247427,1.5343511,10.46017508440284,1.7530695075456544,stand
23/10/2020, 15:17:55,8.806487,-3.7098854,0.8669971,0.84744555,0.029247427,1.5343511,9.5952669653901,1.7530695075456544,stand
23/10/2020, 15:17:55,8.284373,-3.7625759,1.1112891,0.84744555,0.029247427,1.5343511,9.166394132776384,1.7530695075456544,stand
23/10/2020, 15:17:55,8.284373,-3.7625759,1.1112891,0.8523325,-0.10880806,1.7493756,9.166394132776384,1.949006096643023,stand
23/10/2020, 15:17:55,8.52627,-3.6140847,1.3028907,0.8523325,-0.10880806,1.7493756,9.351813249846144,1.949006096643023,stand
23/10/2020, 15:17:55,8.52627,-3.6140847,1.3028907,0.8669932,-0.28595895,1.8886528,9.351813249846144,2.097727130216605,stand
23/10/2020, 15:17:55,9.316627,-3.4703834,1.6381935,0.8669932,-0.28595895,1.8886528,10.076049282142813,2.097727130216605,stand
23/10/2020, 15:17:55,9.316627,-3.4703834,1.6381935,0.9109755,-0.41179714,1.9277481,10.076049282142813,2.1715584144497426,stand
23/10/2020, 15:17:55,10.420731,-3.4584084,2.071692,0.9109755,-0.41179714,1.9277481,11.173366641363442,2.1715584144497426,stand
23/10/2020, 15:17:55,10.420731,-3.4584084,2.071692,1.0136008,-0.43745345,1.9167526,11.173366641363442,2.2119431718788767,stand
23/10/2020, 15:17:55,11.225457,-3.6979103,2.0812721,1.0136008,-0.43745345,1.9167526,12.0007134566655,2.2119431718788767,stand
23/10/2020, 15:17:55,11.225457,-3.6979103,2.0812721,1.1259999,-0.4105754,1.8568878,12.0007134566655,2.2100860512391427,stand
23/10/2020, 15:17:55,11.623031,-3.8799317,1.9806812,1.1259999,-0.4105754,1.8568878,12.412566601182604,2.2100860512391427,stand
23/10/2020, 15:17:55,11.623031,-3.8799317,1.9806812,1.2127428,-0.33482814,1.7677015,12.412566601182604,2.169705881211908,stand
23/10/2020, 15:17:55,11.702065,-3.772156,1.7651294,1.2127428,-0.33482814,1.7677015,12.421078015513137,2.169705881211908,stand
23/10/2020, 15:17:55,11.702065,-3.772156,1.7651294,1.2713859,-0.21387684,1.6675196,12.421078015513137,2.1077919598173196,stand
23/10/2020, 15:17:55,11.294912,-3.7625759,1.2981006,1.2713859,-0.21387684,1.6675196,11.975687329369105,2.1077919598173196,stand
23/10/2020, 15:17:55,11.294912,-3.7625759,1.2981006,1.2774945,-0.096590765,1.5856637,11.975687329369105,2.038541487119961,stand
23/10/2020, 15:17:55,10.521321,-3.537444,0.80712163,1.2774945,-0.096590765,1.5856637,11.129382643506935,2.038541487119961,stand
23/10/2020, 15:17:55,10.521321,-3.537444,0.80712163,1.261612,-0.006182745,1.5367945,11.129382643506935,1.9883260996748884,stand
23/10/2020, 15:17:56,8.253238,-4.040398,2.2920337,-1.0401274,0.11721199,0.20877396,9.470700516022921,1.0673285418824565,stand
23/10/2020, 15:17:56,8.253238,-4.040398,2.2920337,-1.0608968,0.1294293,0.30895582,9.470700516022921,1.1125230620156805,stand
23/10/2020, 15:17:56,8.533455,-4.1888895,2.6033864,-1.0608968,0.1294293,0.30895582,9.856179202738018,1.1125230620156805,stand
23/10/2020, 15:17:56,8.533455,-4.1888895,2.6033864,-0.9704887,0.16485946,0.37981614,9.856179202738018,1.0551243122730682,stand
23/10/2020, 15:17:56,8.576566,-4.160149,2.6560767,-0.9704887,0.16485946,0.37981614,9.895406192953327,1.0551243122730682,stand
23/10/2020, 15:17:56,8.576566,-4.160149,2.6560767,-0.8495375,0.19418098,0.44212437,9.895406192953327,0.977186859701947,stand
23/10/2020, 15:17:56,8.432864,-4.0356083,2.5411158,-0.8495375,0.19418098,0.44212437,9.687961706461106,0.977186859701947,stand
23/10/2020, 15:17:56,8.432864,-4.0356083,2.5411158,-0.74202526,0.20884174,0.49465877,9.687961706461106,0.9159168360329447,stand
23/10/2020, 15:17:56,8.272398,-3.8368216,2.4045997,-0.74202526,0.20884174,0.49465877,9.430581519581768,0.9159168360329447,stand
23/10/2020, 15:17:56,8.272398,-3.8368216,2.4045997,-0.65283895,0.20884174,0.5386411,9.430581519581768,0.8717498441826658,stand
23/10/2020, 15:17:56,7.9802055,-3.6907253,2.2608986,-0.65283895,0.20884174,0.5386411,9.078369692055908,0.8717498441826658,stand
23/10/2020, 15:17:56,7.9802055,-3.6907253,2.2608986,-0.6076349,0.20639828,0.5667409,9.078369692055908,0.8561633242285408,stand
23/10/2020, 15:17:56,7.781419,-3.5254688,2.2225783,-0.6076349,0.20639828,0.5667409,8.827188863623062,0.8561633242285408,stand
23/10/2020, 15:17:56,7.781419,-3.5254688,2.2225783,-0.58808726,0.18196368,0.5862886,8.827188863623062,0.850112755321357,stand
23/10/2020, 15:17:56,7.656878,-3.427273,2.2129982,-0.58808726,0.18196368,0.5862886,8.675905825894228,0.850112755321357,stand
23/10/2020, 15:17:56,7.656878,-3.427273,2.2129982,-0.5770917,0.1416466,0.59484065,8.675905825894228,0.8407936575432116,stand
23/10/2020, 15:17:56,7.688013,-3.3769777,2.1627028,-0.5770917,0.1416466,0.59484065,8.67103262191956,0.8407936575432116,stand
23/10/2020, 15:17:56,7.688013,-3.3769777,2.1627028,-0.56365263,0.11476853,0.59850585,8.67103262191956,0.830111658396539,stand
23/10/2020, 15:17:56,7.824529,-3.432063,2.2441335,-0.56365263,0.11476853,0.59850585,8.833937340216854,0.830111658396539,stand
23/10/2020, 15:17:56,7.824529,-3.432063,2.2441335,-0.5367746,0.09277739,0.59850585,8.833937340216854,0.8092860103433587,stand
23/10/2020, 15:17:56,8.018526,-3.755391,2.3303542,-0.5367746,0.09277739,0.59850585,9.155887280517879,0.8092860103433587,stand
23/10/2020, 15:17:56,8.018526,-3.755391,2.3303542,-0.47813153,0.054903757,0.6009493,9.155887280517879,0.7699118333226597,stand
23/10/2020, 15:17:56,8.353828,-4.0930886,2.2513185,-0.47813153,0.054903757,0.6009493,9.571220336656165,0.7699118333226597,stand
23/10/2020, 15:17:56,8.353828,-4.0930886,2.2513185,-0.37184107,0.0060345554,0.6033928,9.571220336656165,0.708791257143336,stand
23/10/2020, 15:17:56,8.859178,-4.29427,2.2704787,-0.37184107,0.0060345554,0.6033928,10.103507132076633,0.708791257143336,stand
23/10/2020, 15:17:56,8.859178,-4.29427,2.2704787,-0.23745075,-0.036725998,0.6033928,10.103507132076633,0.6494724811111879,stand
23/10/2020, 15:17:56,9.314231,-4.4547367,2.3614893,-0.23745075,-0.036725998,0.6033928,10.591327039471581,0.6494724811111879,stand
23/10/2020, 15:17:56,9.314231,-4.4547367,2.3614893,-0.11527774,-0.04772157,0.6033928,10.591327039471581,0.616156758935875,stand
23/10/2020, 15:17:56,9.541759,-4.351751,2.5938063,-0.11527774,-0.04772157,0.6033928,10.803273689024897,0.616156758935875,stand
23/10/2020, 15:17:56,9.541759,-4.351751,2.5938063,-0.024869718,-0.04405638,0.63027084,10.803273689024897,0.6322980290089263,stand
23/10/2020, 15:17:57,4.605623,-4.5529323,0.51732427,-1.6900877,-0.26396778,-1.6030517,6.496812885571098,2.3443229246989197,stand
23/10/2020, 15:17:57,4.605623,-4.5529323,0.51732427,-1.4481852,-0.5364136,-1.3623708,6.496812885571098,2.059377158160284,stand
23/10/2020, 15:17:57,6.320457,-4.756509,0.13891114,-1.4481852,-0.5364136,-1.3623708,7.911501057698039,2.059377158160284,stand
23/10/2020, 15:17:57,6.320457,-4.756509,0.13891114,-1.1586351,-0.7489946,-1.1730027,7.911501057698039,1.8109013394929068,stand
23/10/2020, 15:17:57,8.401729,-5.0415163,-0.34009278,-1.1586351,-0.7489946,-1.1730027,9.804162060814653,1.8109013394929068,stand
23/10/2020, 15:17:57,8.401729,-5.0415163,-0.34009278,-0.8947415,-0.86750245,-1.0227299,9.804162060814653,1.6121722007868455,stand
23/10/2020, 15:17:57,10.4494705,-4.897815,-0.59156984,-0.8947415,-0.86750245,-1.0227299,11.555517427975426,1.6121722007868455,stand
23/10/2020, 15:17:57,10.4494705,-4.897815,-0.59156984,-0.6968212,-0.8430678,-0.93965226,11.555517427975426,1.441967245573927,stand
23/10/2020, 15:17:57,12.437337,-4.5002418,-0.73527104,-0.6968212,-0.8430678,-0.93965226,13.24689205313378,1.441967245573927,stand
23/10/2020, 15:17:57,12.437337,-4.5002418,-0.73527104,-0.589309,-0.7367773,-0.93598706,13.24689205313378,1.3289836854779298,stand
23/10/2020, 15:17:57,13.802498,-4.0499783,-0.7592212,-0.589309,-0.7367773,-0.93598706,14.404432928094854,1.3289836854779298,stand
23/10/2020, 15:17:57,13.802498,-4.0499783,-0.7592212,-0.60030454,-0.5828393,-0.9750824,14.404432928094854,1.2848552015033254,stand
23/10/2020, 15:17:57,14.4802885,-3.661985,-0.6346802,-0.60030454,-0.5828393,-0.9750824,14.949639050257787,1.2848552015033254,stand
23/10/2020, 15:17:57,14.4802885,-3.661985,-0.6346802,-0.7615729,-0.4020233,-0.9897432,14.949639050257787,1.3119479978396271,stand
23/10/2020, 15:17:57,14.398858,-3.3171022,-0.51013917,-0.7615729,-0.4020233,-0.9897432,14.784807156845547,1.3119479978396271,stand
23/10/2020, 15:17:57,14.398858,-3.3171022,-0.51013917,-1.0572315,-0.21387684,-0.97263896,14.784807156845547,1.4524146792212898,stand
23/10/2020, 15:17:57,13.582156,-3.0871804,-0.27542725,-1.0572315,-0.21387684,-0.97263896,13.93131398611232,1.4524146792212898,stand
23/10/2020, 15:17:57,13.582156,-3.0871804,-0.27542725,-1.412755,-0.048943296,-0.9653086,13.93131398611232,1.711751406493528,stand
23/10/2020, 15:17:57,12.114009,-3.0105398,-0.081430666,-1.412755,-0.048943296,-0.9653086,12.482755800505828,1.711751406493528,stand
23/10/2020, 15:17:57,12.114009,-3.0105398,-0.081430666,-1.8574648,0.06834279,-0.98852146,12.482755800505828,2.1052365317719866,stand
23/10/2020, 15:17:57,10.487791,-3.04886,-0.16046631,-1.8574648,0.06834279,-0.98852146,10.923143253231387,2.1052365317719866,stand
23/10/2020, 15:17:57,10.487791,-3.04886,-0.16046631,-2.318057,0.11965545,-1.0141778,10.923143253231387,2.5330342615784533,stand
23/10/2020, 15:17:57,9.172925,-3.056045,-0.20597169,-2.318057,0.11965545,-1.0141778,9.67080082973924,2.5330342615784533,stand
23/10/2020, 15:17:57,9.172925,-3.056045,-0.20597169,-2.7102325,0.14286833,-1.0153995,9.67080082973924,2.8977245551307145,stand
23/10/2020, 15:17:57,8.210127,-3.4009278,-0.19878663,-2.7102325,0.14286833,-1.0153995,8.888869964016623,2.8977245551307145,stand
23/10/2020, 15:17:57,8.210127,-3.4009278,-0.19878663,-2.9948955,0.162416,-0.9763042,8.888869964016623,3.1541952381913654,stand
23/10/2020, 15:17:57,7.563472,-3.796106,-0.16525635,-2.9948955,0.162416,-0.9763042,8.464268235664655,3.1541952381913654,stand
23/10/2020, 15:17:57,7.563472,-3.796106,-0.16525635,-3.1402814,0.17829849,-0.9115524,8.464268235664655,3.274764983497161,stand
23/10/2020, 15:17:57,7.1251836,-4.112249,-0.023950197,-3.1402814,0.17829849,-0.9115524,8.226749399909432,3.274764983497161,stand
23/10/2020, 15:17:57,7.1251836,-4.112249,-0.023950197,-3.1488335,0.18074195,-0.8419138,8.226749399909432,3.2644508000861383,stand
23/10/2020, 15:17:58,6.6413894,-4.28469,1.3028907,-0.14093406,0.43730524,0.8159738,8.010252455338783,0.9364355596375261,stand
23/10/2020, 15:17:58,6.6413894,-4.28469,1.3028907,-0.13849062,0.3872143,0.7719915,8.010252455338783,0.8746916200587258,stand
23/10/2020, 15:17:58,6.468948,-4.24158,1.346001,-0.13849062,0.3872143,0.7719915,7.851751811979731,0.8746916200587258,stand
23/10/2020, 15:17:58,6.468948,-4.24158,1.346001,-0.14582099,0.33223647,0.7414483,7.851751811979731,0.8254637418040913,stand
23/10/2020, 15:17:58,6.4042826,-4.0356083,1.3268409,-0.14582099,0.33223647,0.7414483,7.68514646787352,0.8254637418040913,stand
23/10/2020, 15:17:58,6.4042826,-4.0356083,1.3268409,-0.18002944,0.24915884,0.7060181,7.68514646787352,0.7700339418774718,stand
23/10/2020, 15:17:58,6.346802,-3.911067,1.3723463,-0.18002944,0.24915884,0.7060181,7.580348149798807,0.7700339418774718,stand
23/10/2020, 15:17:58,6.346802,-3.911067,1.3723463,-0.2276769,0.19295925,0.6571489,7.580348149798807,0.7217442174722799,stand
23/10/2020, 15:17:58,6.2773466,-3.7529957,1.4346168,-0.2276769,0.19295925,0.6571489,7.453065328764815,0.7217442174722799,stand
23/10/2020, 15:17:58,6.2773466,-3.7529957,1.4346168,-0.27654612,0.14897697,0.59484065,7.453065328764815,0.6726866189732635,stand
23/10/2020, 15:17:58,6.128855,-3.796106,1.3172607,-0.27654612,0.14897697,0.59484065,7.328605856298471,0.6726866189732635,stand
23/10/2020, 15:17:58,6.128855,-3.796106,1.3172607,-0.31930667,0.10499469,0.53008896,7.328605856298471,0.6276742328434134,stand
23/10/2020, 15:17:58,5.992339,-3.7458107,1.3052857,-0.31930667,0.10499469,0.53008896,7.186306227207436,0.6276742328434134,stand
23/10/2020, 15:17:58,5.992339,-3.7458107,1.3052857,-0.34251952,0.061012406,0.46900246,7.186306227207436,0.5839567104403368,stand
23/10/2020, 15:17:58,5.968389,-3.788921,1.2861255,-0.34251952,0.061012406,0.46900246,7.185520844567546,0.5839567104403368,stand
23/10/2020, 15:17:58,5.968389,-3.788921,1.2861255,-0.35229337,0.012143206,0.4103594,7.185520844567546,0.5409740519502338,stand
23/10/2020, 15:17:58,6.133645,-3.7649708,1.3531861,-0.35229337,0.012143206,0.4103594,7.323094930922352,0.5409740519502338,stand
23/10/2020, 15:17:58,6.133645,-3.7649708,1.3531861,-0.3412978,-0.025730425,0.3297252,7.323094930922352,0.4752525203611276,stand
23/10/2020, 15:17:58,6.2917166,-3.8559816,1.3292359,-0.3412978,-0.025730425,0.3297252,7.498077059209043,0.4752525203611276,stand
23/10/2020, 15:17:58,6.2917166,-3.8559816,1.3292359,-0.30342418,-0.053830218,0.21976954,7.498077059209043,0.37850042886652846,stand
23/10/2020, 15:17:58,6.4330225,-3.906277,1.3939015,-0.30342418,-0.053830218,0.21976954,7.654132172654244,0.37850042886652846,stand
23/10/2020, 15:17:58,6.4330225,-3.906277,1.3939015,-0.23500729,-0.075821355,0.10737036,7.654132172654244,0.2692688191141873,stand
23/10/2020, 15:17:58,6.588699,-3.9278321,1.4010864,-0.23500729,-0.075821355,0.10737036,7.797554820227839,0.2692688191141873,stand
23/10/2020, 15:17:58,6.588699,-3.9278321,1.4010864,-0.17636424,-0.097812496,-0.011137449,7.797554820227839,0.20197938853351413,stand
23/10/2020, 15:17:58,6.75156,-3.8511915,1.3986914,-0.17636424,-0.097812496,-0.011137449,7.8975679225219855,0.20197938853351413,stand
23/10/2020, 15:17:58,6.75156,-3.8511915,1.3986914,-0.13238196,-0.13324267,-0.13453218,7.8975679225219855,0.23103571182752855,stand
23/10/2020, 15:17:58,7.0078273,-3.7170706,1.2909156,-0.13238196,-0.13324267,-0.13453218,8.036959625063103,0.23103571182752855,stand
23/10/2020, 15:17:58,7.0078273,-3.7170706,1.2909156,-0.12749504,-0.17478149,-0.26159212,8.036959625063103,0.33946132221593284,stand
23/10/2020, 15:17:58,7.340735,-3.6811452,1.2669654,-0.12749504,-0.17478149,-0.26159212,8.309176911663947,0.33946132221593284,stand
23/10/2020, 15:17:58,7.340735,-3.6811452,1.2669654,-0.13238196,-0.20532474,-0.39842588,8.309176911663947,0.4673611147764578,stand
23/10/2020, 15:17:59,10.863809,-3.4608033,1.5998731,1.0343702,1.1153655,0.90271664,11.51343090019749,1.7688581666611223,stand
23/10/2020, 15:17:59,10.863809,-3.4608033,1.5998731,0.8669932,1.067718,0.99190295,11.51343090019749,1.6957506998781926,stand
23/10/2020, 15:17:59,8.828042,-2.550696,1.214275,0.8669932,1.067718,0.99190295,9.269025807798165,1.6957506998781926,stand
23/10/2020, 15:17:59,8.828042,-2.550696,1.214275,0.57622147,0.999301,1.1385105,9.269025807798165,1.6207528434415226,stand
23/10/2020, 15:17:59,7.3862405,-2.090852,1.0298585,0.57622147,0.999301,1.1385105,7.745244935415961,1.6207528434415226,stand
23/10/2020, 15:17:59,7.3862405,-2.090852,1.0298585,0.24757607,0.94187975,1.3291004,7.745244935415961,1.647707246018903,stand
23/10/2020, 15:17:59,6.4018874,-1.8681153,1.0154883,0.24757607,0.94187975,1.3291004,6.745756719177762,1.647707246018903,stand
23/10/2020, 15:17:59,6.4018874,-1.8681153,1.0154883,-0.07618238,0.8172633,1.5367945,6.745756719177762,1.7422573097248368,stand
23/10/2020, 15:17:59,5.719307,-1.7603394,1.0011182,-0.07618238,0.8172633,1.5367945,6.067248493942062,1.7422573097248368,stand
23/10/2020, 15:17:59,5.719307,-1.7603394,1.0011182,-0.36939758,0.59979534,1.7371582,6.067248493942062,1.8745472957746503,stand
23/10/2020, 15:17:59,5.743257,-1.7339942,1.3483961,-0.36939758,0.59979534,1.7371582,6.148976295233995,1.8745472957746503,stand
23/10/2020, 15:17:59,5.743257,-1.7339942,1.3483961,-0.60152626,0.40798372,1.9167526,6.148976295233995,2.0499329254223495,stand
23/10/2020, 15:17:59,6.456973,-1.8800904,1.5783179,-0.60152626,0.40798372,1.9167526,6.907845422491189,2.0499329254223495,stand
23/10/2020, 15:17:59,6.456973,-1.8800904,1.5783179,-0.7896727,0.27359343,2.051143,6.907845422491189,2.214864243250037,stand
23/10/2020, 15:17:59,7.6496925,-2.2441335,2.0261867,-0.7896727,0.27359343,2.051143,8.225531198064962,2.214864243250037,stand
23/10/2020, 15:17:59,7.6496925,-2.2441335,2.0261867,-0.8641982,0.15264216,2.1256683,8.225531198064962,2.2996964667549937,stand
23/10/2020, 15:17:59,9.053174,-2.7638526,2.5842261,-0.8641982,0.15264216,2.1256683,9.812087733410895,2.2996964667549937,stand
23/10/2020, 15:17:59,9.053174,-2.7638526,2.5842261,-0.78845096,0.06956452,2.1439943,9.812087733410895,2.285433400055538,stand
23/10/2020, 15:17:59,10.542876,-3.3482375,2.8716285,-0.78845096,0.06956452,2.1439943,11.428437527262275,2.285433400055538,stand
23/10/2020, 15:17:59,10.542876,-3.3482375,2.8716285,-0.62107396,0.07322971,2.1061206,11.428437527262275,2.197006913938081,stand
23/10/2020, 15:17:59,11.869718,-3.7027004,2.9841945,-0.62107396,0.07322971,2.1061206,12.78693093942676,2.197006913938081,stand
23/10/2020, 15:17:59,11.869718,-3.7027004,2.9841945,-0.38528007,0.15508562,2.0108259,12.78693093942676,2.0532688509187746,stand
23/10/2020, 15:17:59,12.8061695,-3.891907,2.8452833,-0.38528007,0.15508562,2.0108259,13.683587041310973,2.0532688509187746,stand
23/10/2020, 15:17:59,12.8061695,-3.891907,2.8452833,-0.13726889,0.30291495,1.8764355,13.683587041310973,1.9056784793194934,stand
23/10/2020, 15:17:59,13.129498,-3.8344264,2.5027955,-0.13726889,0.30291495,1.8764355,13.905053623913728,1.9056784793194934,stand
23/10/2020, 15:17:59,13.129498,-3.8344264,2.5027955,0.0655383,0.48250926,1.7224975,13.905053623913728,1.7900022238573075,stand
23/10/2020, 15:17:59,12.798985,-3.6931202,1.9974464,0.0655383,0.48250926,1.7224975,13.470075510001946,1.7900022238573075,stand
23/10/2020, 15:17:59,12.798985,-3.6931202,1.9974464,0.20970245,0.6425559,1.5673378,13.470075510001946,1.706868717322459,stand
23/10/2020, 15:17:59,12.020603,-3.3841627,1.4753321,0.20970245,0.6425559,1.5673378,12.57473906984283,1.706868717322459,stand
23/10/2020, 15:17:59,12.020603,-3.3841627,1.4753321,0.2732324,0.73662907,1.4085128,12.57473906984283,1.6128194951877963,stand
23/10/2020, 15:18:00,8.981323,-3.4584084,-0.043110352,-2.5917246,-0.27985027,-0.74906236,9.624272130294973,2.7122771196128554,stand
23/10/2020, 15:18:00,9.034014,-3.4296682,-0.09101075,-2.5917246,-0.27985027,-0.74906236,9.66355582790478,2.7122771196128554,stand
23/10/2020, 15:18:00,9.034014,-3.4296682,-0.09101075,-2.676024,-0.2920676,-0.80526197,9.66355582790478,2.8097783809985746,stand
23/10/2020, 15:18:00,8.919053,-3.420088,-0.07903565,-2.676024,-0.2920676,-0.80526197,9.552630879756686,2.8097783809985746,stand
23/10/2020, 15:18:00,8.919053,-3.420088,-0.07903565,-2.7493277,-0.31039354,-0.8712354,9.552630879756686,2.900723668651346,stand
23/10/2020, 15:18:00,8.823253,-3.3482375,0.05269043,-2.7493277,-0.31039354,-0.8712354,9.437333233145072,2.900723668651346,stand
23/10/2020, 15:18:00,8.823253,-3.3482375,0.05269043,-2.8128576,-0.33971506,-0.9372088,9.437333233145072,2.9842812603436886,stand
23/10/2020, 15:18:00,8.837623,-3.3626075,0.15567628,-2.8128576,-0.33971506,-0.9372088,9.457004712526606,2.9842812603436886,stand
23/10/2020, 15:18:00,8.837623,-3.3626075,0.15567628,-2.8690574,-0.36537138,-1.0092908,9.457004712526606,3.0632751512382264,stand
23/10/2020, 15:18:00,9.0004835,-3.5015187,0.3281177,-2.8690574,-0.36537138,-1.0092908,9.663177431910881,3.0632751512382264,stand
23/10/2020, 15:18:00,9.0004835,-3.5015187,0.3281177,-2.8861616,-0.37636694,-1.0874816,9.663177431910881,3.107120359592446,stand
23/10/2020, 15:18:00,9.125025,-3.7937112,0.65384036,-2.8861616,-0.37636694,-1.0874816,9.903829022052445,3.107120359592446,stand
23/10/2020, 15:18:00,9.125025,-3.7937112,0.65384036,-2.8690574,-0.3775887,-1.1607854,9.903829022052445,3.1179298436239455,stand
23/10/2020, 15:18:00,9.13221,-4.2751102,0.9915381,-2.8690574,-0.3775887,-1.1607854,10.131977637634348,3.1179298436239455,stand
23/10/2020, 15:18:00,9.13221,-4.2751102,0.9915381,-2.8043056,-0.38125387,-1.2340891,10.131977637634348,3.087468241951212,stand
23/10/2020, 15:18:00,9.045989,-4.636758,1.4250367,-2.8043056,-0.38125387,-1.2340891,10.264510242698455,3.087468241951212,stand
23/10/2020, 15:18:00,9.045989,-4.636758,1.4250367,-2.676024,-0.39713636,-1.3135016,10.264510242698455,3.0073423429562705,stand
23/10/2020, 15:18:00,8.832832,-5.046306,1.7411792,-2.676024,-0.39713636,-1.3135016,10.320651034576894,3.0073423429562705,stand
23/10/2020, 15:18:00,8.832832,-5.046306,1.7411792,-2.5025382,-0.42645788,-1.3831402,10.320651034576894,2.8909584256592264,stand
23/10/2020, 15:18:00,8.722662,-5.213958,2.2465284,-2.5025382,-0.42645788,-1.3831402,10.407549061739555,2.8909584256592264,stand
23/10/2020, 15:18:00,8.722662,-5.213958,2.2465284,-2.2801836,-0.45944458,-1.4356747,10.407549061739555,2.7334022962953823,stand
23/10/2020, 15:18:00,8.756192,-5.398374,2.682422,-2.2801836,-0.45944458,-1.4356747,10.63055652625172,2.7334022962953823,stand
23/10/2020, 15:18:00,8.756192,-5.398374,2.682422,-2.0358374,-0.48143575,-1.4723265,10.63055652625172,2.558155530468366,stand
23/10/2020, 15:18:00,8.878338,-5.5947657,2.9770093,-2.0358374,-0.48143575,-1.4723265,10.908201975334885,2.558155530468366,stand
23/10/2020, 15:18:00,8.878338,-5.5947657,2.9770093,-1.8379171,-0.48143575,-1.4967611,10.908201975334885,2.418680083559713,stand
23/10/2020, 15:18:00,8.945398,-5.4462748,3.0943654,-1.8379171,-0.48143575,-1.4967611,10.920492525458226,2.418680083559713,stand
23/10/2020, 15:18:00,8.945398,-5.4462748,3.0943654,-1.6974181,-0.5009834,-1.5187523,10.920492525458226,2.3321280471986316,stand
23/10/2020, 15:18:00,9.045989,-5.4582496,3.2692018,-1.6974181,-0.5009834,-1.5187523,11.059389048437936,2.3321280471986316,stand
23/10/2020, 15:18:00,9.045989,-5.4582496,3.2692018,-1.5972363,-0.50709206,-1.5089785,11.059389048437936,2.255065885440009,stand
23/10/2020, 15:18:00,9.077125,-5.601951,3.3817677,-1.5972363,-0.50709206,-1.5089785,11.18983469112766,2.255065885440009,stand
23/10/2020, 15:18:01,12.691209,-2.7015822,1.0274634,0.38929677,-0.9200368,-1.4442267,13.016182591905347,1.756078175063334,stand
23/10/2020, 15:18:01,14.113851,-2.3878345,0.9532178,0.38929677,-0.9200368,-1.4442267,14.346119914226799,1.756078175063334,stand
23/10/2020, 15:18:01,14.113851,-2.3878345,0.9532178,0.18526785,-0.8222984,-1.655586,14.346119914226799,1.8578115795427665,stand
23/10/2020, 15:18:01,14.820381,-2.327959,1.0753639,0.18526785,-0.8222984,-1.655586,15.040595025236302,1.8578115795427665,stand
23/10/2020, 15:18:01,14.820381,-2.327959,1.0753639,-0.03464356,-0.6512562,-1.8290718,15.040595025236302,1.941864651042412,stand
23/10/2020, 15:18:01,14.578485,-2.703977,1.214275,-0.03464356,-0.6512562,-1.8290718,14.87676602376382,1.941864651042412,stand
23/10/2020, 15:18:01,14.578485,-2.703977,1.214275,-0.2521115,-0.45211422,-1.9390274,14.87676602376382,2.006936682255606,stand
23/10/2020, 15:18:01,13.239669,-3.163821,1.4753321,-0.2521115,-0.45211422,-1.9390274,13.69215831369354,2.006936682255606,stand
23/10/2020, 15:18:01,13.239669,-3.163821,1.4753321,-0.4268189,-0.30795008,-2.008666,13.69215831369354,2.076474629100821,stand
23/10/2020, 15:18:01,11.421848,-3.4847536,1.7962648,-0.4268189,-0.30795008,-2.008666,12.075955173453792,2.076474629100821,stand
23/10/2020, 15:18:01,11.421848,-3.4847536,1.7962648,-0.5428832,-0.26396778,-2.0599787,12.075955173453792,2.1466051148532808,stand
23/10/2020, 15:18:01,9.72378,-3.5206788,2.0453467,-0.5428832,-0.26396778,-2.0599787,10.541845826446929,2.1466051148532808,stand
23/10/2020, 15:18:01,9.72378,-3.5206788,2.0453467,-0.5819786,-0.2969545,-2.0648656,10.541845826446929,2.1657679923900655,stand
23/10/2020, 15:18:01,8.538245,-3.3937428,2.3255641,-0.5819786,-0.2969545,-2.0648656,9.477730208365461,2.1657679923900655,stand
23/10/2020, 15:18:01,8.538245,-3.3937428,2.3255641,-0.5587657,-0.36537138,-2.0184398,9.477730208365461,2.1259855278649122,stand
23/10/2020, 15:18:01,7.683223,-3.319497,2.2776637,-0.5587657,-0.36537138,-2.0184398,8.674025891283641,2.1259855278649122,stand
23/10/2020, 15:18:01,7.683223,-3.319497,2.2776637,-0.5208921,-0.4716619,-1.9341404,8.674025891283641,2.0578369135656605,stand
23/10/2020, 15:18:01,7.316785,-3.2859669,2.315984,-0.5208921,-0.4716619,-1.9341404,8.348455000652491,2.0578369135656605,stand
23/10/2020, 15:18:01,7.316785,-3.2859669,2.315984,-0.4585839,-0.602387,-1.8571715,8.348455000652491,2.0055561345344284,stand
23/10/2020, 15:18:01,7.4197707,-3.1087356,2.299219,-0.4585839,-0.602387,-1.8571715,8.366817902330544,2.0055561345344284,stand
23/10/2020, 15:18:01,7.4197707,-3.1087356,2.299219,-0.36084545,-0.70623404,-1.7985284,8.366817902330544,1.9656247038366326,stand
23/10/2020, 15:18:01,7.9562554,-3.175796,2.3303542,-0.36084545,-0.70623404,-1.7985284,8.87796326642102,1.9656247038366326,stand
23/10/2020, 15:18:01,7.9562554,-3.175796,2.3303542,-0.26310706,-0.7734292,-1.7459941,8.87796326642102,1.9276704703401966,stand
23/10/2020, 15:18:01,8.768167,-3.2093263,2.304009,-0.26310706,-0.7734292,-1.7459941,9.617118949554992,1.9276704703401966,stand
23/10/2020, 15:18:01,8.768167,-3.2093263,2.304009,-0.16170348,-0.7929769,-1.7203377,9.617118949554992,1.9011897259969577,stand
23/10/2020, 15:18:01,9.611214,-3.1302907,2.3519094,-0.16170348,-0.7929769,-1.7203377,10.378132127755425,1.9011897259969577,stand
23/10/2020, 15:18:01,9.611214,-3.1302907,2.3519094,-0.06518681,-0.7844248,-1.719116,10.378132127755425,1.8907488690784493,stand
23/10/2020, 15:18:01,10.384805,-3.2189064,2.198628,-0.06518681,-0.7844248,-1.719116,11.092316821814727,1.8907488690784493,stand
23/10/2020, 15:18:01,10.384805,-3.2189064,2.198628,-0.05174778,-0.72822523,-1.7423289,11.092316821814727,1.8891002498247118,stand
23/10/2020, 15:18:04,10.830278,-3.271597,2.1459377,-0.05174778,-0.72822523,-1.7423289,11.515351710292945,1.8891002498247118,stand
23/10/2020, 15:18:04,10.830278,-3.271597,2.1459377,-0.08595622,-0.679356,-1.7484375,11.515351710292945,1.877750460860102,stand
23/10/2020, 15:18:04,10.98356,-3.302732,2.1363575,-0.08595622,-0.679356,-1.7484375,11.666646640721215,1.877750460860102,stand
23/10/2020, 15:18:04,10.98356,-3.302732,2.1363575,-0.1788077,-0.62559986,-1.7337768,11.666646640721215,1.8518448642028456,stand
23/10/2020, 15:18:04,10.966795,-3.2045362,2.1459377,-0.1788077,-0.62559986,-1.7337768,11.625174951304688,1.8518448642028456,stand
23/10/2020, 15:18:04,10.966795,-3.2045362,2.1459377,-0.28387648,-0.55962646,-1.7178943,11.625174951304688,1.8289145715263624,stand
23/10/2020, 15:18:04,10.621912,-2.9937747,2.2824538,-0.28387648,-0.55962646,-1.7178943,11.269307720392803,1.8289145715263624,stand
23/10/2020, 15:18:04,10.621912,-2.9937747,2.2824538,-0.41826677,-0.4960965,-1.7117857,11.269307720392803,1.8306471579226662,stand
23/10/2020, 15:18:04,10.111773,-2.802173,2.6345215,-0.41826677,-0.4960965,-1.7117857,10.818540578729252,1.8306471579226662,stand
23/10/2020, 15:18:04,10.111773,-2.802173,2.6345215,-0.5990828,-0.45333594,-1.7020118,10.818540578729252,1.8604456340890192,stand
23/10/2020, 15:18:04,9.836346,-2.6009912,2.9410841,-0.5990828,-0.45333594,-1.7020118,10.590978596221797,1.8604456340890192,stand
23/10/2020, 15:18:04,9.836346,-2.6009912,2.9410841,-0.82388115,-0.4105754,-1.687351,10.590978596221797,1.9221096891002982,stand
23/10/2020, 15:18:04,9.6615095,-2.565066,2.802173,-0.82388115,-0.4105754,-1.687351,10.381546278694488,1.9221096891002982,stand
23/10/2020, 15:18:04,9.6615095,-2.565066,2.802173,-1.0608968,-0.34215853,-1.6824641,10.381546278694488,2.0182318758419453,stand
23/10/2020, 15:18:04,9.501043,-2.8428884,2.567461,-1.0608968,-0.34215853,-1.6824641,10.244202966588169,2.0182318758419453,stand
23/10/2020, 15:18:04,9.501043,-2.8428884,2.567461,-1.2539301,-0.25785914,-1.705677,10.244202966588169,2.1326429965593476,stand
23/10/2020, 15:18:04,9.263936,-3.1901662,2.4716604,-1.2539301,-0.25785914,-1.705677,10.104789786227771,2.1326429965593476,stand
23/10/2020, 15:18:04,9.263936,-3.1901662,2.4716604,-1.3553337,-0.19066398,-1.7582114,10.104789786227771,2.228135855240006,stand
23/10/2020, 15:18:04,9.137,-3.6045046,2.4884255,-1.3553337,-0.19066398,-1.7582114,10.13259518949751,2.228135855240006,stand
23/10/2020, 15:18:04,9.137,-3.6045046,2.4884255,-1.3602207,-0.14057304,-1.8302934,10.13259518949751,2.284717716634932,stand
23/10/2020, 15:18:04,9.206455,-3.911067,2.668052,-1.3602207,-0.14057304,-1.8302934,10.352476240727514,2.284717716634932,stand
23/10/2020, 15:18:04,9.206455,-3.911067,2.668052,-1.2563735,-0.10636461,-1.9011538,10.352476240727514,2.2812657989479375,stand
23/10/2020, 15:18:04,9.319021,-4.0787187,2.8285182,-1.2563735,-0.10636461,-1.9011538,10.558438210974355,2.2812657989479375,stand
23/10/2020, 15:18:04,9.319021,-4.0787187,2.8285182,-1.1183181,-0.10514288,-1.9378057,10.558438210974355,2.2398172027806944,stand
23/10/2020, 15:18:04,9.371712,-4.3158255,2.787803,-1.1183181,-0.10514288,-1.9378057,10.687711419755654,2.2398172027806944,stand
23/10/2020, 15:18:04,9.371712,-4.3158255,2.787803,-1.0169145,-0.12713403,-1.9475795,10.687711419755654,2.2007598812026528,stand
23/10/2020, 15:18:04,9.371712,-4.3158255,2.787803,-0.8849676,-0.09903423,-1.9915618,10.687711419755654,2.1815805649174385,stand
23/10/2020, 15:18:04,9.371712,-4.3158255,2.787803,-0.724921,-0.026952155,-2.0770829,10.687711419755654,2.200115932490302,stand
23/10/2020, 15:18:04,9.371712,-4.3158255,2.787803,-0.5221138,0.0035910956,-2.125952,10.687711419755654,2.189129426364514,stand
23/10/2020, 15:18:04,9.371712,-4.3158255,2.787803,-0.3400761,-0.025730425,-2.1210651,10.687711419755654,2.1483088996210085,stand
23/10/2020, 15:18:05,8.145462,-3.4847536,3.8368216,-0.028534908,-0.18822052,-0.8981134,9.654701401324678,0.918068045344777,stand
23/10/2020, 15:18:05,8.145462,-3.4847536,3.8368216,0.0777556,-0.17600322,-0.8443573,9.654701401324678,0.8660036581151941,stand
23/10/2020, 15:18:05,8.145462,-3.4847536,3.8368216,0.15228114,-0.17355976,-0.78082734,9.654701401324678,0.8142504977347341,stand
23/10/2020, 15:18:05,8.145462,-3.4847536,3.8368216,0.19381995,-0.17844668,-0.7075235,9.654701401324678,0.7549827354026613,stand
23/10/2020, 15:18:05,8.145462,-3.4847536,3.8368216,0.19626342,-0.17355976,-0.63421977,9.654701401324678,0.6862048009394103,stand
23/10/2020, 15:18:05,8.145462,-3.4847536,3.8368216,0.175494,-0.14423823,-0.5548073,9.654701401324678,0.5995114329379456,stand
23/10/2020, 15:18:05,8.145462,-3.4847536,3.8368216,0.15228114,-0.089260384,-0.4729514,9.654701401324678,0.5048167971728497,stand
23/10/2020, 15:18:05,8.145462,-3.4847536,3.8368216,0.12662481,-0.026952155,-0.39353895,9.654701401324678,0.414286334829532,stand
23/10/2020, 15:18:05,8.145462,-3.4847536,3.8368216,0.09852501,0.025582237,-0.32145688,9.654701401324678,0.33718860265856476,stand
23/10/2020, 15:18:05,8.145462,-3.4847536,3.8368216,0.069203496,0.07445144,-0.23837923,9.654701401324678,0.25914628226760844,stand
23/10/2020, 15:18:05,8.145462,-3.4847536,3.8368216,0.034995053,0.11599026,-0.14797121,9.654701401324678,0.19124297031262458,stand
23/10/2020, 15:18:05,8.145462,-3.4847536,3.8368216,-4.3511856E-4,0.1416466,-0.053898,9.654701401324678,0.15155507641306865,stand
23/10/2020, 15:18:05,8.145462,-3.4847536,3.8368216,-0.02120453,0.15508562,0.041396942,9.654701401324678,0.16191012758159437,stand
23/10/2020, 15:18:05,8.145462,-3.4847536,3.8368216,-0.013874149,0.15508562,0.13424844,9.654701401324678,0.20558863048776554,stand
23/10/2020, 15:18:05,8.145462,-3.4847536,3.8368216,0.014225641,0.13065103,0.2185478,9.654701401324678,0.25502000565928684,stand
23/10/2020, 15:18:05,8.145462,-3.4847536,3.8368216,0.07164695,0.085447006,0.29185158,9.654701401324678,0.31242890593132805,stand
23/10/2020, 15:18:05,8.145462,-3.4847536,3.8368216,0.15838979,0.029247427,0.3529381,9.654701401324678,0.38795364487589135,stand
23/10/2020, 15:18:05,8.145462,-3.4847536,3.8368216,0.28667146,-0.023286965,0.40180728,9.654701401324678,0.49413752892293006,stand
23/10/2020, 15:18:05,8.145462,-3.4847536,3.8368216,0.4601571,-0.06726924,0.43968093,9.654701401324678,0.639991428168923,stand
23/10/2020, 15:18:05,8.145462,-3.4847536,3.8368216,0.66174257,-0.09536903,0.4763328,9.654701401324678,0.8209089036526956,stand
23/10/2020, 15:18:05,8.145462,-3.4847536,3.8368216,0.8718801,-0.10636461,0.5068761,9.654701401324678,1.0141063825131178,stand
23/10/2020, 15:18:05,8.145462,-3.4847536,3.8368216,1.0722438,-0.07948654,0.5349759,9.654701401324678,1.2009263493995808,stand
23/10/2020, 15:18:05,8.145462,-3.4847536,3.8368216,1.2078559,-0.012291394,0.5801799,9.654701401324678,1.3400282835460924,stand
23/10/2020, 15:18:05,8.145462,-3.4847536,3.8368216,1.2738293,0.053682026,0.6534837,9.654701401324678,1.4326771727290883,stand
23/10/2020, 15:18:05,7.9873905,-3.3697927,3.796106,1.2738293,0.053682026,0.6534837,9.463843386956942,1.4326771727290883,stand
23/10/2020, 15:18:05,8.028106,-3.2476466,3.7506008,1.2738293,0.053682026,0.6534837,9.437409412647987,1.4326771727290883,stand
23/10/2020, 15:18:05,8.135881,-3.187771,3.7625759,1.2738293,0.053682026,0.6534837,9.51374942667957,1.4326771727290883,stand
23/10/2020, 15:18:05,8.250843,-3.2213013,3.788921,1.2738293,0.053682026,0.6534837,9.63374882469846,1.4326771727290883,stand
23/10/2020, 15:18:05,8.267608,-3.276387,3.7290456,1.2738293,0.053682026,0.6534837,9.643330846891704,1.4326771727290883,stand
23/10/2020, 15:18:05,8.198153,-3.271597,3.547024,1.2738293,0.053682026,0.6534837,9.512856078743468,1.4326771727290883,stand
23/10/2020, 15:18:10,-4.550537,-6.6270194,-3.2356715,-1.9637552,-1.8668776,0.08415749,8.665699300675685,2.710839164047505,stand
23/10/2020, 15:18:10,-3.9829175,-6.3228517,-4.2439747,-1.9637552,-1.8668776,0.08415749,8.593800463589794,2.710839164047505,stand
23/10/2020, 15:18:10,-3.65959,-6.2605815,-3.9254372,-1.9637552,-1.8668776,0.08415749,8.246001270409755,2.710839164047505,stand
23/10/2020, 15:18:10,-3.7266505,-6.8761015,-2.9817994,-1.9637552,-1.8668776,0.08415749,8.370174608386662,2.710839164047505,stand
23/10/2020, 15:18:10,-3.8631666,-7.5131764,-2.4812403,-1.9637552,-1.8668776,0.08415749,8.805022968690567,2.710839164047505,stand
23/10/2020, 15:18:10,-3.784131,-7.7502837,-1.3771362,-1.9637552,-1.8668776,0.08415749,8.73401681432219,2.710839164047505,stand
23/10/2020, 15:18:10,-3.8128712,-7.9849954,-0.847837,-1.9637552,-1.8668776,0.08415749,8.88914874632001,2.710839164047505,stand
23/10/2020, 15:18:10,-3.8679566,-7.9538603,-0.33530274,-1.9637552,-1.8668776,0.08415749,8.850842326218837,2.710839164047505,stand
23/10/2020, 15:18:10,-3.8679566,-7.9538603,-0.33530274,-1.9894116,-1.8302256,0.10737036,8.850842326218837,2.705367364663714,stand
23/10/2020, 15:18:10,-3.8679566,-7.9538603,-0.33530274,-2.1567888,-1.7813565,0.13058324,8.850842326218837,2.8003608408073863,stand
23/10/2020, 15:18:10,-3.8679566,-7.9538603,-0.33530274,-2.3571525,-1.715383,0.1049269,8.850842326218837,2.9171418205516053,stand
23/10/2020, 15:18:10,-3.8679566,-7.9538603,-0.33530274,-2.453669,-1.6811745,0.08293576,8.850842326218837,2.97551978760393,stand
23/10/2020, 15:18:10,-3.8679566,-7.9538603,-0.33530274,-2.5416336,-1.6494095,0.09881825,8.850842326218837,3.031537273318638,stand
23/10/2020, 15:18:10,-3.8679566,-7.9538603,-0.33530274,-2.526973,-1.6127577,0.15623957,8.850842326218837,3.0018312302957786,stand
23/10/2020, 15:18:10,-3.8679566,-7.9538603,-0.33530274,-2.4402301,-1.5883231,0.20266531,8.850842326218837,2.918658363748696,stand
23/10/2020, 15:18:10,-3.8679566,-7.9538603,-0.33530274,-2.2337577,-1.566332,0.26253006,8.850842326218837,2.7408012563800934,stand
23/10/2020, 15:18:10,-3.9398074,-8.171807,-0.38559815,-2.2337577,-1.566332,0.26253006,9.080154336432292,2.7408012563800934,stand
23/10/2020, 15:18:10,-3.9398074,-8.171807,-0.38559815,-1.9246598,-1.52968,0.31017753,9.080154336432292,2.477992449264267,stand
23/10/2020, 15:18:10,-3.9398074,-8.171807,-0.38559815,-1.6143404,-1.4343851,0.33949906,9.080154336432292,2.186050118256468,stand
23/10/2020, 15:18:10,-3.9278321,-7.824529,-0.100590825,-1.6143404,-1.4343851,0.33949906,8.755640494941062,2.186050118256468,stand
23/10/2020, 15:18:10,-3.9278321,-7.824529,-0.100590825,-1.3345643,-1.3317598,0.35171637,8.755640494941062,1.9179026417698861,stand
23/10/2020, 15:18:10,-3.9278321,-7.824529,-0.100590825,-1.1134312,-1.2425735,0.38959,8.755640494941062,1.7133296056501948,stand
23/10/2020, 15:18:10,-3.9278321,-7.824529,-0.100590825,-0.97171044,-1.1423916,0.39447692,8.755640494941062,1.5507713270131949,stand
23/10/2020, 15:18:10,-3.9278321,-7.824529,-0.100590825,-0.8715286,-1.022662,0.38348135,8.755640494941062,1.3973037425362593,stand
23/10/2020, 15:18:10,-3.9278321,-7.824529,-0.100590825,-0.7847858,-0.92125857,0.40425074,8.755640494941062,1.2759407412574473,stand
23/10/2020, 15:18:10,-3.9278321,-7.824529,-0.100590825,-0.7481339,-0.78809,0.41646805,8.755640494941062,1.1637163753972708,stand
23/10/2020, 15:18:10,-3.9278321,-7.824529,-0.100590825,-0.68582565,-0.6536997,0.3614902,8.755640494941062,1.0140785308485778,stand
23/10/2020, 15:18:10,-3.9278321,-7.824529,-0.100590825,-0.5172269,-0.5486309,0.20755222,8.755640494941062,0.7820469441816998,stand
23/10/2020, 15:18:10,-3.9278321,-7.824529,-0.100590825,-0.22523345,-0.44234037,0.07194019,8.755640494941062,0.5015680460284626,stand
23/10/2020, 15:18:10,-3.9278321,-7.824529,-0.100590825,0.016669102,-0.39957982,-1.4187838E-4,8.755640494941062,0.39992738597624355,stand
23/10/2020, 15:18:11,-3.9278321,-7.824529,-0.100590825,-0.6943778,-0.090482116,-0.33611766,8.755640494941062,0.776738432550914,stand
23/10/2020, 15:18:11,-3.9278321,-7.824529,-0.100590825,-0.95949316,-0.053830218,-0.36910436,8.755640494941062,1.0294478336416075,stand
23/10/2020, 15:18:11,-3.9278321,-7.824529,-0.100590825,-1.1390874,-0.0049610147,-0.31290478,8.755640494941062,1.1812934447937231,stand
23/10/2020, 15:18:11,-4.0859036,-7.2569094,-0.23471193,-1.1390874,-0.0049610147,-0.31290478,8.331412358857559,1.1812934447937231,stand
23/10/2020, 15:18:11,-3.9541774,-6.813831,-0.031135255,-1.1390874,-0.0049610147,-0.31290478,7.878120273271751,1.1812934447937231,stand
23/10/2020, 15:18:11,-3.7601807,-6.3875175,0.5556446,-1.1390874,-0.0049610147,-0.31290478,7.4329051573263465,1.1812934447937231,stand
23/10/2020, 15:18:11,-3.67875,-6.1073003,1.1520045,-1.1390874,-0.0049610147,-0.31290478,7.222148772675034,1.1812934447937231,stand
23/10/2020, 15:18:11,-3.8224514,-5.965994,0.9987232,-1.1390874,-0.0049610147,-0.31290478,7.1555338993981215,1.1812934447937231,stand
23/10/2020, 15:18:11,-3.657195,-5.721702,1.096919,-1.1390874,-0.0049610147,-0.31290478,6.878675890424944,1.1812934447937231,stand
23/10/2020, 15:18:11,-4.28948,-5.6929617,1.4034815,-1.1390874,-0.0049610147,-0.31290478,7.264930390349705,1.1812934447937231,stand
23/10/2020, 15:18:11,-5.0989966,-4.840335,2.0166066,-1.1390874,-0.0049610147,-0.31290478,7.314048854892852,1.1812934447937231,stand
