DATE,TIME,ax,ay,az,gx,gy,gz,ma,mg,label
09/07/2020, 21:49:54,1.9525433,0.6939186,9.52822,0.07204556,-0.029306669,0.018316668,9.75094497555312,0.07990584119539415,walk
09/07/2020, 21:49:54,1.9525433,0.6939186,9.52822,0.10745778,-0.036633335,0.02075889,9.75094497555312,0.11541276826081265,walk
09/07/2020, 21:49:54,1.9142581,0.7680961,9.525827,0.10745778,-0.036633335,0.02075889,9.746575991892499,0.11541276826081265,walk
09/07/2020, 21:49:54,1.9142581,0.7680961,9.525827,0.12577444,-0.04396,0.015874445,9.746575991892499,0.1341778308200844,walk
09/07/2020, 21:49:54,1.9286151,0.8542377,9.549755,0.12577444,-0.04396,0.015874445,9.779933567579308,0.1341778308200844,walk
09/07/2020, 21:49:54,1.9286151,0.8542377,9.549755,0.11966889,-0.04396,0.0061055557,9.779933567579308,0.12763386541835445,walk
09/07/2020, 21:49:54,1.9214365,0.9164511,9.554541,0.11966889,-0.04396,0.0061055557,9.788822592679347,0.12763386541835445,walk
09/07/2020, 21:49:54,1.9214365,0.9164511,9.554541,0.08792,-0.039075557,0.0,9.788822592679347,0.09621240060454725,walk
09/07/2020, 21:49:54,1.9764715,0.9906286,9.58804,0.08792,-0.039075557,0.0,9.839629188843553,0.09621240060454725,walk
09/07/2020, 21:49:54,1.9764715,0.9906286,9.58804,0.05006556,-0.024422223,-0.01099,9.839629188843553,0.05677838681665062,walk
09/07/2020, 21:49:54,1.9980069,0.95473623,9.578469,0.05006556,-0.024422223,-0.01099,9.831105059221986,0.05677838681665062,walk
09/07/2020, 21:49:54,1.9980069,0.95473623,9.578469,0.01099,-0.012211111,-0.02075889,9.831105059221986,0.026473058877178487,walk
09/07/2020, 21:49:54,1.9788643,0.8925229,9.580862,0.01099,-0.012211111,-0.02075889,9.823717146425274,0.026473058877178487,walk
09/07/2020, 21:49:54,1.9788643,0.8925229,9.580862,-0.0024422223,-0.012211111,-0.025643334,9.823717146425274,0.028507126457491483,walk
09/07/2020, 21:49:54,1.9525433,0.8350951,9.58804,-0.0024422223,-0.012211111,-0.025643334,9.82040359683204,0.028507126457491483,walk
09/07/2020, 21:49:54,1.9525433,0.8350951,9.58804,0.012211111,-0.013432222,-0.023201112,9.82040359683204,0.02945891078094113,walk
09/07/2020, 21:49:54,1.9118652,0.8111669,9.564112,0.012211111,-0.013432222,-0.023201112,9.787004300566531,0.02945891078094113,walk
09/07/2020, 21:49:54,1.9118652,0.8111669,9.564112,0.026864445,-0.023201112,-0.024422223,9.787004300566531,0.04308636611131037,walk
09/07/2020, 21:49:54,1.9118652,0.81595254,9.571291,0.026864445,-0.023201112,-0.024422223,9.794417698390385,0.04308636611131037,walk
09/07/2020, 21:49:54,1.9118652,0.81595254,9.571291,0.028085556,-0.02198,-0.03174889,9.794417698390385,0.04774841306337174,walk
09/07/2020, 21:49:55,2.821138,2.225325,10.392029,-0.3944189,0.6068922,-0.8584412,10.995687958138562,1.1228560418668438,walk
09/07/2020, 21:49:55,2.993421,2.3186452,10.392029,-0.3944189,0.6068922,-0.8584412,11.060332194423196,1.1228560418668438,walk
09/07/2020, 21:49:55,2.993421,2.3186452,10.392029,-0.46646446,0.68504333,-0.97078335,11.060332194423196,1.2764379269258908,walk
09/07/2020, 21:49:55,3.0604203,2.3377876,10.377672,-0.46646446,0.68504333,-0.97078335,11.069214220004254,1.2764379269258908,walk
09/07/2020, 21:49:55,3.0604203,2.3377876,10.377672,-0.53851,0.7631945,-1.0599245,11.069214220004254,1.4127628264512804,walk
09/07/2020, 21:49:55,3.0963125,2.333002,10.327422,-0.53851,0.7631945,-1.0599245,11.031124062992143,1.4127628264512804,walk
09/07/2020, 21:49:55,3.0963125,2.333002,10.327422,-0.5873545,0.84623003,-1.1576134,11.031124062992143,1.5495674643188557,walk
09/07/2020, 21:49:55,3.0939198,2.2827528,10.301102,-0.5873545,0.84623003,-1.1576134,10.995271505896334,1.5495674643188557,walk
09/07/2020, 21:49:55,3.0939198,2.2827528,10.301102,-0.61299783,0.9280445,-1.2614079,10.995271505896334,1.681720160790463,walk
09/07/2020, 21:49:55,3.0675986,2.2085752,10.267602,-0.61299783,0.9280445,-1.2614079,10.941280356299968,1.681720160790463,walk
09/07/2020, 21:49:55,3.0675986,2.2085752,10.267602,-0.61544,1.0037534,-1.3786345,10.941280356299968,1.8129865684120818,walk
09/07/2020, 21:49:55,3.0388846,2.0697916,10.255638,-0.61544,1.0037534,-1.3786345,10.894813914764642,1.8129865684120818,walk
09/07/2020, 21:49:55,3.0388846,2.0697916,10.255638,-0.63131446,1.0843467,-1.4775445,10.894813914764642,1.9384280978412125,walk
09/07/2020, 21:49:55,2.9359934,1.8999012,10.241281,-0.63131446,1.0843467,-1.4775445,10.821899521144715,1.9384280978412125,walk
09/07/2020, 21:49:55,2.9359934,1.8999012,10.241281,-0.6752745,1.1490656,-1.5642434,10.821899521144715,2.055043782973781,walk
09/07/2020, 21:49:55,2.8354948,1.8664017,10.202995,-0.6752745,1.1490656,-1.5642434,10.752887929094499,2.055043782973781,walk
09/07/2020, 21:49:55,2.8354948,1.8664017,10.202995,-0.7351089,1.2162267,-1.6607112,10.752887929094499,2.185761670117452,walk
09/07/2020, 21:49:55,2.7349963,1.8544376,10.147961,-0.7351089,1.2162267,-1.6607112,10.672405972994918,2.185761670117452,walk
09/07/2020, 21:49:55,2.7349963,1.8544376,10.147961,-0.81570226,1.284609,-1.7559578,10.672405972994918,2.3235701623057157,walk
09/07/2020, 21:49:55,2.6608188,1.8017955,9.956535,-0.81570226,1.284609,-1.7559578,10.462266470156885,2.3235701623057157,walk
09/07/2020, 21:49:56,7.7383885,-6.178268,8.69791,-0.12455334,-0.4566956,-1.7193245,13.179806365976605,1.7833005984007804,walk
09/07/2020, 21:49:56,7.7383885,-6.178268,8.69791,-0.07693,-0.60933447,-2.0026224,13.179806365976605,2.094684477586011,walk
09/07/2020, 21:49:56,7.798209,-6.987042,8.932407,-0.07693,-0.60933447,-2.0026224,13.762947481483247,2.094684477586011,walk
09/07/2020, 21:49:56,7.798209,-6.987042,8.932407,0.26376,-0.67161113,-2.1369445,13.762947481483247,2.255473959644817,walk
09/07/2020, 21:49:56,8.322237,-7.520642,8.882157,0.26376,-0.67161113,-2.1369445,14.307774139588549,2.255473959644817,walk
09/07/2020, 21:49:56,8.322237,-7.520642,8.882157,0.6068922,-0.6777167,-1.9879689,14.307774139588549,2.1862384357907065,walk
09/07/2020, 21:49:56,8.836694,-7.3292155,8.611769,0.6068922,-0.6777167,-1.9879689,14.351554530415418,2.1862384357907065,walk
09/07/2020, 21:49:56,8.836694,-7.3292155,8.611769,0.63619894,-0.6239878,-1.7657267,14.351554530415418,1.977852518139755,walk
09/07/2020, 21:49:56,8.987442,-6.34098,8.331808,0.63619894,-0.6239878,-1.7657267,13.798592974856085,1.977852518139755,walk
09/07/2020, 21:49:56,8.987442,-6.34098,8.331808,0.3052778,-0.46768558,-1.5764545,13.798592974856085,1.672463209817242,walk
09/07/2020, 21:49:56,8.855837,-5.261817,8.078169,0.3052778,-0.46768558,-1.5764545,13.090812687867375,1.672463209817242,walk
09/07/2020, 21:49:56,8.855837,-5.261817,8.078169,-0.1856089,-0.22346334,-1.2919356,13.090812687867375,1.3241918386706617,walk
09/07/2020, 21:49:56,8.554341,-4.587041,7.7647095,-0.1856089,-0.22346334,-1.2919356,12.430141301623875,1.3241918386706617,walk
09/07/2020, 21:49:56,8.554341,-4.587041,7.7647095,-0.46524334,0.0024422223,-0.78395337,12.430141301623875,0.9116140705771127,walk
09/07/2020, 21:49:56,8.279166,-4.1611185,7.3363943,-0.46524334,0.0024422223,-0.78395337,11.818721674929987,0.9116140705771127,walk
09/07/2020, 21:49:56,8.279166,-4.1611185,7.3363943,-0.31382558,0.085477784,-0.21247335,11.818721674929987,0.3885072305820285,walk
09/07/2020, 21:49:56,8.106883,-3.7806597,6.7908306,-0.31382558,0.085477784,-0.21247335,11.23077560796208,0.3885072305820285,walk
09/07/2020, 21:49:56,8.106883,-3.7806597,6.7908306,0.10013112,-0.018316668,0.14531223,11.23077560796208,0.1774186755478504,walk
09/07/2020, 21:49:56,8.092526,-3.359523,6.343373,0.10013112,-0.018316668,0.14531223,10.817289773701612,0.1774186755478504,walk
09/07/2020, 21:49:56,8.092526,-3.359523,6.343373,0.4163989,-0.19782001,0.23323223,10.817289773701612,0.5166411550043509,walk
09/07/2020, 21:49:57,9.501899,-4.2329035,3.0987053,-1.4482379,-0.019537779,1.6497211,10.853825432151307,2.1953028461787842,walk
09/07/2020, 21:49:57,9.501899,-4.2329035,3.0987053,-1.3932878,-0.05250778,1.7046711,10.853825432151307,2.2022514865248928,walk
09/07/2020, 21:49:57,9.693324,-4.278367,3.0317063,-1.3932878,-0.05250778,1.7046711,11.020716843136517,2.2022514865248928,walk
09/07/2020, 21:49:57,9.693324,-4.278367,3.0317063,-1.3163579,-0.064718895,1.746189,11.020716843136517,2.1877299981494676,walk
09/07/2020, 21:49:57,9.906285,-4.2927237,3.0963125,-1.3163579,-0.064718895,1.746189,11.231612341522036,2.1877299981494676,walk
09/07/2020, 21:49:57,9.906285,-4.2927237,3.0963125,-1.2491968,-0.051286668,1.7840434,11.231612341522036,2.1785164336474705,walk
09/07/2020, 21:49:57,10.052248,-4.220939,3.2638102,-1.2491968,-0.051286668,1.7840434,11.380530480117892,2.1785164336474705,walk
09/07/2020, 21:49:57,10.052248,-4.220939,3.2638102,-1.2089001,-0.04151778,1.8170134,11.380530480117892,2.182819460473932,walk
09/07/2020, 21:49:57,10.059426,-4.074977,3.347559,-1.2089001,-0.04151778,1.8170134,11.357977180798088,2.182819460473932,walk
09/07/2020, 21:49:57,10.059426,-4.074977,3.347559,-1.1954678,-0.036633335,1.8353301,11.357977180798088,2.190644200754181,walk
09/07/2020, 21:49:57,9.930214,-3.900301,3.330809,-1.1954678,-0.036633335,1.8353301,11.176573077714723,2.190644200754181,walk
09/07/2020, 21:49:57,9.930214,-3.900301,3.330809,-1.1918045,-0.042738892,1.8426567,11.176573077714723,2.1949051179850847,walk
09/07/2020, 21:49:57,9.750752,-3.7567315,3.333202,-1.1918045,-0.042738892,1.8426567,10.968155714133443,2.1949051179850847,walk
09/07/2020, 21:49:57,9.750752,-3.7567315,3.333202,-1.1783723,-0.05372889,1.8316667,10.968155714133443,2.17863510370655,walk
09/07/2020, 21:49:57,9.540184,-3.7088752,3.3667014,-1.1783723,-0.05372889,1.8316667,10.77522827265717,2.17863510370655,walk
09/07/2020, 21:49:57,9.540184,-3.7088752,3.3667014,-1.1612767,-0.08425667,1.8182346,10.77522827265717,2.159083065071435,walk
09/07/2020, 21:49:57,9.353543,-3.739982,3.4313076,-1.1612767,-0.08425667,1.8182346,10.641903400577066,2.159083065071435,walk
09/07/2020, 21:49:57,9.353543,-3.739982,3.4313076,-1.0941156,-0.12821667,1.7986968,10.641903400577066,2.1092269944932376,walk
09/07/2020, 21:49:57,9.255438,-3.830909,3.4672,-1.0941156,-0.12821667,1.7986968,10.600022160707868,2.1092269944932376,walk
09/07/2020, 21:49:57,9.255438,-3.830909,3.4672,-0.9842156,-0.1746189,1.7767167,10.600022160707868,2.0386010904054674,walk
09/07/2020, 21:49:58,9.200403,-4.254439,3.6490545,0.042738892,0.078151114,0.32970002,10.773266375297238,0.34152059189612755,walk
09/07/2020, 21:49:58,9.200403,-4.254439,3.6490545,0.14164889,0.068382226,0.42372558,10.773266375297238,0.4519777644390829,walk
09/07/2020, 21:49:58,9.286545,-4.319045,3.737589,0.14164889,0.068382226,0.42372558,10.902460055524365,0.4519777644390829,walk
09/07/2020, 21:49:58,9.286545,-4.319045,3.737589,0.21980001,0.070824444,0.51775116,10.902460055524365,0.5669165787983876,walk
09/07/2020, 21:49:58,9.391829,-4.354937,3.842873,0.21980001,0.070824444,0.51775116,11.042626220450625,0.5669165787983876,walk
09/07/2020, 21:49:58,9.391829,-4.354937,3.842873,0.27841336,0.070824444,0.59956557,11.042626220450625,0.6648375484158813,walk
09/07/2020, 21:49:58,9.492328,-4.345366,3.9242291,0.27841336,0.070824444,0.59956557,11.15285008611404,0.6648375484158813,walk
09/07/2020, 21:49:58,9.492328,-4.345366,3.9242291,0.28329778,0.09036223,0.68504333,11.15285008611404,0.7467980541339351,walk
09/07/2020, 21:49:58,9.556933,-4.2687955,4.0031924,0.28329778,0.09036223,0.68504333,11.206388383290205,0.7467980541339351,walk
09/07/2020, 21:49:58,9.556933,-4.2687955,4.0031924,0.2503278,0.12089001,0.7754056,11.206388383290205,0.823730672860879,walk
09/07/2020, 21:49:58,9.571291,-4.1491547,4.048656,0.2503278,0.12089001,0.7754056,11.190027280889488,0.823730672860879,walk
09/07/2020, 21:49:58,9.571291,-4.1491547,4.048656,0.18072446,0.13920668,0.87065226,11.190027280889488,0.9000417676329128,walk
09/07/2020, 21:49:58,9.564112,-4.0103707,4.0773697,0.18072446,0.13920668,0.87065226,11.143619240846249,0.9000417676329128,walk
09/07/2020, 21:49:58,9.564112,-4.0103707,4.0773697,0.10745778,0.16973445,0.96589893,11.143619240846249,0.9865686505278431,walk
09/07/2020, 21:49:58,9.540184,-3.8763726,4.1204405,0.10745778,0.16973445,0.96589893,11.091411329280254,0.9865686505278431,walk
09/07/2020, 21:49:58,9.540184,-3.8763726,4.1204405,0.054950003,0.19904111,1.0562612,11.091411329280254,1.076254873064075,walk
09/07/2020, 21:49:58,9.487542,-3.7686956,4.168297,0.054950003,0.19904111,1.0562612,11.026840929965486,1.076254873064075,walk
09/07/2020, 21:49:58,9.487542,-3.7686956,4.168297,-0.028085556,0.21735778,1.1429601,11.026840929965486,1.1637830253638572,walk
09/07/2020, 21:49:58,9.437292,-3.67059,4.240082,-0.028085556,0.21735778,1.1429601,10.977887142448616,1.1637830253638572,walk
09/07/2020, 21:49:58,9.437292,-3.67059,4.240082,-0.109900005,0.22224224,1.2321012,10.977887142448616,1.256798708885047,walk
09/07/2020, 21:49:59,9.164511,-4.1180477,1.9788643,-0.6752745,-0.09768889,1.5227256,10.240238171384592,1.6686017968613505,walk
09/07/2020, 21:49:59,9.164511,-4.1180477,1.9788643,-0.58613336,-0.14164889,1.504409,10.240238171384592,1.6207600161547064,walk
09/07/2020, 21:49:59,8.949157,-4.1180477,2.062613,-0.58613336,-0.14164889,1.504409,10.064794888291845,1.6207600161547064,walk
09/07/2020, 21:49:59,8.949157,-4.1180477,2.062613,-0.5104245,-0.17950334,1.4934189,10.064794888291845,1.5884126412887385,walk
09/07/2020, 21:49:59,8.815159,-4.165904,2.254039,-0.5104245,-0.17950334,1.4934189,10.007121164098928,1.5884126412887385,walk
09/07/2020, 21:49:59,8.815159,-4.165904,2.254039,-0.4591378,-0.2295689,1.4934189,10.007121164098928,1.5791800095430735,walk
09/07/2020, 21:49:59,8.810373,-4.2161536,2.440679,-0.4591378,-0.2295689,1.4934189,10.067549031242573,1.5791800095430735,walk
09/07/2020, 21:49:59,8.810373,-4.2161536,2.440679,-0.40663,-0.25765446,1.4897556,10.067549031242573,1.5656007227307116,walk
09/07/2020, 21:49:59,8.9013,-4.213761,2.5339992,-0.40663,-0.25765446,1.4897556,10.169074778180171,1.5656007227307116,walk
09/07/2020, 21:49:59,8.9013,-4.213761,2.5339992,-0.3504589,-0.2503278,1.4543434,10.169074778180171,1.5167729807481392,walk
09/07/2020, 21:49:59,8.999406,-4.17069,2.5435705,-0.3504589,-0.2503278,1.4543434,10.23981017429178,1.5167729807481392,walk
09/07/2020, 21:49:59,8.999406,-4.17069,2.5435705,-0.2869611,-0.21613668,1.3993934,10.23981017429178,1.4447711720991845,walk
09/07/2020, 21:49:59,9.006584,-4.1228333,2.4670002,-0.2869611,-0.21613668,1.3993934,10.207957807677351,1.4447711720991845,walk
09/07/2020, 21:49:59,9.006584,-4.1228333,2.4670002,-0.24055889,-0.19293556,1.34078,10.207957807677351,1.3757847836704598,walk
09/07/2020, 21:49:59,8.882157,-4.058227,2.3569303,-0.24055889,-0.19293556,1.34078,10.045747651568115,1.3757847836704598,walk
09/07/2020, 21:49:59,8.882157,-4.058227,2.3569303,-0.18316667,-0.19782001,1.2919356,10.045747651568115,1.3197652377814986,walk
09/07/2020, 21:49:59,8.685946,-4.022335,2.2731814,-0.18316667,-0.19782001,1.2919356,9.838302653985464,1.3197652377814986,walk
09/07/2020, 21:49:59,8.685946,-4.022335,2.2731814,-0.12577444,-0.22346334,1.2479756,9.838302653985464,1.2740479360850285,walk
09/07/2020, 21:49:59,8.513663,-4.0295134,2.268396,-0.12577444,-0.22346334,1.2479756,9.688398243349111,1.2740479360850285,walk
09/07/2020, 21:49:59,8.513663,-4.0295134,2.268396,-0.04396,-0.25765446,1.2027946,9.688398243349111,1.2308667822101445,walk
09/07/2020, 21:50:00,8.094919,-2.7996025,3.9050865,0.35900667,0.21980001,1.2394278,9.413564247644377,1.3089610840442605,walk
09/07/2020, 21:50:00,7.982456,-2.6632116,4.031906,0.35900667,0.21980001,1.2394278,9.331054070529431,1.3089610840442605,walk
09/07/2020, 21:50:00,7.982456,-2.6632116,4.031906,0.36389112,0.20148334,1.1502867,9.331054070529431,1.2231809841999384,walk
09/07/2020, 21:50:00,7.891529,-2.5220351,4.1036906,0.36389112,0.20148334,1.1502867,9.245386371993824,1.2231809841999384,walk
09/07/2020, 21:50:00,7.891529,-2.5220351,4.1036906,0.33580557,0.19049335,1.0489345,9.245386371993824,1.1177283180051754,walk
09/07/2020, 21:50:00,7.8053875,-2.3808584,4.113262,0.33580557,0.19049335,1.0489345,9.13846193473778,1.1177283180051754,walk
09/07/2020, 21:50:00,7.8053875,-2.3808584,4.113262,0.28085557,0.18438779,0.9378134,9.13846193473778,0.996179040655676,walk
09/07/2020, 21:50:00,7.678568,-2.2875385,4.063013,0.28085557,0.18438779,0.9378134,8.983390928070325,0.996179040655676,walk
09/07/2020, 21:50:00,7.678568,-2.2875385,4.063013,0.2075889,0.1856089,0.81448114,8.983390928070325,0.8607690382951367,walk
09/07/2020, 21:50:00,7.539784,-2.2277179,3.991228,0.2075889,0.1856089,0.81448114,8.81708403014302,0.8607690382951367,walk
09/07/2020, 21:50:00,7.539784,-2.2277179,3.991228,0.12211112,0.16973445,0.70458114,8.81708403014302,0.7349527149998795,walk
09/07/2020, 21:50:00,7.3842506,-2.2325034,3.9314077,0.12211112,0.16973445,0.70458114,8.658359858931487,0.7349527149998795,walk
09/07/2020, 21:50:00,7.3842506,-2.2325034,3.9314077,0.05617111,0.14042778,0.5922389,8.658359858931487,0.6112463287027688,walk
09/07/2020, 21:50:00,7.245467,-2.2755744,3.897908,0.05617111,0.14042778,0.5922389,8.536317728497526,0.6112463287027688,walk
09/07/2020, 21:50:00,7.245467,-2.2755744,3.897908,0.024422223,0.12089001,0.4823389,8.536317728497526,0.497857066050269,walk
09/07/2020, 21:50:00,7.135397,-2.3186452,3.900301,0.024422223,0.12089001,0.4823389,8.45590641001784,0.497857066050269,walk
09/07/2020, 21:50:00,7.135397,-2.3186452,3.900301,0.0012211112,0.09524667,0.36755446,8.45590641001784,0.37969684997614095,walk
09/07/2020, 21:50:00,7.075577,-2.3665016,3.9744785,0.0012211112,0.09524667,0.36755446,8.453436916084685,0.37969684997614095,walk
09/07/2020, 21:50:00,7.075577,-2.3665016,3.9744785,-0.01099,0.07693,0.25521225,8.453436916084685,0.26678136446869744,walk
09/07/2020, 21:50:00,7.056434,-2.416751,4.0558343,-0.01099,0.07693,0.25521225,8.49021435200592,0.26678136446869744,walk
09/07/2020, 21:50:01,7.685746,-2.0554347,4.7952166,0.06349778,-0.08669889,-0.23933779,9.289220000874867,0.2623570888500637,walk
09/07/2020, 21:50:01,7.685746,-2.0554347,4.7952166,0.059834447,-0.09646778,-0.30405667,9.289220000874867,0.3245560881865181,walk
09/07/2020, 21:50:01,7.7096744,-2.062613,4.7832522,0.059834447,-0.09646778,-0.30405667,9.30445877667513,0.3245560881865181,walk
09/07/2020, 21:50:01,7.7096744,-2.062613,4.7832522,0.054950003,-0.10379445,-0.36633334,9.30445877667513,0.3846984572819161,walk
09/07/2020, 21:50:01,7.719246,-2.07697,4.773681,0.054950003,-0.10379445,-0.36633334,9.310670979068721,0.3846984572819161,walk
09/07/2020, 21:50:01,7.719246,-2.07697,4.773681,0.059834447,-0.11356334,-0.4273889,9.310670979068721,0.4462488877091093,walk
09/07/2020, 21:50:01,7.7407813,-2.0889342,4.7784667,0.059834447,-0.11356334,-0.4273889,9.333653372878198,0.4462488877091093,walk
09/07/2020, 21:50:01,7.7407813,-2.0889342,4.7784667,0.064718895,-0.12455334,-0.48600224,9.333653372878198,0.5058658352185438,walk
09/07/2020, 21:50:01,7.7623167,-2.1176481,4.790431,0.064718895,-0.12455334,-0.48600224,9.364092244994726,0.5058658352185438,walk
09/07/2020, 21:50:01,7.7623167,-2.1176481,4.790431,0.07693,-0.14287001,-0.5470578,9.364092244994726,0.5706157281877287,walk
09/07/2020, 21:50:01,7.798209,-2.1248264,4.800002,0.07693,-0.14287001,-0.5470578,9.40037095445698,0.5706157281877287,walk
09/07/2020, 21:50:01,7.798209,-2.1248264,4.800002,0.08669889,-0.15386,-0.60445005,9.40037095445698,0.6297217300258546,walk
09/07/2020, 21:50:01,7.834101,-2.132005,4.8239303,0.08669889,-0.15386,-0.60445005,9.443986976887224,0.6297217300258546,walk
09/07/2020, 21:50:01,7.834101,-2.132005,4.8239303,0.10501556,-0.16485001,-0.6667267,9.443986976887224,0.6947865125634045,walk
09/07/2020, 21:50:01,7.8723865,-2.1391835,4.8382874,0.10501556,-0.16485001,-0.6667267,9.484703430164302,0.6947865125634045,walk
09/07/2020, 21:50:01,7.8723865,-2.1391835,4.8382874,0.10501556,-0.16851334,-0.72411895,9.484703430164302,0.7508483638907381,walk
09/07/2020, 21:50:01,7.9034934,-2.1248264,4.871787,0.10501556,-0.16851334,-0.72411895,9.524410985653564,0.7508483638907381,walk
09/07/2020, 21:50:01,7.9034934,-2.1248264,4.871787,0.11600556,-0.17828223,-0.7815111,9.524410985653564,0.8099391875338681,walk
09/07/2020, 21:50:01,7.9369926,-2.0865414,4.9172506,0.11600556,-0.17828223,-0.7815111,9.567071710533586,0.8099391875338681,walk
09/07/2020, 21:50:01,7.9369926,-2.0865414,4.9172506,0.11844778,-0.18316667,-0.84623003,9.567071710533586,0.8738908219601506,walk
09/07/2020, 21:50:02,7.4679995,-3.129812,4.6564326,-0.15141778,0.18316667,1.1820356,9.340722879057624,1.2056887862083168,walk
09/07/2020, 21:50:02,7.322037,-3.0723844,4.575077,-0.15141778,0.18316667,1.1820356,9.164229633058893,1.2056887862083168,walk
09/07/2020, 21:50:02,7.322037,-3.0723844,4.575077,-0.18316667,0.17584,1.1026634,9.164229633058893,1.131519467123692,walk
09/07/2020, 21:50:02,7.1952176,-3.0652058,4.5296135,-0.18316667,0.17584,1.1026634,9.03792241238762,1.131519467123692,walk
09/07/2020, 21:50:02,7.1952176,-3.0652058,4.5296135,-0.1965989,0.16729222,1.0123012,9.03792241238762,1.044696869399552,walk
09/07/2020, 21:50:02,7.082755,-3.0987053,4.5152564,-0.1965989,0.16729222,1.0123012,8.952928824406957,1.044696869399552,walk
09/07/2020, 21:50:02,7.082755,-3.0987053,4.5152564,-0.19537778,0.15996556,0.92071784,8.952928824406957,0.954716078476408,walk
09/07/2020, 21:50:02,6.987042,-3.1489546,4.5296135,-0.19537778,0.15996556,0.92071784,8.902363106968176,0.954716078476408,walk
09/07/2020, 21:50:02,6.987042,-3.1489546,4.5296135,-0.17950334,0.14409111,0.82547116,8.902363106968176,0.8569634401125438,walk
09/07/2020, 21:50:02,6.908079,-3.199204,4.536792,-0.17950334,0.14409111,0.82547116,8.862220003182083,0.8569634401125438,walk
09/07/2020, 21:50:02,6.908079,-3.199204,4.536792,-0.15752333,0.12577444,0.7326667,8.862220003182083,0.7598902963659598,walk
09/07/2020, 21:50:02,6.8506513,-3.249453,4.5391846,-0.15752333,0.12577444,0.7326667,8.837112907880165,0.7598902963659598,walk
09/07/2020, 21:50:02,6.8506513,-3.249453,4.5391846,-0.12943779,0.117226675,0.6337567,8.837112907880165,0.6573764415382503,walk
09/07/2020, 21:50:02,6.7836523,-3.2973096,4.517649,-0.12943779,0.117226675,0.6337567,8.792004521324403,0.6573764415382503,walk
09/07/2020, 21:50:02,6.7836523,-3.2973096,4.517649,-0.08303556,0.102573335,0.5360678,8.792004521324403,0.5520732396343004,walk
09/07/2020, 21:50:02,6.71426,-3.3355947,4.4985065,-0.08303556,0.102573335,0.5360678,8.743228325343777,0.5520732396343004,walk
09/07/2020, 21:50:02,6.71426,-3.3355947,4.4985065,-0.05372889,0.08059334,0.4383789,8.743228325343777,0.44895226948189937,walk
09/07/2020, 21:50:02,6.6257257,-3.3547373,4.4674,-0.05372889,0.08059334,0.4383789,8.666727601256063,0.44895226948189937,walk
09/07/2020, 21:50:02,6.6257257,-3.3547373,4.4674,0.0036633336,0.058613338,0.34557447,8.666727601256063,0.35052910941467463,walk
09/07/2020, 21:50:02,6.546763,-3.3667014,4.4482574,0.0036633336,0.058613338,0.34557447,8.601266035977082,0.35052910941467463,walk
09/07/2020, 21:50:03,8.350951,-2.8402805,5.127819,-0.48844448,0.28085557,1.74741,10.202946029836102,1.836001026887767,walk
09/07/2020, 21:50:03,8.350951,-2.8402805,5.127819,-0.44082114,0.26864445,1.6887968,10.202946029836102,1.7659353363106491,walk
09/07/2020, 21:50:03,8.276773,-2.8259234,5.0823555,-0.44082114,0.26864445,1.6887968,10.115392207622202,1.7659353363106491,walk
09/07/2020, 21:50:03,8.276773,-2.8259234,5.0823555,-0.38831335,0.2613178,1.6301835,10.115392207622202,1.6960460946303157,walk
09/07/2020, 21:50:03,8.207381,-2.7948167,5.0249276,-0.38831335,0.2613178,1.6301835,10.021078039451837,1.6960460946303157,walk
09/07/2020, 21:50:03,8.207381,-2.7948167,5.0249276,-0.32970002,0.24422224,1.5532534,10.021078039451837,1.6065312849851303,walk
09/07/2020, 21:50:03,8.12124,-2.7397819,4.955536,-0.32970002,0.24422224,1.5532534,9.900417880864085,1.6065312849851303,walk
09/07/2020, 21:50:03,8.12124,-2.7397819,4.955536,-0.2759711,0.22590557,1.4787656,9.900417880864085,1.5211643900613196,walk
09/07/2020, 21:50:03,8.006385,-2.6895328,4.898108,-0.2759711,0.22590557,1.4787656,9.76356732156755,1.5211643900613196,walk
09/07/2020, 21:50:03,8.006385,-2.6895328,4.898108,-0.20636779,0.21735778,1.3981723,9.76356732156755,1.4299362707082397,walk
09/07/2020, 21:50:03,7.884351,-2.629712,4.8263235,-0.20636779,0.21735778,1.3981723,9.61102343870547,1.4299362707082397,walk
09/07/2020, 21:50:03,7.884351,-2.629712,4.8263235,-0.16240779,0.19537778,1.3151367,9.61102343870547,1.3394525859912323,walk
09/07/2020, 21:50:03,7.7790666,-2.5579274,4.749753,-0.16240779,0.19537778,1.3151367,9.466626778430335,1.3394525859912323,walk
09/07/2020, 21:50:03,7.7790666,-2.5579274,4.749753,-0.12699556,0.17706113,1.2321012,9.466626778430335,1.2512201594280767,walk
09/07/2020, 21:50:03,7.690532,-2.4837499,4.6875396,-0.12699556,0.17706113,1.2321012,9.34271514733127,1.2512201594280767,walk
09/07/2020, 21:50:03,7.690532,-2.4837499,4.6875396,-0.08669889,0.1526389,1.1417389,9.34271514733127,1.1551549796651863,walk
09/07/2020, 21:50:03,7.62114,-2.4143581,4.6325045,-0.08669889,0.1526389,1.1417389,9.23964272975476,1.1551549796651863,walk
09/07/2020, 21:50:03,7.62114,-2.4143581,4.6325045,-0.06227667,0.13188,1.0452712,9.23964272975476,1.0553968505483893,walk
09/07/2020, 21:50:03,7.5637126,-2.349752,4.599005,-0.06227667,0.13188,1.0452712,9.158707960548904,1.0553968505483893,walk
09/07/2020, 21:50:03,7.5637126,-2.349752,4.599005,-0.039075557,0.11112112,0.94880337,9.158707960548904,0.9560871445217058,walk
09/07/2020, 21:50:04,8.760123,-2.9838498,5.367101,-0.31871,0.44082114,1.7266512,10.698078987793009,1.810310382189598,walk
09/07/2020, 21:50:04,8.760123,-2.9838498,5.367101,-0.2869611,0.43471557,1.7095556,10.698078987793009,1.7871498934918264,walk
09/07/2020, 21:50:04,8.635697,-2.926422,5.2642097,-0.2869611,0.43471557,1.7095556,10.528585833798042,1.7871498934918264,walk
09/07/2020, 21:50:04,8.635697,-2.926422,5.2642097,-0.29062447,0.4163989,1.6826912,10.528585833798042,1.7576405681297793,walk
09/07/2020, 21:50:04,8.487342,-2.8402805,5.17089,-0.29062447,0.4163989,1.6826912,10.336356591827938,1.7576405681297793,walk
09/07/2020, 21:50:04,8.487342,-2.8402805,5.17089,-0.2955089,0.39808223,1.6448368,10.336356591827938,1.7179298611951686,walk
09/07/2020, 21:50:04,8.327023,-2.7732813,5.0799623,-0.2955089,0.39808223,1.6448368,10.140828884023705,1.7179298611951686,walk
09/07/2020, 21:50:04,8.327023,-2.7732813,5.0799623,-0.2955089,0.37610224,1.6033189,10.140828884023705,1.6731437443356303,walk
09/07/2020, 21:50:04,8.16431,-2.7206392,5.0081778,-0.2955089,0.37610224,1.6033189,9.956891456304461,1.6731437443356303,walk
09/07/2020, 21:50:04,8.16431,-2.7206392,5.0081778,-0.30772,0.36633334,1.5556957,9.956891456304461,1.6275996679884692,walk
09/07/2020, 21:50:04,8.023134,-2.6871397,4.9268217,-0.30772,0.36633334,1.5556957,9.79106608497506,1.6275996679884692,walk
09/07/2020, 21:50:04,8.023134,-2.6871397,4.9268217,-0.30772,0.35168,1.4946401,9.79106608497506,1.5659883447164589,walk
09/07/2020, 21:50:04,7.908279,-2.6823542,4.922036,-0.30772,0.35168,1.4946401,9.693417354680689,1.5659883447164589,walk
09/07/2020, 21:50:04,7.908279,-2.6823542,4.922036,-0.31260446,0.34313223,1.4360267,9.693417354680689,1.5091832007877606,walk
09/07/2020, 21:50:04,7.8436728,-2.7565317,4.9579287,-0.31260446,0.34313223,1.4360267,9.680016834570928,1.5091832007877606,walk
09/07/2020, 21:50:04,7.8436728,-2.7565317,4.9579287,-0.29917222,0.32359445,1.3786345,9.680016834570928,1.4473597831817162,walk
09/07/2020, 21:50:04,7.812566,-2.8522446,4.9770713,-0.29917222,0.32359445,1.3786345,9.692405395971225,1.4473597831817162,walk
09/07/2020, 21:50:04,7.812566,-2.8522446,4.9770713,-0.27841336,0.30772,1.3065889,9.692405395971225,1.3709048548002658,walk
09/07/2020, 21:50:04,7.769495,-2.9096723,4.979464,-0.27841336,0.30772,1.3065889,9.676068811489314,1.3709048548002658,walk
09/07/2020, 21:50:04,7.769495,-2.9096723,4.979464,-0.23811668,0.30405667,1.2272167,9.676068811489314,1.2865499968790546,walk
09/07/2020, 21:50:05,9.032906,-1.8592232,4.749753,-0.058613338,0.07326667,1.29682,10.373535936126114,1.3002098892690173,walk
09/07/2020, 21:50:05,9.006584,-1.8185452,4.7545385,-0.058613338,0.07326667,1.29682,10.345593350909729,1.3002098892690173,walk
09/07/2020, 21:50:05,9.006584,-1.8185452,4.7545385,-0.058613338,0.07693,1.2736189,10.345593350909729,1.2772857722388642,walk
09/07/2020, 21:50:05,8.973084,-1.8017955,4.752146,-0.058613338,0.07693,1.2736189,10.312400346027363,1.2772857722388642,walk
09/07/2020, 21:50:05,8.973084,-1.8017955,4.752146,-0.05006556,0.07326667,1.2528601,10.312400346027363,1.2559987731962488,walk
09/07/2020, 21:50:05,8.930014,-1.7898313,4.752146,-0.05006556,0.07326667,1.2528601,10.272854000402425,1.2559987731962488,walk
09/07/2020, 21:50:05,8.930014,-1.7898313,4.752146,-0.036633335,0.07204556,1.2272167,10.272854000402425,1.22987537694812,walk
09/07/2020, 21:50:05,8.88455,-1.7682959,4.74736,-0.036633335,0.07204556,1.2272167,10.227391156396648,1.22987537694812,walk
09/07/2020, 21:50:05,8.88455,-1.7682959,4.74736,-0.015874445,0.06227667,1.1918045,10.227391156396648,1.19353609707682,walk
09/07/2020, 21:50:05,8.846265,-1.7371893,4.74736,-0.015874445,0.06227667,1.1918045,10.188800586562412,1.19353609707682,walk
09/07/2020, 21:50:05,8.846265,-1.7371893,4.74736,-0.0036633336,0.051286668,1.1576134,10.188800586562412,1.158754727444983,walk
09/07/2020, 21:50:05,8.817552,-1.7012969,4.76411,-0.0036633336,0.051286668,1.1576134,10.165646689124854,1.158754727444983,walk
09/07/2020, 21:50:05,8.817552,-1.7012969,4.76411,0.012211111,0.047623336,1.1234223,10.165646689124854,1.124497522904845,walk
09/07/2020, 21:50:05,8.781659,-1.6582261,4.759324,0.012211111,0.047623336,1.1234223,10.125137853665468,1.124497522904845,walk
09/07/2020, 21:50:05,8.781659,-1.6582261,4.759324,0.02075889,0.042738892,1.0831256,10.125137853665468,1.08416723381623,walk
09/07/2020, 21:50:05,8.740981,-1.6127625,4.752146,0.02075889,0.042738892,1.0831256,10.07911914514765,1.08416723381623,walk
09/07/2020, 21:50:05,8.740981,-1.6127625,4.752146,0.02198,0.04396,1.0367234,10.07911914514765,1.0378877391514094,walk
09/07/2020, 21:50:05,8.700303,-1.5720844,4.7282176,0.02198,0.04396,1.0367234,10.026104167560838,1.0378877391514094,walk
09/07/2020, 21:50:05,8.700303,-1.5720844,4.7282176,0.007326667,0.045181114,0.9866578,10.026104167560838,0.9877188993139396,walk
09/07/2020, 21:50:05,8.647661,-1.5314065,4.7114677,0.007326667,0.045181114,0.9866578,9.966201814887265,0.9877188993139396,walk
09/07/2020, 21:50:06,9.336794,-1.9908284,4.871787,-0.9549089,0.19904111,1.5935501,10.717902186888034,1.8683870752291254,walk
09/07/2020, 21:50:06,9.336794,-1.9908284,4.871787,-1.0379444,0.20514667,1.61553,10.717902186888034,1.931152773600687,walk
09/07/2020, 21:50:06,9.3104725,-2.0315065,4.8646083,-1.0379444,0.20514667,1.61553,10.69936122236665,1.931152773600687,walk
09/07/2020, 21:50:06,9.3104725,-2.0315065,4.8646083,-1.1148745,0.21247335,1.6399523,10.69936122236665,1.9943754880274236,walk
09/07/2020, 21:50:06,9.226724,-2.0961127,4.855037,-1.1148745,0.21247335,1.6399523,10.634731054556156,1.9943754880274236,walk
09/07/2020, 21:50:06,9.226724,-2.0961127,4.855037,-1.174709,0.20148334,1.6619323,10.634731054556156,2.045129779670579,walk
09/07/2020, 21:50:06,9.131011,-2.199004,4.855037,-1.174709,0.20148334,1.6619323,10.572718036979676,2.045129779670579,walk
09/07/2020, 21:50:06,9.131011,-2.199004,4.855037,-1.2003523,0.1856089,1.6741434,10.572718036979676,2.0683453697121297,walk
09/07/2020, 21:50:06,9.056833,-2.321038,4.8454657,-1.2003523,0.1856089,1.6741434,10.530526279659266,2.0683453697121297,walk
09/07/2020, 21:50:06,9.056833,-2.321038,4.8454657,-1.1954678,0.16607112,1.6863545,10.530526279659266,2.073768190492827,walk
09/07/2020, 21:50:06,8.999406,-2.4646072,4.867001,-1.1954678,0.16607112,1.6863545,10.523844068411993,2.073768190492827,walk
09/07/2020, 21:50:06,8.999406,-2.4646072,4.867001,-1.1563922,0.1526389,1.6961234,10.523844068411993,2.058488778083467,walk
09/07/2020, 21:50:06,8.970692,-2.6392834,4.898108,-1.1563922,0.1526389,1.6961234,10.556068786801275,2.058488778083467,walk
09/07/2020, 21:50:06,8.970692,-2.6392834,4.898108,-1.0867889,0.13798556,1.6961234,10.556068786801275,2.0191544193417363,walk
09/07/2020, 21:50:06,8.949157,-2.792424,4.914858,-1.0867889,0.13798556,1.6961234,10.58493581252298,2.0191544193417363,walk
09/07/2020, 21:50:06,8.949157,-2.792424,4.914858,-0.99398446,0.12943779,1.691239,10.58493581252298,1.9659726861419637,walk
09/07/2020, 21:50:06,8.941978,-2.9455647,4.9531426,-0.99398446,0.12943779,1.691239,10.638089697024077,1.9659726861419637,walk
09/07/2020, 21:50:06,8.941978,-2.9455647,4.9531426,-0.8865267,0.11844778,1.6875756,10.638089697024077,1.9099400009247427,walk
09/07/2020, 21:50:06,8.939586,-3.1058838,4.981857,-0.8865267,0.11844778,1.6875756,10.694933568957682,1.9099400009247427,walk
09/07/2020, 21:50:06,8.939586,-3.1058838,4.981857,-0.7754056,0.12089001,1.6765857,10.694933568957682,1.851163887750213,walk
09/07/2020, 21:50:07,8.930014,-2.239682,4.766503,-0.3162678,0.048844445,1.2211112,10.367298041113624,1.2623484478742926,walk
09/07/2020, 21:50:07,8.961121,-2.2181466,4.792824,-0.3162678,0.048844445,1.2211112,10.401587214229929,1.2623484478742926,walk
09/07/2020, 21:50:07,8.961121,-2.2181466,4.792824,-0.32237336,0.047623336,1.2711767,10.401587214229929,1.3122815085413688,walk
09/07/2020, 21:50:07,9.001799,-2.1966112,4.8239303,-0.32237336,0.047623336,1.2711767,10.446424382182505,1.3122815085413688,walk
09/07/2020, 21:50:07,9.001799,-2.1966112,4.8239303,-0.3370267,0.05372889,1.3175789,10.446424382182505,1.3610613392053872,walk
09/07/2020, 21:50:07,9.0544405,-2.1774685,4.883751,-0.3370267,0.05372889,1.3175789,10.51547835233043,1.3610613392053872,walk
09/07/2020, 21:50:07,9.0544405,-2.1774685,4.883751,-0.37610224,0.058613338,1.3688656,10.51547835233043,1.4208031086002693,walk
09/07/2020, 21:50:07,9.123833,-2.184647,4.9459643,-0.37610224,0.058613338,1.3688656,10.60563856074172,1.4208031086002693,walk
09/07/2020, 21:50:07,9.123833,-2.184647,4.9459643,-0.3944189,0.08425667,1.4140468,10.60563856074172,1.47043996933983,walk
09/07/2020, 21:50:07,9.188439,-2.225325,5.005785,-0.3944189,0.08425667,1.4140468,10.69754052228924,1.47043996933983,walk
09/07/2020, 21:50:07,9.188439,-2.225325,5.005785,-0.39075556,0.10867889,1.4567856,10.69754052228924,1.5121921766811843,walk
09/07/2020, 21:50:07,9.233903,-2.3162522,5.072784,-0.39075556,0.10867889,1.4567856,10.78717408389716,1.5121921766811843,walk
09/07/2020, 21:50:07,9.233903,-2.3162522,5.072784,-0.39197668,0.11356334,1.4946401,10.78717408389716,1.5493519343942606,walk
09/07/2020, 21:50:07,9.241081,-2.4095724,5.1206403,-0.39197668,0.11356334,1.4946401,10.836262190940559,1.5493519343942606,walk
09/07/2020, 21:50:07,9.241081,-2.4095724,5.1206403,-0.37732336,0.117226675,1.5300523,10.836262190940559,1.5802452545726282,walk
09/07/2020, 21:50:07,9.23151,-2.4933212,5.163711,-0.37732336,0.117226675,1.5300523,10.867444152647074,1.5802452545726282,walk
09/07/2020, 21:50:07,9.23151,-2.4933212,5.163711,-0.34679556,0.123332225,1.570349,10.867444152647074,1.6129085250575634,walk
09/07/2020, 21:50:07,9.209974,-2.5866413,5.168497,-0.34679556,0.123332225,1.570349,10.87325626487364,1.6129085250575634,walk
09/07/2020, 21:50:07,9.209974,-2.5866413,5.168497,-0.30405667,0.11966889,1.6106457,10.87325626487364,1.6434568813767283,walk
09/07/2020, 21:50:07,9.193225,-2.6416762,5.1589255,-0.30405667,0.11966889,1.6106457,10.867766556519545,1.6434568813767283,walk
09/07/2020, 21:50:08,8.719446,-2.199004,4.814359,-0.23201112,0.08425667,0.7131289,10.200118353359956,0.7546397891252095,walk
09/07/2020, 21:50:08,8.719446,-2.199004,4.814359,-0.24544334,0.08059334,0.7680789,10.200118353359956,0.8103597682155335,walk
09/07/2020, 21:50:08,8.748159,-2.1655045,4.8382874,-0.24544334,0.08059334,0.7680789,10.228818460604694,0.8103597682155335,walk
09/07/2020, 21:50:08,8.748159,-2.1655045,4.8382874,-0.2625389,0.08792,0.8181445,10.228818460604694,0.8637227734524501,walk
09/07/2020, 21:50:08,8.772088,-2.1080768,4.867001,-0.2625389,0.08792,0.8181445,10.25091292996657,0.8637227734524501,walk
09/07/2020, 21:50:08,8.772088,-2.1080768,4.867001,-0.2955089,0.102573335,0.8645467,10.25091292996657,0.9193953548210502,walk
09/07/2020, 21:50:08,8.803194,-2.0745773,4.883751,-0.2955089,0.102573335,0.8645467,10.278673042827904,0.9193953548210502,walk
09/07/2020, 21:50:08,8.803194,-2.0745773,4.883751,-0.32481557,0.11112112,0.9097278,10.278673042827904,0.9723465173649679,walk
09/07/2020, 21:50:08,8.812766,-2.0482562,4.8789654,-0.32481557,0.11112112,0.9097278,10.279324021795542,0.9723465173649679,walk
09/07/2020, 21:50:08,8.812766,-2.0482562,4.8789654,-0.3602278,0.11966889,0.9512456,10.279324021795542,1.0241840215916735,walk
09/07/2020, 21:50:08,8.82473,-2.0578275,4.9028935,-0.3602278,0.11966889,0.9512456,10.302857717869774,1.0241840215916735,walk
09/07/2020, 21:50:08,8.82473,-2.0578275,4.9028935,-0.3858711,0.12699556,0.98910004,10.302857717869774,1.0692723112726554,walk
09/07/2020, 21:50:08,8.834301,-2.0697916,4.9316072,-0.3858711,0.12699556,0.98910004,10.327132282660747,1.0692723112726554,walk
09/07/2020, 21:50:08,8.834301,-2.0697916,4.9316072,-0.41151446,0.14164889,1.0245123,10.327132282660747,1.1131190383784992,walk
09/07/2020, 21:50:08,8.846265,-2.105684,4.979464,-0.41151446,0.14164889,1.0245123,10.367515090684165,1.1131190383784992,walk
09/07/2020, 21:50:08,8.846265,-2.105684,4.979464,-0.42006224,0.15019667,1.0574822,10.367515090684165,1.147728200528773,walk
09/07/2020, 21:50:08,8.85823,-2.1655045,5.0249276,-0.42006224,0.15019667,1.0574822,10.411894131171758,1.147728200528773,walk
09/07/2020, 21:50:08,8.85823,-2.1655045,5.0249276,-0.4163989,0.16240779,1.0965579,10.411894131171758,1.1841467282409486,walk
09/07/2020, 21:50:08,8.877372,-2.2564318,5.089534,-0.4163989,0.16240779,1.0965579,10.478672090155431,1.1841467282409486,walk
09/07/2020, 21:50:08,8.877372,-2.2564318,5.089534,-0.40296668,0.16729222,1.1344123,10.478672090155431,1.2154258809315384,walk
09/07/2020, 21:50:09,8.7577305,-2.2875385,4.8191447,0.014653334,0.0036633336,-0.5226356,10.254502993214585,0.5228537929218069,walk
09/07/2020, 21:50:09,8.695518,-2.2995026,4.773681,0.014653334,0.0036633336,-0.5226356,10.182719155525271,0.5228537929218069,walk
09/07/2020, 21:50:09,8.695518,-2.2995026,4.773681,0.023201112,0.0036633336,-0.45791668,10.182719155525271,0.45851869609687473,walk
09/07/2020, 21:50:09,8.626125,-2.268396,4.725825,0.023201112,0.0036633336,-0.45791668,10.094012018069467,0.45851869609687473,walk
09/07/2020, 21:50:09,8.626125,-2.268396,4.725825,0.024422223,0.01099,-0.3834289,10.094012018069467,0.38436304131129145,walk
09/07/2020, 21:50:09,8.56152,-2.2588246,4.666004,0.024422223,0.01099,-0.3834289,10.008671329508717,0.38436304131129145,walk
09/07/2020, 21:50:09,8.56152,-2.2588246,4.666004,0.029306669,0.0061055557,-0.30039334,10.008671329508717,0.3018812997644666,walk
09/07/2020, 21:50:09,8.5112705,-2.2612174,4.651647,0.029306669,0.0061055557,-0.30039334,9.959550718036294,0.3018812997644666,walk
09/07/2020, 21:50:09,8.5112705,-2.2612174,4.651647,0.028085556,-0.0036633336,-0.21491556,9.959550718036294,0.21677388180253282,walk
09/07/2020, 21:50:09,8.5112705,-2.251646,4.627719,0.028085556,-0.0036633336,-0.21491556,9.946226333036114,0.21677388180253282,walk
09/07/2020, 21:50:09,8.5112705,-2.251646,4.627719,0.029306669,-0.0061055557,-0.13676445,9.946226333036114,0.14000240690307209,walk
09/07/2020, 21:50:09,8.544769,-2.2229323,4.6205406,0.029306669,-0.0061055557,-0.13676445,9.965134518073658,0.14000240690307209,walk
09/07/2020, 21:50:09,8.544769,-2.2229323,4.6205406,0.017095556,0.0024422223,-0.05617111,9.965134518073658,0.05876577488604527,walk
09/07/2020, 21:50:09,8.592627,-2.1822543,4.627719,0.017095556,0.0024422223,-0.05617111,10.000562371484005,0.05876577488604527,walk
09/07/2020, 21:50:09,8.592627,-2.1822543,4.627719,0.009768889,0.008547778,0.023201112,10.000562371484005,0.026585471503144043,walk
09/07/2020, 21:50:09,8.626125,-2.158326,4.625326,0.009768889,0.008547778,0.023201112,10.023075929992707,0.026585471503144043,walk
09/07/2020, 21:50:09,8.626125,-2.158326,4.625326,-0.013432222,0.01099,0.11234222,10.023075929992707,0.11367488681719837,walk
09/07/2020, 21:50:09,8.6548395,-2.1176481,4.6301117,-0.013432222,0.01099,0.11234222,10.041345274629808,0.11367488681719837,walk
09/07/2020, 21:50:09,8.6548395,-2.1176481,4.6301117,-0.023201112,0.023201112,0.19171445,10.041345274629808,0.19450196344079332,walk
09/07/2020, 21:50:09,8.645268,-2.0745773,4.6229334,-0.023201112,0.023201112,0.19171445,10.020780938435282,0.19450196344079332,walk
09/07/2020, 21:50:10,8.88455,-1.8185452,5.2737813,0.29917222,-0.29917222,-1.6851335,10.4907152427725,1.737435698403915,walk
09/07/2020, 21:50:10,8.987442,-1.8640088,5.252246,0.29917222,-0.29917222,-1.6851335,10.575194077436127,1.737435698403915,walk
09/07/2020, 21:50:10,8.987442,-1.8640088,5.252246,0.37488112,-0.30894113,-1.6875756,10.575194077436127,1.7561013086032147,walk
09/07/2020, 21:50:10,9.071191,-1.8424734,5.259424,0.37488112,-0.30894113,-1.6875756,10.646255414397608,1.7561013086032147,walk
09/07/2020, 21:50:10,9.071191,-1.8424734,5.259424,0.4163989,-0.3162678,-1.6887968,10.646255414397608,1.7678936225038413,walk
09/07/2020, 21:50:10,9.135797,-1.7754744,5.252246,0.4163989,-0.3162678,-1.6887968,10.686494982979411,1.7678936225038413,walk
09/07/2020, 21:50:10,9.135797,-1.7754744,5.252246,0.4383789,-0.3162678,-1.6875756,10.686494982979411,1.7720363167820201,walk
09/07/2020, 21:50:10,9.219545,-1.7228323,5.235496,0.4383789,-0.3162678,-1.6875756,10.74144248992686,1.7720363167820201,walk
09/07/2020, 21:50:10,9.219545,-1.7228323,5.235496,0.42250445,-0.31016225,-1.680249,10.74144248992686,1.7600986489045012,walk
09/07/2020, 21:50:10,9.322437,-1.6342978,5.206782,0.42250445,-0.31016225,-1.680249,10.802284193382206,1.7600986489045012,walk
09/07/2020, 21:50:10,9.322437,-1.6342978,5.206782,0.37610224,-0.2955089,-1.6790278,10.802284193382206,1.7458272360130591,walk
09/07/2020, 21:50:10,9.389436,-1.5290136,5.178068,0.37610224,-0.2955089,-1.6790278,10.831056117294855,1.7458272360130591,walk
09/07/2020, 21:50:10,9.389436,-1.5290136,5.178068,0.31382558,-0.27841336,-1.669259,10.831056117294855,1.7211699331650485,walk
09/07/2020, 21:50:10,9.408579,-1.4787644,5.151747,0.31382558,-0.27841336,-1.669259,10.828139271632073,1.7211699331650485,walk
09/07/2020, 21:50:10,9.408579,-1.4787644,5.151747,0.2283478,-0.25765446,-1.6497211,10.828139271632073,1.6852621139992752,walk
09/07/2020, 21:50:10,9.41815,-1.5002998,5.123033,0.2283478,-0.25765446,-1.6497211,10.825798611052276,1.6852621139992752,walk
09/07/2020, 21:50:10,9.41815,-1.5002998,5.123033,0.16607112,-0.23323223,-1.6191934,10.825798611052276,1.6443127038334446,walk
09/07/2020, 21:50:10,9.406186,-1.550549,5.1182475,0.16607112,-0.23323223,-1.6191934,10.820212422984138,1.6443127038334446,walk
09/07/2020, 21:50:10,9.406186,-1.550549,5.1182475,0.12455334,-0.21613668,-1.5886656,10.820212422984138,1.6081315248369377,walk
09/07/2020, 21:50:10,9.379865,-1.6079768,5.1254263,0.12455334,-0.21613668,-1.5886656,10.809137139613998,1.6081315248369377,walk
09/07/2020, 21:50:11,7.4392858,-2.4263222,4.9531426,0.31993112,-0.45547447,-1.5447056,9.260865732334729,1.64192825419916,walk
09/07/2020, 21:50:11,7.5828547,-2.4071796,5.0249276,0.31993112,-0.45547447,-1.5447056,9.409787312740553,1.64192825419916,walk
09/07/2020, 21:50:11,7.5828547,-2.4071796,5.0249276,0.34313223,-0.46280113,-1.6228567,9.409787312740553,1.722088440380122,walk
09/07/2020, 21:50:11,7.7407813,-2.416751,5.0847483,0.34313223,-0.46280113,-1.6228567,9.571574851990881,1.722088440380122,walk
09/07/2020, 21:50:11,7.7407813,-2.416751,5.0847483,0.36755446,-0.4701278,-1.6973445,9.571574851990881,1.7991928498295016,walk
09/07/2020, 21:50:11,7.9130645,-2.4047868,5.17089,0.36755446,-0.4701278,-1.6973445,9.753855187726147,1.7991928498295016,walk
09/07/2020, 21:50:11,7.9130645,-2.4047868,5.17089,0.3944189,-0.48111778,-1.7645056,9.753855187726147,1.8709678478787442,walk
09/07/2020, 21:50:11,8.066205,-2.3856442,5.2546387,0.3944189,-0.48111778,-1.7645056,9.917973044411028,1.8709678478787442,walk
09/07/2020, 21:50:11,8.066205,-2.3856442,5.2546387,0.40785113,-0.4823389,-1.8231189,9.917973044411028,1.9294444741148309,walk
09/07/2020, 21:50:11,8.224132,-2.3688943,5.319245,0.40785113,-0.4823389,-1.8231189,10.076823239437951,1.9294444741148309,walk
09/07/2020, 21:50:11,8.224132,-2.3688943,5.319245,0.41762,-0.48600224,-1.8719634,10.076823239437951,1.9785983785889079,walk
09/07/2020, 21:50:11,8.372486,-2.3521447,5.367101,0.41762,-0.48600224,-1.8719634,10.219436565829037,1.9785983785889079,walk
09/07/2020, 21:50:11,8.372486,-2.3521447,5.367101,0.41884112,-0.48356003,-1.9134812,10.219436565829037,2.0175898056533352,walk
09/07/2020, 21:50:11,8.523234,-2.3258235,5.4053864,0.41884112,-0.48356003,-1.9134812,10.357276760661357,2.0175898056533352,walk
09/07/2020, 21:50:11,8.523234,-2.3258235,5.4053864,0.40785113,-0.48478112,-1.9488934,10.357276760661357,2.049278133352586,walk
09/07/2020, 21:50:11,8.669196,-2.292324,5.4317074,0.40785113,-0.48478112,-1.9488934,10.483947549971822,2.049278133352586,walk
09/07/2020, 21:50:11,8.669196,-2.292324,5.4317074,0.3809867,-0.4798967,-1.9782001,10.483947549971822,2.070924248810721,walk
09/07/2020, 21:50:11,8.817552,-2.2444677,5.4460645,0.3809867,-0.4798967,-1.9782001,10.604077993651641,2.070924248810721,walk
09/07/2020, 21:50:11,8.817552,-2.2444677,5.4460645,0.3382478,-0.4701278,-2.00018,10.604077993651641,2.082342857141772,walk
09/07/2020, 21:50:11,8.980264,-2.201397,5.4867425,0.3382478,-0.4701278,-2.00018,10.751540727783608,2.082342857141772,walk
09/07/2020, 21:50:12,7.7120676,-2.8498518,4.843073,0.5018767,-0.5030978,-1.6582689,9.542169423542914,1.804118466732972,walk
09/07/2020, 21:50:12,7.865208,-2.861816,4.914858,0.5018767,-0.5030978,-1.6582689,9.706045408265224,1.804118466732972,walk
09/07/2020, 21:50:12,7.865208,-2.861816,4.914858,0.56171113,-0.5104245,-1.7229879,9.706045408265224,1.8827479467958372,walk
09/07/2020, 21:50:12,8.003992,-2.8642087,4.965107,0.56171113,-0.5104245,-1.7229879,9.844788868231339,1.8827479467958372,walk
09/07/2020, 21:50:12,8.003992,-2.8642087,4.965107,0.6252089,-0.52141446,-1.7779379,9.844788868231339,1.955459629290424,walk
09/07/2020, 21:50:12,8.13799,-2.8474588,5.020142,0.6252089,-0.52141446,-1.7779379,9.976809586978233,1.955459629290424,walk
09/07/2020, 21:50:12,8.13799,-2.8474588,5.020142,0.6935911,-0.5287411,-1.8267823,9.976809586978233,2.024294828067657,walk
09/07/2020, 21:50:12,8.293523,-2.833102,5.0512486,0.6935911,-0.5287411,-1.8267823,10.115537543924555,2.024294828067657,walk
09/07/2020, 21:50:12,8.293523,-2.833102,5.0512486,0.7522045,-0.5324045,-1.8609734,10.115537543924555,2.0766530641888394,walk
09/07/2020, 21:50:12,8.453842,-2.8187451,5.111069,0.7522045,-0.5324045,-1.8609734,10.27306185387406,2.0766530641888394,walk
09/07/2020, 21:50:12,8.453842,-2.8187451,5.111069,0.7986067,-0.5324045,-1.8939434,10.27306185387406,2.1232637368830014,walk
09/07/2020, 21:50:12,8.623733,-2.8139594,5.17089,0.7986067,-0.5324045,-1.8939434,10.441514859030068,2.1232637368830014,walk
09/07/2020, 21:50:12,8.623733,-2.8139594,5.17089,0.8413456,-0.52752,-1.9195868,10.441514859030068,2.1612388070161064,walk
09/07/2020, 21:50:12,8.772088,-2.8235307,5.245067,0.8413456,-0.52752,-1.9195868,10.603423189127751,2.1612388070161064,walk
09/07/2020, 21:50:12,8.772088,-2.8235307,5.245067,0.8853056,-0.5287411,-1.9366823,10.603423189127751,2.194099279667974,walk
09/07/2020, 21:50:12,8.903693,-2.8354948,5.316852,0.8853056,-0.5287411,-1.9366823,10.751032474888047,2.194099279667974,walk
09/07/2020, 21:50:12,8.903693,-2.8354948,5.316852,0.92193896,-0.5250778,-1.9501145,10.751032474888047,2.220050601611902,walk
09/07/2020, 21:50:12,9.032906,-2.8522446,5.400601,0.92193896,-0.5250778,-1.9501145,10.903906306008617,2.220050601611902,walk
09/07/2020, 21:50:12,9.032906,-2.8522446,5.400601,0.94758224,-0.5189722,-1.9525567,10.903906306008617,2.2315290845275797,walk
09/07/2020, 21:50:12,9.15494,-2.8546374,5.477171,0.94758224,-0.5189722,-1.9525567,11.043607932693407,2.2315290845275797,walk
09/07/2020, 21:50:13,7.140183,-2.6775684,4.85743,-0.042738892,0.10379445,0.5690378,9.041361159872219,0.5800033728931734,walk
09/07/2020, 21:50:13,7.140183,-2.6775684,4.85743,-0.0048844446,0.07937223,0.5018767,9.041361159872219,0.5081378180588647,walk
09/07/2020, 21:50:13,7.0540414,-2.7158537,4.8646083,-0.0048844446,0.07937223,0.5018767,8.98886950265613,0.5081378180588647,walk
09/07/2020, 21:50:13,7.0540414,-2.7158537,4.8646083,0.035412222,0.057392225,0.42250445,8.98886950265613,0.42785267008511807,walk
09/07/2020, 21:50:13,6.9894347,-2.7326035,4.8765726,0.035412222,0.057392225,0.42250445,8.949875991539722,0.42785267008511807,walk
09/07/2020, 21:50:13,6.9894347,-2.7326035,4.8765726,0.07570889,0.04396,0.33336335,8.949875991539722,0.34466714876397586,walk
09/07/2020, 21:50:13,6.9726853,-2.7206392,4.8861437,0.07570889,0.04396,0.33336335,8.938378976504627,0.34466714876397586,walk
09/07/2020, 21:50:13,6.9726853,-2.7206392,4.8861437,0.098910004,0.024422223,0.24666445,8.938378976504627,0.26687634686968875,walk
09/07/2020, 21:50:13,6.948757,-2.6895328,4.898108,0.098910004,0.024422223,0.24666445,8.916853408798186,0.26687634686968875,walk
09/07/2020, 21:50:13,6.948757,-2.6895328,4.898108,0.11234222,0.017095556,0.16729222,8.916853408798186,0.20223679414749637,walk
09/07/2020, 21:50:13,6.9559355,-2.6679974,4.900501,0.11234222,0.017095556,0.16729222,8.917295337205788,0.20223679414749637,walk
09/07/2020, 21:50:13,6.9559355,-2.6679974,4.900501,0.12211112,0.01099,0.091583334,8.917295337205788,0.15303402439078964,walk
09/07/2020, 21:50:13,6.960721,-2.6895328,4.8861437,0.12211112,0.01099,0.091583334,8.919620149760771,0.15303402439078964,walk
09/07/2020, 21:50:13,6.960721,-2.6895328,4.8861437,0.13310112,0.0,0.013432222,8.919620149760771,0.13377717631092081,walk
09/07/2020, 21:50:13,6.960721,-2.7565317,4.8598228,0.13310112,0.0,0.013432222,8.925692204075116,0.13377717631092081,walk
09/07/2020, 21:50:13,6.960721,-2.7565317,4.8598228,0.13920668,-0.013432222,-0.064718895,8.925692204075116,0.15410210587319453,walk
09/07/2020, 21:50:13,6.9583282,-2.8378878,4.831109,0.13920668,-0.013432222,-0.064718895,8.93373122375497,0.15410210587319453,walk
09/07/2020, 21:50:13,6.9583282,-2.8378878,4.831109,0.15019667,-0.02198,-0.14164889,8.93373122375497,0.20762121325300892,walk
09/07/2020, 21:50:13,6.946364,-2.9383862,4.8095737,0.15019667,-0.02198,-0.14164889,8.945282777029787,0.20762121325300892,walk
09/07/2020, 21:50:13,6.946364,-2.9383862,4.8095737,0.18927222,-0.029306669,-0.22468445,8.945282777029787,0.29523881299964594,walk
09/07/2020, 21:50:14,6.606583,-2.5196424,4.9340005,0.123332225,-0.05372889,-0.08669889,8.622058857614316,0.1600447710397102,walk
09/07/2020, 21:50:14,6.606583,-2.5196424,4.9340005,0.14164889,-0.078151114,-0.17584,8.622058857614316,0.23893871967213995,walk
09/07/2020, 21:50:14,6.611369,-2.510071,4.95075,0.14164889,-0.078151114,-0.17584,8.632530495202804,0.23893871967213995,walk
09/07/2020, 21:50:14,6.611369,-2.510071,4.95075,0.15141778,-0.10501556,-0.26376,8.632530495202804,0.32175293171866653,walk
09/07/2020, 21:50:14,6.6448684,-2.495714,4.9531426,0.15141778,-0.10501556,-0.26376,8.655431003940464,0.32175293171866653,walk
09/07/2020, 21:50:14,6.6448684,-2.495714,4.9531426,0.16729222,-0.13432223,-0.3504589,8.655431003940464,0.41091432415941775,walk
09/07/2020, 21:50:14,6.6927247,-2.498107,4.9674997,0.16729222,-0.13432223,-0.3504589,8.701100846247098,0.41091432415941775,walk
09/07/2020, 21:50:14,6.6927247,-2.498107,4.9674997,0.17584,-0.14653334,-0.4371578,8.701100846247098,0.49345585198968717,walk
09/07/2020, 21:50:14,6.7405815,-2.510071,4.979464,0.17584,-0.14653334,-0.4371578,8.748197415123792,0.49345585198968717,walk
09/07/2020, 21:50:14,6.7405815,-2.510071,4.979464,0.19049335,-0.17217667,-0.5238567,8.748197415123792,0.5834024024953242,walk
09/07/2020, 21:50:14,6.7669024,-2.5196424,4.9938207,0.19049335,-0.17217667,-0.5238567,8.779396970631447,0.5834024024953242,walk
09/07/2020, 21:50:14,6.7669024,-2.5196424,4.9938207,0.20881,-0.19782001,-0.60811335,8.779396970631447,0.6727081215980394,walk
09/07/2020, 21:50:14,6.798009,-2.5316064,4.991428,0.20881,-0.19782001,-0.60811335,8.805470394602851,0.6727081215980394,walk
09/07/2020, 21:50:14,6.798009,-2.5316064,4.991428,0.2075889,-0.23323223,-0.6887067,8.805470394602851,0.7561794337687888,walk
09/07/2020, 21:50:14,6.843473,-2.5387847,5.0081778,0.2075889,-0.23323223,-0.6887067,8.85214067544773,0.7561794337687888,walk
09/07/2020, 21:50:14,6.843473,-2.5387847,5.0081778,0.23323223,-0.2625389,-0.77052116,8.85214067544773,0.8467743597821621,walk
09/07/2020, 21:50:14,6.9128647,-2.536392,5.022535,0.23323223,-0.2625389,-0.77052116,8.913295613244227,0.8467743597821621,walk
09/07/2020, 21:50:14,6.9128647,-2.536392,5.022535,0.27108666,-0.28574002,-0.84745115,8.913295613244227,0.9345099191708087,walk
09/07/2020, 21:50:14,6.991828,-2.5316064,5.046463,0.27108666,-0.28574002,-0.84745115,8.986739028884765,0.9345099191708087,walk
09/07/2020, 21:50:14,6.991828,-2.5316064,5.046463,0.28329778,-0.30039334,-0.9317078,8.986739028884765,1.0191041235231866,walk
09/07/2020, 21:50:15,6.611369,-2.2492533,4.9674997,0.13310112,-0.11234222,0.0036633336,8.570028920367962,0.17421281095897986,walk
09/07/2020, 21:50:15,6.611369,-2.2492533,4.9674997,0.15874445,-0.14531223,-0.102573335,8.570028920367962,0.2384045646719611,walk
09/07/2020, 21:50:15,6.6329045,-2.2348964,5.0081778,0.15874445,-0.14531223,-0.102573335,8.60651084710221,0.2384045646719611,walk
09/07/2020, 21:50:15,6.6329045,-2.2348964,5.0081778,0.17950334,-0.16607112,-0.21125223,8.60651084710221,0.3231540921927192,walk
09/07/2020, 21:50:15,6.6711893,-2.2301106,5.046463,0.17950334,-0.16607112,-0.21125223,8.657075095790228,0.3231540921927192,walk
09/07/2020, 21:50:15,6.6711893,-2.2301106,5.046463,0.18194556,-0.17339778,-0.31260446,8.657075095790228,0.40111410372927486,walk
09/07/2020, 21:50:15,6.7094746,-2.2229323,5.0679984,0.18194556,-0.17339778,-0.31260446,8.697303316457122,0.40111410372927486,walk
09/07/2020, 21:50:15,6.7094746,-2.2229323,5.0679984,0.18805112,-0.18683001,-0.4163989,8.697303316457122,0.49361597636635923,walk
09/07/2020, 21:50:15,6.73101,-2.2181466,5.0751767,0.18805112,-0.18683001,-0.4163989,8.716885220888972,0.49361597636635923,walk
09/07/2020, 21:50:15,6.73101,-2.2181466,5.0751767,0.18805112,-0.19293556,-0.51653004,8.716885220888972,0.5825724258906707,walk
09/07/2020, 21:50:15,6.7525454,-2.239682,5.111069,0.18805112,-0.19293556,-0.51653004,8.759912811500032,0.5825724258906707,walk
09/07/2020, 21:50:15,6.7525454,-2.239682,5.111069,0.19537778,-0.20270446,-0.61299783,8.759912811500032,0.6745575698529653,walk
09/07/2020, 21:50:15,6.802795,-2.2707887,5.1326046,0.19537778,-0.20270446,-0.61299783,8.819191009178722,0.6745575698529653,walk
09/07/2020, 21:50:15,6.802795,-2.2707887,5.1326046,0.20881,-0.21491556,-0.7119078,8.819191009178722,0.7724008257091782,walk
09/07/2020, 21:50:15,6.862615,-2.3162522,5.1589255,0.20881,-0.21491556,-0.7119078,8.892413799736104,0.7724008257091782,walk
09/07/2020, 21:50:15,6.862615,-2.3162522,5.1589255,0.23811668,-0.23689556,-0.80471224,8.892413799736104,0.8719981901478594,walk
09/07/2020, 21:50:15,6.91765,-2.376073,5.211568,0.23811668,-0.23689556,-0.80471224,8.981093848048317,0.8719981901478594,walk
09/07/2020, 21:50:15,6.91765,-2.376073,5.211568,0.26864445,-0.2515489,-0.8962956,8.981093848048317,0.9689130503448693,walk
09/07/2020, 21:50:15,6.977471,-2.4335005,5.259424,0.26864445,-0.2515489,-0.8962956,9.070202183323852,0.9689130503448693,walk
09/07/2020, 21:50:15,6.977471,-2.4335005,5.259424,0.3052778,-0.26986557,-0.9817734,9.070202183323852,1.0629679777894885,walk
09/07/2020, 21:50:16,7.853244,-2.8522446,5.572884,-0.23201112,0.29184556,1.5141778,10.043195455949885,1.559402898704546,walk
09/07/2020, 21:50:16,7.786245,-2.8689942,5.608776,-0.23201112,0.29184556,1.5141778,10.015742925311653,1.559402898704546,walk
09/07/2020, 21:50:16,7.786245,-2.8689942,5.608776,-0.24666445,0.29673,1.4799867,10.015742925311653,1.529461534952402,walk
09/07/2020, 21:50:16,7.726424,-2.9431717,5.6470613,-0.24666445,0.29673,1.4799867,10.012451894556065,1.529461534952402,walk
09/07/2020, 21:50:16,7.726424,-2.9431717,5.6470613,-0.24055889,0.2869611,1.4445745,10.012451894556065,1.4923172160002178,walk
09/07/2020, 21:50:16,7.6713896,-3.0269206,5.6877394,-0.24055889,0.2869611,1.4445745,10.018125838192173,1.4923172160002178,walk
09/07/2020, 21:50:16,7.6713896,-3.0269206,5.6877394,-0.21003112,0.2820767,1.40672,10.018125838192173,1.450014347011257,walk
09/07/2020, 21:50:16,7.609176,-3.1489546,5.7284174,-0.21003112,0.2820767,1.40672,10.031462652447512,1.450014347011257,walk
09/07/2020, 21:50:16,7.609176,-3.1489546,5.7284174,-0.16973445,0.26986557,1.3749712,10.031462652447512,1.4114470862023418,walk
09/07/2020, 21:50:16,7.542177,-3.278167,5.74756,-0.16973445,0.26986557,1.3749712,10.03320796628329,1.4114470862023418,walk
09/07/2020, 21:50:16,7.542177,-3.278167,5.74756,-0.13310112,0.25521225,1.3346745,10.03320796628329,1.3653589859839503,walk
09/07/2020, 21:50:16,7.4775705,-3.3355947,5.7260246,-0.13310112,0.25521225,1.3346745,9.991376823063623,1.3653589859839503,walk
09/07/2020, 21:50:16,7.4775705,-3.3355947,5.7260246,-0.085477784,0.24178001,1.2919356,9.991376823063623,1.3171414219386868,walk
09/07/2020, 21:50:16,7.389036,-3.2973096,5.692525,-0.085477784,0.24178001,1.2919356,9.893176756829561,1.3171414219386868,walk
09/07/2020, 21:50:16,7.389036,-3.2973096,5.692525,-0.06227667,0.2295689,1.24187,9.893176756829561,1.2644451245645794,walk
09/07/2020, 21:50:16,7.298109,-3.1944182,5.623133,-0.06227667,0.2295689,1.24187,9.751221982169978,1.2644451245645794,walk
09/07/2020, 21:50:16,7.298109,-3.1944182,5.623133,-0.07204556,0.22224224,1.1979101,9.751221982169978,1.220479705135541,walk
09/07/2020, 21:50:16,7.183254,-3.0819557,5.5513487,-0.07204556,0.22224224,1.1979101,9.587234097997824,1.220479705135541,walk
09/07/2020, 21:50:16,7.183254,-3.0819557,5.5513487,-0.10379445,0.22102112,1.1515079,9.587234097997824,1.1771125519504284,walk
09/07/2020, 21:50:16,7.0899334,-2.981457,5.491528,-0.10379445,0.22102112,1.1515079,9.450561968191039,1.1771125519504284,walk
09/07/2020, 21:50:17,8.523234,-2.565106,5.74756,-0.09646778,0.3052778,1.5886656,10.595269636452906,1.620604506749316,walk
09/07/2020, 21:50:17,8.523234,-2.565106,5.74756,-0.09036223,0.30283555,1.5801178,10.595269636452906,1.6114115040735921,walk
09/07/2020, 21:50:17,8.46102,-2.6273193,5.709275,-0.09036223,0.30283555,1.5801178,10.539805153183881,1.6114115040735921,walk
09/07/2020, 21:50:17,8.46102,-2.6273193,5.709275,-0.08669889,0.28818223,1.5654645,10.539805153183881,1.5941282208885945,walk
09/07/2020, 21:50:17,8.382058,-2.6249263,5.6446686,-0.08669889,0.28818223,1.5654645,10.440853428802582,1.5941282208885945,walk
09/07/2020, 21:50:17,8.382058,-2.6249263,5.6446686,-0.09524667,0.28574002,1.5349368,10.440853428802582,1.5642091364520823,walk
09/07/2020, 21:50:17,8.26481,-2.565106,5.5465627,-0.09524667,0.28574002,1.5349368,10.278677137174625,1.5642091364520823,walk
09/07/2020, 21:50:17,8.26481,-2.565106,5.5465627,-0.12577444,0.2820767,1.5019667,10.278677137174625,1.5333918221475118,walk
09/07/2020, 21:50:17,8.116454,-2.469393,5.4556355,-0.12577444,0.2820767,1.5019667,10.086559802283375,1.5333918221475118,walk
09/07/2020, 21:50:17,8.116454,-2.469393,5.4556355,-0.16485001,0.27963445,1.4653333,10.086559802283375,1.500857339793865,walk
09/07/2020, 21:50:17,7.9704924,-2.4095724,5.386244,-0.16485001,0.27963445,1.4653333,9.916975848052164,1.500857339793865,walk
09/07/2020, 21:50:17,7.9704924,-2.4095724,5.386244,-0.21003112,0.27475002,1.4299212,9.916975848052164,1.4711475601511084,walk
09/07/2020, 21:50:17,7.84128,-2.3904297,5.3336015,-0.21003112,0.27475002,1.4299212,9.779935111768015,1.4711475601511084,walk
09/07/2020, 21:50:17,7.84128,-2.3904297,5.3336015,-0.22712667,0.26376,1.3786345,9.779935111768015,1.4218962050285453,walk
09/07/2020, 21:50:17,7.7240314,-2.4119651,5.2977095,-0.22712667,0.26376,1.3786345,9.67181281808015,1.4218962050285453,walk
09/07/2020, 21:50:17,7.7240314,-2.4119651,5.2977095,-0.22346334,0.24422224,1.3188001,9.67181281808015,1.3597110166777562,walk
09/07/2020, 21:50:17,7.6163545,-2.440679,5.278567,-0.22346334,0.24422224,1.3188001,9.58274686814141,1.3597110166777562,walk
09/07/2020, 21:50:17,7.6163545,-2.440679,5.278567,-0.18927222,0.23079,1.2553023,9.58274686814141,1.290299147715009,walk
09/07/2020, 21:50:17,7.5326056,-2.4717858,5.3144593,-0.18927222,0.23079,1.2553023,9.5442836669359,1.290299147715009,walk
09/07/2020, 21:50:17,7.5326056,-2.4717858,5.3144593,-0.16118668,0.2185789,1.2040156,9.5442836669359,1.2342655625577608,walk
09/07/2020, 21:50:18,8.76491,-3.656233,6.6711893,0.59346,0.54095227,1.9598835,11.605879970485079,2.118010220934785,walk
09/07/2020, 21:50:18,8.717052,-3.603591,6.7022963,0.59346,0.54095227,1.9598835,11.571242221442297,2.118010220934785,walk
09/07/2020, 21:50:18,8.717052,-3.603591,6.7022963,0.7351089,0.5653745,1.9891901,11.571242221442297,2.1947461563693587,walk
09/07/2020, 21:50:18,8.678768,-3.455236,6.63769,0.7351089,0.5653745,1.9891901,11.459432869700082,2.1947461563693587,walk
09/07/2020, 21:50:18,8.678768,-3.455236,6.63769,0.84623003,0.5836911,2.0062857,11.459432869700082,2.254325346263702,walk
09/07/2020, 21:50:18,8.650054,-3.2039895,6.5754766,0.84623003,0.5836911,2.0062857,11.328101151669676,2.254325346263702,walk
09/07/2020, 21:50:18,8.650054,-3.2039895,6.5754766,0.8962956,0.6020078,2.0026224,11.328101151669676,2.2751385792398766,walk
09/07/2020, 21:50:18,8.633304,-2.8881369,6.539584,0.8962956,0.6020078,2.0026224,11.208988683506215,2.2751385792398766,walk
09/07/2020, 21:50:18,8.633304,-2.8881369,6.539584,0.87920004,0.6386411,1.9977379,11.208988683506215,2.274161789922982,walk
09/07/2020, 21:50:18,8.575876,-2.6249263,6.4845495,0.87920004,0.6386411,1.9977379,11.067306535642745,2.274161789922982,walk
09/07/2020, 21:50:18,8.575876,-2.6249263,6.4845495,0.81326,0.6887067,2.0038433,11.067306535642745,2.269602778543951,walk
09/07/2020, 21:50:18,8.508878,-2.4263222,6.4008007,0.81326,0.6887067,2.0038433,10.920544392312449,2.269602778543951,walk
09/07/2020, 21:50:18,8.508878,-2.4263222,6.4008007,0.7131289,0.73755115,2.0087278,10.920544392312449,2.255553567448846,walk
09/07/2020, 21:50:18,8.456235,-2.3258235,6.410372,0.7131289,0.73755115,2.0087278,10.863251389512657,2.255553567448846,walk
09/07/2020, 21:50:18,8.456235,-2.3258235,6.410372,0.62154555,0.77418447,1.9977379,10.863251389512657,2.2308377611211085,walk
09/07/2020, 21:50:18,8.343773,-2.3712873,6.407979,0.62154555,0.77418447,1.9977379,10.784421389144116,2.2308377611211085,walk
09/07/2020, 21:50:18,8.343773,-2.3712873,6.407979,0.54339445,0.80104893,1.9830846,10.784421389144116,2.2067127791445293,walk
09/07/2020, 21:50:18,8.271988,-2.4239295,6.4414787,0.54339445,0.80104893,1.9830846,10.760755841413957,2.2067127791445293,walk
09/07/2020, 21:50:18,8.271988,-2.4239295,6.4414787,0.48600224,0.81081784,1.9806423,10.760755841413957,2.194668023795056,walk
09/07/2020, 21:50:18,8.207381,-2.4765713,6.4534426,0.48600224,0.81081784,1.9806423,10.730397640269079,2.194668023795056,walk
09/07/2020, 21:50:19,3.7160535,-2.9312077,8.609376,0.034191113,-0.0061055557,-0.0061055557,9.824580711113914,0.03526454063653119,walk
09/07/2020, 21:50:19,3.7160535,-2.9312077,8.609376,0.01099,-0.01099,-0.009768889,9.824580711113914,0.018357325850398225,walk
09/07/2020, 21:50:19,3.7184465,-2.9096723,8.628518,0.01099,-0.01099,-0.009768889,9.83587116961594,0.018357325850398225,walk
09/07/2020, 21:50:19,3.7184465,-2.9096723,8.628518,-0.02075889,0.0,-0.012211111,9.83587116961594,0.02408407646273984,walk
09/07/2020, 21:50:19,3.7136607,-2.9120653,8.602198,-0.02075889,0.0,-0.012211111,9.811687133377978,0.02408407646273984,walk
09/07/2020, 21:50:19,3.7136607,-2.9120653,8.602198,-0.04029667,0.0012211112,-0.013432222,9.811687133377978,0.0424939681441854,walk
09/07/2020, 21:50:19,3.7184465,-2.9479575,8.578269,-0.04029667,0.0012211112,-0.013432222,9.803264607056486,0.0424939681441854,walk
09/07/2020, 21:50:19,3.7184465,-2.9479575,8.578269,-0.04029667,-0.008547778,-0.014653334,9.803264607056486,0.043721920575391496,walk
09/07/2020, 21:50:19,3.6921253,-3.0460632,8.5423765,-0.04029667,-0.008547778,-0.014653334,9.791960318891816,0.043721920575391496,walk
09/07/2020, 21:50:19,3.6921253,-3.0460632,8.5423765,-0.026864445,-0.0061055557,-0.017095556,9.791960318891816,0.03242274291449375,walk
09/07/2020, 21:50:19,3.6801612,-3.0699914,8.520842,-0.026864445,-0.0061055557,-0.017095556,9.776153393469555,0.03242274291449375,walk
09/07/2020, 21:50:19,3.6801612,-3.0699914,8.520842,-0.0061055557,-0.012211111,-0.019537779,9.776153393469555,0.023835138823604465,walk
09/07/2020, 21:50:19,3.6681972,-3.0723844,8.535198,-0.0061055557,-0.012211111,-0.019537779,9.784928437160525,0.023835138823604465,walk
09/07/2020, 21:50:19,3.6681972,-3.0723844,8.535198,0.01099,-0.017095556,-0.02198,9.784928437160525,0.029935907998748755,walk
09/07/2020, 21:50:19,3.6227336,-3.0388846,8.532805,0.01099,-0.017095556,-0.02198,9.755397852689224,0.029935907998748755,walk
09/07/2020, 21:50:19,3.6227336,-3.0388846,8.532805,0.012211111,-0.02198,-0.025643334,9.755397852689224,0.03591395603386064,walk
09/07/2020, 21:50:19,3.6251264,-3.0029924,8.506484,0.012211111,-0.02198,-0.025643334,9.722128111913703,0.03591395603386064,walk
09/07/2020, 21:50:19,3.6251264,-3.0029924,8.506484,0.008547778,-0.023201112,-0.025643334,9.722128111913703,0.035622137290915595,walk
09/07/2020, 21:50:19,3.6346977,-2.9838498,8.508878,0.008547778,-0.023201112,-0.025643334,9.721902449790246,0.035622137290915595,walk
09/07/2020, 21:50:19,3.6346977,-2.9838498,8.508878,0.0012211112,-0.02198,-0.025643334,9.721902449790246,0.03379633278146856,walk
09/07/2020, 21:50:20,8.568698,-2.6488547,6.003592,-0.54461557,0.30649891,-0.17095557,10.792688852796577,0.6478993029892632,walk
09/07/2020, 21:50:20,8.568698,-2.6488547,6.003592,-0.59590226,0.34191114,-0.03297,10.792688852796577,0.6878152040779675,walk
09/07/2020, 21:50:20,8.499306,-2.684747,5.845666,-0.59590226,0.34191114,-0.03297,10.65916855781615,0.6878152040779675,walk
09/07/2020, 21:50:20,8.499306,-2.684747,5.845666,-0.63742,0.36755446,0.106236674,10.65916855781615,0.7434290575941456,walk
09/07/2020, 21:50:20,8.46102,-2.6895328,5.6997037,-0.63742,0.36755446,0.106236674,10.550311655608606,0.7434290575941456,walk
09/07/2020, 21:50:20,8.46102,-2.6895328,5.6997037,-0.67161113,0.39197668,0.23811668,10.550311655608606,0.8132691961235733,walk
09/07/2020, 21:50:20,8.432307,-2.6656044,5.503492,-0.67161113,0.39197668,0.23811668,10.416221717566161,0.8132691961235733,walk
09/07/2020, 21:50:20,8.432307,-2.6656044,5.503492,-0.70580226,0.40174556,0.36755446,10.416221717566161,0.8914328937871114,walk
09/07/2020, 21:50:20,8.413164,-2.6368906,5.3216376,-0.70580226,0.40174556,0.36755446,10.2982692815455,0.8914328937871114,walk
09/07/2020, 21:50:20,8.413164,-2.6368906,5.3216376,-0.7387723,0.41029334,0.49577114,10.2982692815455,0.9797520706661889,walk
09/07/2020, 21:50:20,8.396415,-2.5914268,5.1756754,-0.7387723,0.41029334,0.49577114,10.198180702866297,0.9797520706661889,walk
09/07/2020, 21:50:20,8.396415,-2.5914268,5.1756754,-0.78029,0.4151778,0.6142189,10.198180702866297,1.0763317057612403,walk
09/07/2020, 21:50:20,8.396415,-2.4789643,5.0416775,-0.78029,0.4151778,0.6142189,10.102650972529792,1.0763317057612403,walk
09/07/2020, 21:50:20,8.396415,-2.4789643,5.0416775,-0.8364611,0.4261678,0.7326667,10.102650972529792,1.1908344342439818,walk
09/07/2020, 21:50:20,8.480164,-2.4239295,4.9674997,-0.8364611,0.4261678,0.7326667,10.122482987646492,1.1908344342439818,walk
09/07/2020, 21:50:20,8.480164,-2.4239295,4.9674997,-0.90118,0.43471557,0.8401245,10.122482987646492,1.3064885095530576,walk
09/07/2020, 21:50:20,8.559127,-2.361716,4.965107,-0.90118,0.43471557,0.8401245,10.172936758030684,1.3064885095530576,walk
09/07/2020, 21:50:20,8.559127,-2.361716,4.965107,-0.97688895,0.44326335,0.9378134,10.172936758030684,1.4248818913725672,walk
09/07/2020, 21:50:20,8.623733,-2.347359,4.941179,-0.97688895,0.44326335,0.9378134,10.212448546136338,1.4248818913725672,walk
09/07/2020, 21:50:20,8.623733,-2.347359,4.941179,-1.0623667,0.4493689,1.0293967,10.212448546136338,1.5460313479507086,walk
09/07/2020, 21:50:21,8.372486,-2.7565317,5.460421,-0.089141116,0.017095556,-0.22102112,10.36885669998937,0.2389324803220768,walk
09/07/2020, 21:50:21,8.350951,-2.7613173,5.4436717,-0.089141116,0.017095556,-0.22102112,10.34392674197689,0.2389324803220768,walk
09/07/2020, 21:50:21,8.350951,-2.7613173,5.4436717,-0.11234222,0.03297,-0.117226675,10.34392674197689,0.1656800816567233,walk
09/07/2020, 21:50:21,8.350951,-2.766103,5.4125648,-0.11234222,0.03297,-0.117226675,10.328870656913743,0.1656800816567233,walk
09/07/2020, 21:50:21,8.350951,-2.766103,5.4125648,-0.13188,0.046402223,-0.015874445,10.328870656913743,0.14070358494661891,walk
09/07/2020, 21:50:21,8.312666,-2.754139,5.3742795,-0.13188,0.046402223,-0.015874445,10.274657001071972,0.14070358494661891,walk
09/07/2020, 21:50:21,8.312666,-2.754139,5.3742795,-0.15508112,0.054950003,0.08059334,10.274657001071972,0.18320737975888024,walk
09/07/2020, 21:50:21,8.288737,-2.725425,5.3814583,-0.15508112,0.054950003,0.08059334,10.25139993772904,0.18320737975888024,walk
09/07/2020, 21:50:21,8.288737,-2.725425,5.3814583,-0.18072446,0.07204556,0.1746189,10.25139993772904,0.26142618807533613,walk
09/07/2020, 21:50:21,8.283952,-2.6129622,5.367101,-0.18072446,0.07204556,0.1746189,10.210641686986135,0.26142618807533613,walk
09/07/2020, 21:50:21,8.283952,-2.6129622,5.367101,-0.2295689,0.08425667,0.26986557,10.210641686986135,0.36418195054874186,walk
09/07/2020, 21:50:21,8.29113,-2.5627131,5.383851,-0.2295689,0.08425667,0.26986557,10.212550542476558,0.36418195054874186,walk
09/07/2020, 21:50:21,8.29113,-2.5627131,5.383851,-0.2955089,0.10013112,0.36267,10.212550542476558,0.4784153817392075,walk
09/07/2020, 21:50:21,8.329415,-2.4622145,5.4029937,-0.2955089,0.10013112,0.36267,10.229076223549814,0.4784153817392075,walk
09/07/2020, 21:50:21,8.329415,-2.4622145,5.4029937,-0.36389112,0.13676445,0.4481478,10.229076223549814,0.5932602462402353,walk
09/07/2020, 21:50:21,8.394022,-2.3928227,5.4221363,-0.36389112,0.13676445,0.4481478,10.275444902268683,0.5932602462402353,walk
09/07/2020, 21:50:21,8.394022,-2.3928227,5.4221363,-0.40907225,0.17095557,0.54095227,10.275444902268683,0.6994249534698493,walk
09/07/2020, 21:50:21,8.449057,-2.400001,5.4676,-0.40907225,0.17095557,0.54095227,10.34607226047973,0.6994249534698493,walk
09/07/2020, 21:50:21,8.449057,-2.400001,5.4676,-0.4371578,0.20270446,0.63619894,10.34607226047973,0.7980884268426136,walk
09/07/2020, 21:50:21,8.458628,-2.5268207,5.5369916,-0.4371578,0.20270446,0.63619894,10.420723639145208,0.7980884268426136,walk
09/07/2020, 21:50:22,11.08834,-4.4841495,5.1086764,0.65329444,-0.62765115,-2.3335435,13.006054393678614,2.503230922561256,walk
09/07/2020, 21:50:22,11.014163,-4.4410787,5.0416775,0.65329444,-0.62765115,-2.3335435,12.90168510011615,2.503230922561256,walk
09/07/2020, 21:50:22,11.014163,-4.4410787,5.0416775,0.6789378,-0.6105556,-2.206548,12.90168510011615,2.3880093430145717,walk
09/07/2020, 21:50:22,10.928021,-4.302295,4.9316072,0.6789378,-0.6105556,-2.206548,12.737823459486387,2.3880093430145717,walk
09/07/2020, 21:50:22,10.928021,-4.302295,4.9316072,0.6777167,-0.58979666,-2.0734468,12.737823459486387,2.2597215356579325,walk
09/07/2020, 21:50:22,10.798809,-4.168297,4.843073,0.6777167,-0.58979666,-2.0734468,12.5476822676613,2.2597215356579325,walk
09/07/2020, 21:50:22,10.798809,-4.168297,4.843073,0.63009334,-0.5507211,-1.9427879,12.5476822676613,2.115357208770506,walk
09/07/2020, 21:50:22,10.602597,-4.0127635,4.735396,0.63009334,-0.5507211,-1.9427879,12.285817574739697,2.115357208770506,walk
09/07/2020, 21:50:22,10.602597,-4.0127635,4.735396,0.53851,-0.50798225,-1.8084656,12.285817574739697,1.9541204782149324,walk
09/07/2020, 21:50:22,10.3441725,-3.8691943,4.625326,0.53851,-0.50798225,-1.8084656,11.973562986705357,1.9541204782149324,walk
09/07/2020, 21:50:22,10.3441725,-3.8691943,4.625326,0.41884112,-0.4701278,-1.6607112,11.973562986705357,1.776065768623851,walk
09/07/2020, 21:50:22,10.037891,-3.7878382,4.4889355,0.41884112,-0.4701278,-1.6607112,11.630026808245974,1.776065768623851,walk
09/07/2020, 21:50:22,10.037891,-3.7878382,4.4889355,0.29917222,-0.44448447,-1.4946401,11.630026808245974,1.5877718756317647,walk
09/07/2020, 21:50:22,9.786645,-3.7447674,4.3932223,0.29917222,-0.44448447,-1.4946401,11.362310708641042,1.5877718756317647,walk
09/07/2020, 21:50:22,9.786645,-3.7447674,4.3932223,0.19293556,-0.40052447,-1.32979,11.362310708641042,1.4021360174885718,walk
09/07/2020, 21:50:22,9.473185,-3.7208393,4.409972,0.19293556,-0.40052447,-1.32979,11.092056875536754,1.4021360174885718,walk
09/07/2020, 21:50:22,9.473185,-3.7208393,4.409972,0.10013112,-0.36267,-1.1722667,11.092056875536754,1.2311640993329183,walk
09/07/2020, 21:50:22,9.126225,-3.7591243,4.479364,0.10013112,-0.36267,-1.1722667,10.838990165801196,1.2311640993329183,walk
09/07/2020, 21:50:22,9.126225,-3.7591243,4.479364,0.037854444,-0.34801668,-1.0013112,10.838990165801196,1.060741558138757,walk
09/07/2020, 21:50:22,8.740981,-3.8333018,4.5008993,0.037854444,-0.34801668,-1.0013112,10.552584888290564,1.060741558138757,walk
09/07/2020, 21:50:23,10.303494,-2.6991038,3.2542388,0.07448778,-0.07937223,-2.3970413,11.137200272167558,2.399511507347739,walk
09/07/2020, 21:50:23,10.411171,-2.7493532,3.2542388,0.07448778,-0.07937223,-2.3970413,11.249066363756196,2.399511507347739,walk
09/07/2020, 21:50:23,10.411171,-2.7493532,3.2542388,0.08425667,-0.06716111,-2.4178002,11.249066363756196,2.420199899012039,walk
09/07/2020, 21:50:23,10.466207,-2.7900312,3.318845,0.08425667,-0.06716111,-2.4178002,11.328746002292739,2.420199899012039,walk
09/07/2020, 21:50:23,10.466207,-2.7900312,3.318845,0.09280445,-0.05617111,-2.4361167,11.328746002292739,2.438530789793704,walk
09/07/2020, 21:50:23,10.509277,-2.7876384,3.4480574,0.09280445,-0.05617111,-2.4361167,11.406355167407622,2.438530789793704,walk
09/07/2020, 21:50:23,10.509277,-2.7876384,3.4480574,0.09036223,-0.051286668,-2.4446645,11.406355167407622,2.446871485402254,walk
09/07/2020, 21:50:23,10.607383,-2.6871397,3.5700915,0.09036223,-0.051286668,-2.4446645,11.510119138105216,2.446871485402254,walk
09/07/2020, 21:50:23,10.607383,-2.6871397,3.5700915,0.07448778,-0.057392225,-2.4458857,11.510119138105216,2.447692576810509,walk
09/07/2020, 21:50:23,10.727024,-2.617748,3.682554,0.07448778,-0.057392225,-2.4458857,11.639710232491408,2.447692576810509,walk
09/07/2020, 21:50:23,10.727024,-2.617748,3.682554,0.018316668,-0.04029667,-2.438559,11.639710232491408,2.438960759883265,walk
09/07/2020, 21:50:23,10.889736,-2.5986054,3.7686956,0.018316668,-0.04029667,-2.438559,11.812796893209127,2.438960759883265,walk
09/07/2020, 21:50:23,10.889736,-2.5986054,3.7686956,-0.06594,-0.0024422223,-2.4141366,11.812796893209127,2.4150382614240025,walk
09/07/2020, 21:50:23,11.097912,-2.6775684,3.7950168,-0.06594,-0.0024422223,-2.4141366,12.030593171992018,2.4150382614240025,walk
09/07/2020, 21:50:23,11.097912,-2.6775684,3.7950168,-0.15141778,0.051286668,-2.38483,12.030593171992018,2.3901823748167934,walk
09/07/2020, 21:50:23,11.229517,-2.7158537,3.7878382,-0.15141778,0.051286668,-2.38483,12.158356440287758,2.3901823748167934,walk
09/07/2020, 21:50:23,11.229517,-2.7158537,3.7878382,-0.22346334,0.10867889,-2.3555233,12.158356440287758,2.3685939307838706,walk
09/07/2020, 21:50:23,11.279766,-2.754139,3.737589,-0.22346334,0.10867889,-2.3555233,12.197867636306881,2.3685939307838706,walk
09/07/2020, 21:50:23,11.279766,-2.754139,3.737589,-0.2869611,0.14287001,-2.3140056,12.197867636306881,2.3361036996943634,walk
09/07/2020, 21:50:23,11.30848,-2.7876384,3.7280176,-0.2869611,0.14287001,-2.3140056,12.229095176586041,2.3361036996943634,walk
09/07/2020, 21:50:24,8.973084,-1.538585,3.1633115,0.34069002,-0.21247335,0.4383789,9.637947276907292,0.5944667116399039,walk
09/07/2020, 21:50:24,8.973084,-1.538585,3.1633115,0.30649891,-0.17217667,0.31504667,9.637947276907292,0.47206016035408294,walk
09/07/2020, 21:50:24,8.980264,-1.4979069,3.103491,0.30649891,-0.17217667,0.31504667,9.618758665276943,0.47206016035408294,walk
09/07/2020, 21:50:24,8.980264,-1.4979069,3.103491,0.26620224,-0.13920668,0.19293556,9.618758665276943,0.3570241744697188,walk
09/07/2020, 21:50:24,8.949157,-1.4715859,3.0269206,0.26620224,-0.13920668,0.19293556,9.56113067407148,0.3570241744697188,walk
09/07/2020, 21:50:24,8.949157,-1.4715859,3.0269206,0.23933779,-0.10867889,0.07448778,9.56113067407148,0.2732070784983963,walk
09/07/2020, 21:50:24,8.882157,-1.4835501,3.0173492,0.23933779,-0.10867889,0.07448778,9.49726466040571,0.2732070784983963,walk
09/07/2020, 21:50:24,8.882157,-1.4835501,3.0173492,0.23323223,-0.09524667,-0.04151778,9.49726466040571,0.2553290577391509,walk
09/07/2020, 21:50:24,8.860622,-1.5337993,3.0053852,0.23323223,-0.09524667,-0.04151778,9.481324256055329,0.2553290577391509,walk
09/07/2020, 21:50:24,8.860622,-1.5337993,3.0053852,0.23811668,-0.09402556,-0.15019667,9.481324256055329,0.29681543095229584,walk
09/07/2020, 21:50:24,8.853444,-1.6151553,3.0317063,0.23811668,-0.09402556,-0.15019667,9.49649632664961,0.29681543095229584,walk
09/07/2020, 21:50:24,8.853444,-1.6151553,3.0317063,0.26498112,-0.09768889,-0.24788557,9.49649632664961,0.3757730293630611,walk
09/07/2020, 21:50:24,8.841479,-1.7156538,3.062813,0.26498112,-0.09768889,-0.24788557,9.512941073137258,0.3757730293630611,walk
09/07/2020, 21:50:24,8.841479,-1.7156538,3.062813,0.28329778,-0.08792,-0.34801668,9.512941073137258,0.457277996932743,walk
09/07/2020, 21:50:24,8.872586,-1.7754744,3.050849,0.28329778,-0.08792,-0.34801668,9.548967253042704,0.457277996932743,walk
09/07/2020, 21:50:24,8.872586,-1.7754744,3.050849,0.2942878,-0.07448778,-0.44570556,9.548967253042704,0.5392654154024646,walk
09/07/2020, 21:50:24,8.874979,-1.7682959,3.0317063,0.2942878,-0.07448778,-0.44570556,9.543760590824984,0.5392654154024646,walk
09/07/2020, 21:50:24,8.874979,-1.7682959,3.0317063,0.29184556,-0.06594,-0.5360678,9.543760590824984,0.6139141498722515,walk
09/07/2020, 21:50:24,8.8701935,-1.8137596,3.0149565,0.29184556,-0.06594,-0.5360678,9.542537330350594,0.6139141498722515,walk
09/07/2020, 21:50:24,8.8701935,-1.8137596,3.0149565,0.28574002,-0.06105556,-0.6191034,9.542537330350594,0.684590479434389,walk
09/07/2020, 21:50:25,8.9013,-2.5746772,3.9840498,0.12455334,-0.18805112,1.27484,10.086365300196984,1.2946404041856776,walk
09/07/2020, 21:50:25,8.800801,-2.498107,3.9050865,0.12455334,-0.18805112,1.27484,9.947077067860665,1.2946404041856776,walk
09/07/2020, 21:50:25,8.800801,-2.498107,3.9050865,0.091583334,-0.17217667,1.2089001,9.947077067860665,1.22452919584379,walk
09/07/2020, 21:50:25,8.685946,-2.524428,3.8404803,0.091583334,-0.17217667,1.2089001,9.826886145025604,1.22452919584379,walk
09/07/2020, 21:50:25,8.685946,-2.524428,3.8404803,0.068382226,-0.15874445,1.1368545,9.826886145025604,1.1499191935064388,walk
09/07/2020, 21:50:25,8.568698,-2.5268207,3.7878382,0.068382226,-0.15874445,1.1368545,9.703356390259085,1.1499191935064388,walk
09/07/2020, 21:50:25,8.568698,-2.5268207,3.7878382,0.06349778,-0.15508112,1.0574822,9.703356390259085,1.0706777369567253,walk
09/07/2020, 21:50:25,8.446664,-2.5435705,3.7543387,0.06349778,-0.15508112,1.0574822,9.587019384136319,1.0706777369567253,walk
09/07/2020, 21:50:25,8.446664,-2.5435705,3.7543387,0.07448778,-0.16118668,0.97933114,9.587019384136319,0.9952984723893848,walk
09/07/2020, 21:50:25,8.293523,-2.5866413,3.6777685,0.07448778,-0.16118668,0.97933114,9.433939537468422,0.9952984723893848,walk
09/07/2020, 21:50:25,8.293523,-2.5866413,3.6777685,0.09768889,-0.16973445,0.8987378,9.433939537468422,0.9198274372221995,walk
09/07/2020, 21:50:25,8.185846,-2.617748,3.6227336,0.09768889,-0.16973445,0.8987378,9.32656868899425,0.9198274372221995,walk
09/07/2020, 21:50:25,8.185846,-2.617748,3.6227336,0.1306589,-0.16973445,0.8205867,9.32656868899425,0.8480825616197567,walk
09/07/2020, 21:50:25,8.080562,-2.656033,3.5844483,0.1306589,-0.16973445,0.8205867,9.230290232322401,0.8480825616197567,walk
09/07/2020, 21:50:25,8.080562,-2.656033,3.5844483,0.16973445,-0.1746189,0.74609894,9.230290232322401,0.7848344824156139,walk
09/07/2020, 21:50:25,8.02792,-2.6799614,3.534199,0.16973445,-0.1746189,0.74609894,9.171709313164591,0.7848344824156139,walk
09/07/2020, 21:50:25,8.02792,-2.6799614,3.534199,0.21247335,-0.18316667,0.6679478,9.171709313164591,0.7244648049948407,walk
09/07/2020, 21:50:25,7.9920278,-2.7110682,3.4839497,0.21247335,-0.18316667,0.6679478,9.130186388233614,0.7244648049948407,walk
09/07/2020, 21:50:25,7.9920278,-2.7110682,3.4839497,0.25399113,-0.19415668,0.5910178,9.130186388233614,0.6719451816160528,walk
09/07/2020, 21:50:25,7.972885,-2.7278178,3.4528432,0.25399113,-0.19415668,0.5910178,9.106591745658243,0.6719451816160528,walk
09/07/2020, 21:50:26,9.236296,-3.3619158,3.723232,-0.07570889,0.08303556,1.1979101,10.510665680219702,1.2031688479073306,walk
09/07/2020, 21:50:26,9.236296,-3.3619158,3.723232,-0.054950003,0.07326667,1.2455333,10.510665680219702,1.248895842952785,walk
09/07/2020, 21:50:26,9.29133,-3.3260236,3.7208393,-0.054950003,0.07326667,1.2455333,10.5468429921186,1.248895842952785,walk
09/07/2020, 21:50:26,9.29133,-3.3260236,3.7208393,-0.04151778,0.06105556,1.2919356,10.5468429921186,1.29404366484613,walk
09/07/2020, 21:50:26,9.3511505,-3.2757742,3.6897326,-0.04151778,0.06105556,1.2919356,10.573024122166485,1.29404366484613,walk
09/07/2020, 21:50:26,9.3511505,-3.2757742,3.6897326,-0.03052778,0.05617111,1.3322322,10.573024122166485,1.333765298721238,walk
09/07/2020, 21:50:26,9.372686,-3.225525,3.696911,-0.03052778,0.05617111,1.3322322,10.57914990176172,1.333765298721238,walk
09/07/2020, 21:50:26,9.372686,-3.225525,3.696911,-0.029306669,0.05006556,1.3737501,10.57914990176172,1.374974455178955,walk
09/07/2020, 21:50:26,9.425328,-3.1680973,3.6921253,-0.029306669,0.05006556,1.3737501,10.606858268325118,1.374974455178955,walk
09/07/2020, 21:50:26,9.425328,-3.1680973,3.6921253,-0.04029667,0.051286668,1.4152678,10.606858268325118,1.4167699745293154,walk
09/07/2020, 21:50:26,9.439685,-3.129812,3.7088752,-0.04029667,0.051286668,1.4152678,10.614100464431536,1.4167699745293154,walk
09/07/2020, 21:50:26,9.439685,-3.129812,3.7088752,-0.046402223,0.05250778,1.4409112,10.614100464431536,1.442614031607281,walk
09/07/2020, 21:50:26,9.461221,-3.07717,3.6921253,-0.046402223,0.05250778,1.4409112,10.612043246266133,1.442614031607281,walk
09/07/2020, 21:50:26,9.461221,-3.07717,3.6921253,-0.048844445,0.046402223,1.4726601,10.612043246266133,1.4742003297880755,walk
09/07/2020, 21:50:26,9.432507,-3.0293136,3.6394832,-0.048844445,0.046402223,1.4726601,10.554371547384157,1.4742003297880755,walk
09/07/2020, 21:50:26,9.432507,-3.0293136,3.6394832,-0.042738892,0.036633335,1.504409,10.554371547384157,1.5054616965402068,walk
09/07/2020, 21:50:26,9.432507,-2.9958138,3.6370904,-0.042738892,0.036633335,1.504409,10.543979681976388,1.5054616965402068,walk
09/07/2020, 21:50:26,9.432507,-2.9958138,3.6370904,-0.02198,0.023201112,1.5239468,10.543979681976388,1.5242818458810525,walk
09/07/2020, 21:50:26,9.415757,-2.9838498,3.6203406,-0.02198,0.023201112,1.5239468,10.519824553131507,1.5242818458810525,walk
09/07/2020, 21:50:26,9.415757,-2.9838498,3.6203406,-0.01099,0.014653334,1.5373789,10.519824553131507,1.537488017719449,walk
09/07/2020, 21:50:27,9.41815,-1.3471591,4.199404,-0.5250778,0.5043189,0.16729222,10.399585480993604,0.7470146921798467,walk
09/07/2020, 21:50:27,9.391829,-1.1820544,4.0438704,-0.5250778,0.5043189,0.16729222,10.293521461706327,0.7470146921798467,walk
09/07/2020, 21:50:27,9.391829,-1.1820544,4.0438704,-0.5519422,0.52141446,0.18438779,10.293521461706327,0.7813527491962324,walk
09/07/2020, 21:50:27,9.375079,-0.9595219,3.9194436,-0.5519422,0.52141446,0.18438779,10.206607154669502,0.7813527491962324,walk
09/07/2020, 21:50:27,9.375079,-0.9595219,3.9194436,-0.58247,0.5262989,0.21369445,10.206607154669502,0.8135890434965215,walk
09/07/2020, 21:50:27,9.430114,-0.72502524,3.8356948,-0.58247,0.5262989,0.21369445,10.206138459420288,0.8135890434965215,walk
09/07/2020, 21:50:27,9.430114,-0.72502524,3.8356948,-0.6227667,0.53973114,0.24178001,10.206138459420288,0.8588396899861304,walk
09/07/2020, 21:50:27,9.513863,-0.5240282,3.8333018,-0.6227667,0.53973114,0.24178001,10.270462007692831,0.8588396899861304,walk
09/07/2020, 21:50:27,9.513863,-0.5240282,3.8333018,-0.67283225,0.55316335,0.27108666,10.270462007692831,0.9122395012680019,walk
09/07/2020, 21:50:27,9.645468,-0.40917268,3.885944,-0.67283225,0.55316335,0.27108666,10.406874193177229,0.9122395012680019,walk
09/07/2020, 21:50:27,9.645468,-0.40917268,3.885944,-0.7228978,0.5702589,0.29795113,10.406874193177229,0.9677558457077856,walk
09/07/2020, 21:50:27,9.729217,-0.31585258,3.926622,-0.7228978,0.5702589,0.29795113,10.496465008945133,0.9677558457077856,walk
09/07/2020, 21:50:27,9.729217,-0.31585258,3.926622,-0.76441556,0.5836911,0.3260367,10.496465008945133,1.0155424165011726,walk
09/07/2020, 21:50:27,9.717253,-0.20578274,3.8668015,-0.76441556,0.5836911,0.3260367,10.460377671189015,1.0155424165011726,walk
09/07/2020, 21:50:27,9.717253,-0.20578274,3.8668015,-0.79128003,0.59468114,0.34191114,10.460377671189015,1.0472215506772398,walk
09/07/2020, 21:50:27,9.616755,-0.0526421,3.7830527,-0.79128003,0.59468114,0.34191114,10.334225975762402,1.0472215506772398,walk
09/07/2020, 21:50:27,9.616755,-0.0526421,3.7830527,-0.7986067,0.59956557,0.34435335,10.334225975762402,1.0563289009681982,walk
09/07/2020, 21:50:27,9.410972,0.15314065,3.7256248,-0.7986067,0.59956557,0.34435335,10.122752562651549,1.0563289009681982,walk
09/07/2020, 21:50:27,9.410972,0.15314065,3.7256248,-0.7937223,0.58247,0.34435335,10.122752562651549,1.0429983575665782,walk
09/07/2020, 21:50:27,9.300901,0.35174492,3.6514473,-0.7937223,0.58247,0.34435335,9.998177780922722,1.0429983575665782,walk
09/07/2020, 21:50:28,7.6546397,-1.4787644,5.759524,-0.35168,0.16729222,1.5788968,9.692903003950834,1.6262166212418052,walk
09/07/2020, 21:50:28,7.4823565,-1.2562319,5.6374903,-0.35168,0.16729222,1.5788968,9.452252360443502,1.6262166212418052,walk
09/07/2020, 21:50:28,7.4823565,-1.2562319,5.6374903,-0.35290113,0.15508112,1.4555645,9.452252360443502,1.505741469645118,walk
09/07/2020, 21:50:28,7.331609,-1.1126626,5.5226345,-0.35290113,0.15508112,1.4555645,9.246080090378577,1.505741469645118,walk
09/07/2020, 21:50:28,7.331609,-1.1126626,5.5226345,-0.36633334,0.14775445,1.3261267,9.246080090378577,1.3837064353960662,walk
09/07/2020, 21:50:28,7.176075,-1.0336994,5.4556355,-0.36633334,0.14775445,1.3261267,9.073507910787962,1.3837064353960662,walk
09/07/2020, 21:50:28,7.176075,-1.0336994,5.4556355,-0.36389112,0.13188,1.1893623,9.073507910787962,1.2507564655413737,walk
09/07/2020, 21:50:28,7.015756,-0.9451649,5.383851,-0.36389112,0.13188,1.1893623,8.89381936771431,1.2507564655413737,walk
09/07/2020, 21:50:28,7.015756,-0.9451649,5.383851,-0.3492378,0.11600556,1.0489345,8.89381936771431,1.1116149656647452,walk
09/07/2020, 21:50:28,6.879365,-0.89013004,5.3623157,-0.3492378,0.11600556,1.0489345,8.767692001244166,1.1116149656647452,walk
09/07/2020, 21:50:28,6.879365,-0.89013004,5.3623157,-0.33214223,0.091583334,0.9060645,8.767692001244166,0.9693600298462159,walk
09/07/2020, 21:50:28,6.7740808,-0.85184485,5.369494,-0.33214223,0.091583334,0.9060645,8.68592396334997,0.9693600298462159,walk
09/07/2020, 21:50:28,6.7740808,-0.85184485,5.369494,-0.31993112,0.06716111,0.7619734,8.68592396334997,0.829138088535231,walk
09/07/2020, 21:50:28,6.6568327,-0.8111669,5.3623157,-0.31993112,0.06716111,0.7619734,8.586375394881951,0.829138088535231,walk
09/07/2020, 21:50:28,6.6568327,-0.8111669,5.3623157,-0.30039334,0.045181114,0.60933447,8.586375394881951,0.6808568046975421,walk
09/07/2020, 21:50:28,6.556334,-0.7537391,5.3383875,-0.30039334,0.045181114,0.60933447,8.488346093901102,0.6808568046975421,walk
09/07/2020, 21:50:28,6.556334,-0.7537391,5.3383875,-0.2845189,0.024422223,0.46158,8.488346093901102,0.5427739419414119,walk
09/07/2020, 21:50:28,6.4701924,-0.76331043,5.3216376,-0.2845189,0.024422223,0.46158,8.412244646855626,0.5427739419414119,walk
09/07/2020, 21:50:28,6.4701924,-0.76331043,5.3216376,-0.25765446,0.0024422223,0.3260367,8.412244646855626,0.4155619191359637,walk
09/07/2020, 21:50:28,6.4821568,-0.83988076,5.3216376,-0.25765446,0.0024422223,0.3260367,8.42873554846584,0.4155619191359637,walk
09/07/2020, 21:50:29,8.633304,-1.9405792,4.2711883,0.10135223,-0.26009667,1.0293967,9.825621021731695,1.066573964319454,walk
09/07/2020, 21:50:29,8.575876,-1.9046868,4.28076,0.10135223,-0.26009667,1.0293967,9.772327748098062,1.066573964319454,walk
09/07/2020, 21:50:29,8.575876,-1.9046868,4.28076,0.13676445,-0.26498112,0.9280445,9.772327748098062,0.9747748970366985,walk
09/07/2020, 21:50:29,8.539984,-1.8257236,4.2927237,0.13676445,-0.26498112,0.9280445,9.730984824938238,0.9747748970366985,walk
09/07/2020, 21:50:29,8.539984,-1.8257236,4.2927237,0.15019667,-0.2759711,0.8303556,9.730984824938238,0.8878116315697727,walk
09/07/2020, 21:50:29,8.518449,-1.7012969,4.26401,0.15019667,-0.2759711,0.8303556,9.676784722605575,0.8878116315697727,walk
09/07/2020, 21:50:29,8.518449,-1.7012969,4.26401,0.13188,-0.28329778,0.72778225,9.676784722605575,0.7920334384544205,walk
09/07/2020, 21:50:29,8.49452,-1.5816557,4.168297,0.13188,-0.28329778,0.72778225,9.593393895034742,0.7920334384544205,walk
09/07/2020, 21:50:29,8.49452,-1.5816557,4.168297,0.091583334,-0.27963445,0.61788225,9.593393895034742,0.6843693501331266,walk
09/07/2020, 21:50:29,8.439486,-1.5002998,4.1276193,0.091583334,-0.27963445,0.61788225,9.513835014370581,0.6843693501331266,walk
09/07/2020, 21:50:29,8.439486,-1.5002998,4.1276193,0.039075557,-0.26620224,0.5006556,9.513835014370581,0.5683718445389198,walk
09/07/2020, 21:50:29,8.362915,-1.4476577,4.1036906,0.039075557,-0.26620224,0.5006556,9.427318681311375,0.5683718445389198,walk
09/07/2020, 21:50:29,8.362915,-1.4476577,4.1036906,-0.0036633336,-0.26376,0.39197668,9.427318681311375,0.4724706116991718,walk
09/07/2020, 21:50:29,8.271988,-1.4500505,4.0941195,-0.0036633336,-0.26376,0.39197668,9.342924880425018,0.4724706116991718,walk
09/07/2020, 21:50:29,8.271988,-1.4500505,4.0941195,-0.014653334,-0.26620224,0.2759711,9.342924880425018,0.3837165744823926,walk
09/07/2020, 21:50:29,8.118847,-1.5050855,4.1371903,-0.014653334,-0.26620224,0.2759711,9.235653797615125,0.3837165744823926,walk
09/07/2020, 21:50:29,8.118847,-1.5050855,4.1371903,0.015874445,-0.28818223,0.15996556,9.235653797615125,0.32998481078861197,walk
09/07/2020, 21:50:29,8.003992,-1.591227,4.1850467,0.015874445,-0.28818223,0.15996556,9.171178137005759,0.32998481078861197,walk
09/07/2020, 21:50:29,8.003992,-1.591227,4.1850467,0.081814446,-0.31260446,0.04151778,9.171178137005759,0.3257896194134507,walk
09/07/2020, 21:50:29,7.9800634,-1.6893328,4.2664027,0.081814446,-0.31260446,0.04151778,9.205294678401225,0.3257896194134507,walk
09/07/2020, 21:50:30,9.805787,-1.5314065,4.074977,-0.09524667,-0.03174889,1.7559578,10.728658034808536,1.7588257057352008,walk
09/07/2020, 21:50:30,9.805787,-1.5314065,4.074977,-0.15996556,-0.013432222,1.6985656,10.728658034808536,1.706134376378226,walk
09/07/2020, 21:50:30,9.798609,-1.5170496,4.017549,-0.15996556,-0.013432222,1.6985656,10.698358455113299,1.706134376378226,walk
09/07/2020, 21:50:30,9.798609,-1.5170496,4.017549,-0.21613668,0.007326667,1.6326256,10.698358455113299,1.6468864648216228,walk
09/07/2020, 21:50:30,9.724431,-1.4811572,3.993621,-0.21613668,0.007326667,1.6326256,10.616373919147374,1.6468864648216228,walk
09/07/2020, 21:50:30,9.724431,-1.4811572,3.993621,-0.2625389,0.024422223,1.5618012,10.616373919147374,1.5839021741689348,walk
09/07/2020, 21:50:30,9.521041,-1.4787644,3.8835511,-0.2625389,0.024422223,1.5618012,10.388403805905972,1.5839021741689348,walk
09/07/2020, 21:50:30,9.521041,-1.4787644,3.8835511,-0.3052778,0.029306669,1.4897556,10.388403805905972,1.5209948229027936,walk
09/07/2020, 21:50:30,9.267402,-1.4691931,3.8141594,-0.3052778,0.029306669,1.4897556,10.128725212313094,1.5209948229027936,walk
09/07/2020, 21:50:30,9.267402,-1.4691931,3.8141594,-0.3284789,0.015874445,1.4140468,10.128725212313094,1.451784639432795,walk
09/07/2020, 21:50:30,9.018549,-1.5218352,3.7854455,-0.3284789,0.015874445,1.4140468,9.898474888107188,1.451784639432795,walk
09/07/2020, 21:50:30,9.018549,-1.5218352,3.7854455,-0.33214223,-0.0024422223,1.32979,9.898474888107188,1.370644323597059,walk
09/07/2020, 21:50:30,8.82473,-1.5433706,3.7328033,-0.33214223,-0.0024422223,1.32979,9.705239398604729,1.370644323597059,walk
09/07/2020, 21:50:30,8.82473,-1.5433706,3.7328033,-0.31260446,-0.024422223,1.2455333,9.705239398604729,1.2843953092409532,walk
09/07/2020, 21:50:30,8.673982,-1.5888343,3.7160535,-0.31260446,-0.024422223,1.2455333,9.569294950480128,1.2843953092409532,walk
09/07/2020, 21:50:30,8.673982,-1.5888343,3.7160535,-0.27475002,-0.048844445,1.1490656,9.569294950480128,1.1824657036392014,walk
09/07/2020, 21:50:30,8.56152,-1.6247265,3.6681972,-0.27475002,-0.048844445,1.1490656,9.454894231534421,1.1824657036392014,walk
09/07/2020, 21:50:30,8.56152,-1.6247265,3.6681972,-0.21980001,-0.070824444,1.0464922,9.454894231534421,1.0716688438203044,walk
09/07/2020, 21:50:30,8.492127,-1.6701902,3.6849468,-0.21980001,-0.070824444,1.0464922,9.406625121944492,1.0716688438203044,walk
09/07/2020, 21:50:30,8.492127,-1.6701902,3.6849468,-0.15630223,-0.09402556,0.94391894,9.406625121944492,0.9613813833522757,walk
09/07/2020, 21:50:31,9.786645,-2.0410776,4.8693943,0.9610145,0.015874445,1.6875756,11.120045763991971,1.9420896525913436,walk
09/07/2020, 21:50:31,9.786645,-2.0410776,4.8693943,0.92438114,0.048844445,1.6753645,11.120045763991971,1.9140826666950308,walk
09/07/2020, 21:50:31,9.848858,-1.9716859,4.8861437,0.92438114,0.048844445,1.6753645,11.169688754498036,1.9140826666950308,walk
09/07/2020, 21:50:31,9.848858,-1.9716859,4.8861437,0.88286334,0.089141116,1.6582689,11.169688754498036,1.8807577355402665,walk
09/07/2020, 21:50:31,9.8632145,-1.9405792,4.9196434,0.88286334,0.089141116,1.6582689,11.191592329641349,1.8807577355402665,walk
09/07/2020, 21:50:31,9.8632145,-1.9405792,4.9196434,0.8413456,0.1306589,1.6338468,11.191592329641349,1.8423868795060665,walk
09/07/2020, 21:50:31,9.865608,-1.9764715,4.948357,0.8413456,0.1306589,1.6338468,11.212622497037799,1.8423868795060665,walk
09/07/2020, 21:50:31,9.865608,-1.9764715,4.948357,0.81326,0.17217667,1.6094245,11.212622497037799,1.811431421804027,walk
09/07/2020, 21:50:31,9.757931,-1.969293,4.948357,0.81326,0.17217667,1.6094245,11.116724588911914,1.811431421804027,walk
09/07/2020, 21:50:31,9.757931,-1.969293,4.948357,0.7851745,0.20514667,1.5911078,11.116724588911914,1.7861154245898068,walk
09/07/2020, 21:50:31,9.638289,-1.969293,4.907679,0.7851745,0.20514667,1.5911078,10.99363690630804,1.7861154245898068,walk
09/07/2020, 21:50:31,9.638289,-1.969293,4.907679,0.7680789,0.23445335,1.5752333,10.99363690630804,1.7681271679519768,walk
09/07/2020, 21:50:31,9.504292,-2.0051854,4.8263235,0.7680789,0.23445335,1.5752333,10.846461383218916,1.7681271679519768,walk
09/07/2020, 21:50:31,9.504292,-2.0051854,4.8263235,0.7668578,0.24666445,1.56058,10.846461383218916,1.7562244230989668,walk
09/07/2020, 21:50:31,9.396614,-2.012364,4.723432,0.7668578,0.24666445,1.56058,10.707790390259127,1.7562244230989668,walk
09/07/2020, 21:50:31,9.396614,-2.012364,4.723432,0.77296335,0.2625389,1.5471479,10.707790390259127,1.7493043028166584,walk
09/07/2020, 21:50:31,9.3511505,-2.0338993,4.6564326,0.77296335,0.2625389,1.5471479,10.6425150753054,1.7493043028166584,walk
09/07/2020, 21:50:31,9.3511505,-2.0338993,4.6564326,0.7863956,0.28940335,1.5324945,10.6425150753054,1.7466287193786616,walk
09/07/2020, 21:50:31,9.355937,-2.0219352,4.5822554,0.7863956,0.28940335,1.5324945,10.61220257499328,1.7466287193786616,walk
09/07/2020, 21:50:31,9.355937,-2.0219352,4.5822554,0.8095967,0.30161446,1.5227256,10.61220257499328,1.7507459346509757,walk
09/07/2020, 21:50:32,8.645268,-2.3784657,4.7712884,0.11112112,-0.14042778,-0.35412225,10.156916766984834,0.3968254452554481,walk
09/07/2020, 21:50:32,8.645268,-2.3784657,4.7712884,0.16362889,-0.14164889,-0.23933779,10.156916766984834,0.32267847456200677,walk
09/07/2020, 21:50:32,8.549556,-2.4741786,4.7712884,0.16362889,-0.14164889,-0.23933779,10.098596757351876,0.32267847456200677,walk
09/07/2020, 21:50:32,8.549556,-2.4741786,4.7712884,0.22224224,-0.14042778,-0.12821667,10.098596757351876,0.2924911759330209,walk
09/07/2020, 21:50:32,8.496913,-2.5292134,4.7832522,0.22224224,-0.14042778,-0.12821667,10.073428033040477,0.2924911759330209,walk
09/07/2020, 21:50:32,8.496913,-2.5292134,4.7832522,0.2735289,-0.14164889,-0.015874445,10.073428033040477,0.30843875701337337,walk
09/07/2020, 21:50:32,8.518449,-2.495714,4.735396,0.2735289,-0.14164889,-0.015874445,10.06064277213446,0.30843875701337337,walk
09/07/2020, 21:50:32,8.518449,-2.495714,4.735396,0.2869611,-0.13920668,0.09402556,10.06064277213446,0.33251463539414483,walk
09/07/2020, 21:50:32,8.549556,-2.4622145,4.7306104,0.2869611,-0.13920668,0.09402556,10.076511230795234,0.33251463539414483,walk
09/07/2020, 21:50:32,8.549556,-2.4622145,4.7306104,0.2869611,-0.11234222,0.20636779,10.076511230795234,0.3708842379842619,walk
09/07/2020, 21:50:32,8.597412,-2.4095724,4.776074,0.2869611,-0.11234222,0.20636779,10.125829159164955,0.3708842379842619,walk
09/07/2020, 21:50:32,8.597412,-2.4095724,4.776074,0.28818223,-0.08303556,0.3174889,10.125829159164955,0.43674146603895475,walk
09/07/2020, 21:50:32,8.650054,-2.4478576,4.7784667,0.28818223,-0.08303556,0.3174889,10.180824365382842,0.43674146603895475,walk
09/07/2020, 21:50:32,8.650054,-2.4478576,4.7784667,0.29795113,-0.057392225,0.43349445,10.180824365382842,0.5291372048612804,walk
09/07/2020, 21:50:32,8.683554,-2.4358935,4.8047876,0.29795113,-0.057392225,0.43349445,10.218789866111793,0.5291372048612804,walk
09/07/2020, 21:50:32,8.683554,-2.4358935,4.8047876,0.3260367,-0.02198,0.5372889,10.218789866111793,0.6288580215812205,walk
09/07/2020, 21:50:32,8.707481,-2.4885356,4.8598228,0.3260367,-0.02198,0.5372889,10.277690346787718,0.6288580215812205,walk
09/07/2020, 21:50:32,8.707481,-2.4885356,4.8598228,0.38831335,0.02075889,0.65451556,10.277690346787718,0.7613204422321024,walk
09/07/2020, 21:50:32,8.738588,-2.6632116,4.843073,0.38831335,0.02075889,0.65451556,10.339776449583905,0.7613204422321024,walk
09/07/2020, 21:50:32,8.738588,-2.6632116,4.843073,0.48844448,0.045181114,0.7766267,10.339776449583905,0.9185686589313259,walk
09/07/2020, 21:50:33,8.449057,-1.713261,5.2139606,-0.11966889,-1.3529912,-1.7095556,10.07507849972505,2.1834574263303255,walk
09/07/2020, 21:50:33,8.513663,-1.6773686,5.3479586,-0.11966889,-1.3529912,-1.7095556,10.192972530926452,2.1834574263303255,walk
09/07/2020, 21:50:33,8.513663,-1.6773686,5.3479586,0.0061055557,-1.4006145,-1.7144401,10.192972530926452,2.213834487314681,walk
09/07/2020, 21:50:33,8.58784,-1.6654046,5.4723854,0.0061055557,-1.4006145,-1.7144401,10.318506269018004,2.213834487314681,walk
09/07/2020, 21:50:33,8.58784,-1.6654046,5.4723854,0.12821667,-1.4457957,-1.7010078,10.318506269018004,2.2361109706248383,walk
09/07/2020, 21:50:33,8.709874,-1.6414764,5.558527,0.12821667,-1.4457957,-1.7010078,10.462006253156812,2.2361109706248383,walk
09/07/2020, 21:50:33,8.709874,-1.6414764,5.558527,0.24300112,-1.4873134,-1.6936811,10.462006253156812,2.267092058587265,walk
09/07/2020, 21:50:33,8.796016,-1.5529419,5.6446686,0.24300112,-1.4873134,-1.6936811,10.56616320422078,2.267092058587265,walk
09/07/2020, 21:50:33,8.796016,-1.5529419,5.6446686,0.3284789,-1.5312734,-1.6973445,10.56616320422078,2.309475048704696,walk
09/07/2020, 21:50:33,8.925228,-1.3663018,5.7260246,0.3284789,-1.5312734,-1.6973445,10.691764847372564,2.309475048704696,walk
09/07/2020, 21:50:33,8.925228,-1.3663018,5.7260246,0.34557447,-1.5666857,-1.6985656,10.691764847372564,2.336461176159776,walk
09/07/2020, 21:50:33,9.083155,-1.1509477,5.790631,0.34557447,-1.5666857,-1.6985656,10.833272116929962,2.336461176159776,walk
09/07/2020, 21:50:33,9.083155,-1.1509477,5.790631,0.28940335,-1.5850023,-1.6924601,10.833272116929962,2.336751517494435,walk
09/07/2020, 21:50:33,9.217153,-0.85902333,5.802595,0.28940335,-1.5850023,-1.6924601,10.925380240383733,2.336751517494435,walk
09/07/2020, 21:50:33,9.217153,-0.85902333,5.802595,0.14897557,-1.5825601,-1.7046711,10.925380240383733,2.3307925221360795,walk
09/07/2020, 21:50:33,9.339187,-0.5072784,5.855237,0.14897557,-1.5825601,-1.7046711,11.034561132848662,2.3307925221360795,walk
09/07/2020, 21:50:33,9.339187,-0.5072784,5.855237,-0.03297,-1.526389,-1.7193245,11.034561132848662,2.2993536136101786,walk
09/07/2020, 21:50:33,9.5665045,-0.34456646,5.9916277,-0.03297,-1.526389,-1.7193245,11.293198678777163,2.2993536136101786,walk
09/07/2020, 21:50:33,9.5665045,-0.34456646,5.9916277,-0.2075889,-1.45068,-1.6985656,11.293198678777163,2.2433659461227005,walk
09/07/2020, 21:50:33,9.71486,-0.39481574,5.9342003,-0.2075889,-1.45068,-1.6985656,11.390746973127001,2.2433659461227005,walk
09/07/2020, 21:50:34,6.326623,-2.2899313,6.1734824,0.109900005,0.5128667,0.60933447,9.131365102097893,0.8039892619023135,walk
09/07/2020, 21:50:34,6.1710896,-2.361716,6.151947,0.109900005,0.5128667,0.60933447,9.028095160639275,0.8039892619023135,walk
09/07/2020, 21:50:34,6.1710896,-2.361716,6.151947,0.08792,0.47745445,0.57148004,9.028095160639275,0.7498547282812402,walk
09/07/2020, 21:50:34,6.04427,-2.4526432,6.1830535,0.08792,0.47745445,0.57148004,8.9877032246276,0.7498547282812402,walk
09/07/2020, 21:50:34,6.04427,-2.4526432,6.1830535,0.08669889,0.44326335,0.53973114,8.9877032246276,0.7037817882087561,walk
09/07/2020, 21:50:34,5.953343,-2.5172493,6.250053,0.08669889,0.44326335,0.53973114,8.991217811941869,0.7037817882087561,walk
09/07/2020, 21:50:34,5.953343,-2.5172493,6.250053,0.09402556,0.40540892,0.5104245,8.991217811941869,0.6585820846368075,walk
09/07/2020, 21:50:34,5.905486,-2.6392834,6.34098,0.09402556,0.40540892,0.5104245,9.058068842437581,0.6585820846368075,walk
09/07/2020, 21:50:34,5.905486,-2.6392834,6.34098,0.109900005,0.3712178,0.47623336,9.058068842437581,0.6137416988405561,walk
09/07/2020, 21:50:34,5.8169518,-2.7278178,6.4175506,0.109900005,0.3712178,0.47623336,9.080907043239673,0.6137416988405561,walk
09/07/2020, 21:50:34,5.8169518,-2.7278178,6.4175506,0.10867889,0.33580557,0.44082114,9.080907043239673,0.5647121014668012,walk
09/07/2020, 21:50:34,5.7858453,-2.7302105,6.4941206,0.10867889,0.33580557,0.44082114,9.116120751020622,0.5647121014668012,walk
09/07/2020, 21:50:34,5.7858453,-2.7302105,6.4941206,0.09768889,0.30772,0.41273558,9.116120751020622,0.524008951610527,walk
09/07/2020, 21:50:34,5.7355957,-2.7158537,6.5635123,0.09768889,0.30772,0.41273558,9.129765242620747,0.524008951610527,walk
09/07/2020, 21:50:34,5.7355957,-2.7158537,6.5635123,0.068382226,0.30161446,0.37976557,9.129765242620747,0.48976453688935806,walk
09/07/2020, 21:50:34,5.7140603,-2.7182465,6.6089764,0.068382226,0.30161446,0.37976557,9.149749591419141,0.48976453688935806,walk
09/07/2020, 21:50:34,5.7140603,-2.7182465,6.6089764,0.04029667,0.2820767,0.35412225,9.149749591419141,0.4545257392030558,walk
09/07/2020, 21:50:34,5.690132,-2.7326035,6.680761,0.04029667,0.2820767,0.35412225,9.191152899337393,0.4545257392030558,walk
09/07/2020, 21:50:34,5.690132,-2.7326035,6.680761,0.03052778,0.26009667,0.3260367,9.191152899337393,0.4181891282436678,walk
09/07/2020, 21:50:34,5.656633,-2.7158537,6.6831536,0.03052778,0.26009667,0.3260367,9.167218742475184,0.4181891282436678,walk
09/07/2020, 21:50:35,9.595219,-2.605784,4.2257247,-0.20514667,-0.22346334,-1.240649,10.803475378684412,1.277196509995356,walk
09/07/2020, 21:50:35,9.595219,-2.605784,4.2257247,-0.20026223,-0.20270446,-1.1563922,10.803475378684412,1.1909815359141669,walk
09/07/2020, 21:50:35,9.542577,-2.6512475,4.213761,-0.20026223,-0.20270446,-1.1563922,10.763162436223897,1.1909815359141669,walk
09/07/2020, 21:50:35,9.542577,-2.6512475,4.213761,-0.1965989,-0.17339778,-1.0782411,10.763162436223897,1.109649408278459,walk
09/07/2020, 21:50:35,9.49472,-2.7110682,4.2352962,-0.1965989,-0.17339778,-1.0782411,10.74417709490257,1.109649408278459,walk
09/07/2020, 21:50:35,9.49472,-2.7110682,4.2352962,-0.19293556,-0.1526389,-0.9927634,10.74417709490257,1.0227912447507908,walk
09/07/2020, 21:50:35,9.437292,-2.751746,4.2520456,-0.19293556,-0.1526389,-0.9927634,10.710484579495747,1.0227912447507908,walk
09/07/2020, 21:50:35,9.437292,-2.751746,4.2520456,-0.18438779,-0.12211112,-0.90362227,10.710484579495747,0.9302919907559652,walk
09/07/2020, 21:50:35,9.379865,-2.8354948,4.23051,-0.18438779,-0.12211112,-0.90362227,10.67328951239611,0.9302919907559652,walk
09/07/2020, 21:50:35,9.379865,-2.8354948,4.23051,-0.17706113,-0.08669889,-0.81570226,10.67328951239611,0.839188605685229,walk
09/07/2020, 21:50:35,9.276974,-2.900101,4.211368,-0.17706113,-0.08669889,-0.81570226,10.592848914270958,0.839188605685229,walk
09/07/2020, 21:50:35,9.276974,-2.900101,4.211368,-0.15752333,-0.06227667,-0.7216767,10.592848914270958,0.741288914026266,walk
09/07/2020, 21:50:35,9.188439,-2.9647074,4.206582,-0.15752333,-0.06227667,-0.7216767,10.531488050836558,0.741288914026266,walk
09/07/2020, 21:50:35,9.188439,-2.9647074,4.206582,-0.1306589,-0.037854444,-0.6288723,10.531488050836558,0.6434166958043686,walk
09/07/2020, 21:50:35,9.080762,-3.0364919,4.1611185,-0.1306589,-0.037854444,-0.6288723,10.440087498252893,0.6434166958043686,walk
09/07/2020, 21:50:35,9.080762,-3.0364919,4.1611185,-0.098910004,-0.018316668,-0.53118336,10.440087498252893,0.5406241330666854,walk
09/07/2020, 21:50:35,9.018549,-3.101098,4.101298,-0.098910004,-0.018316668,-0.53118336,10.381313920806026,0.5406241330666854,walk
09/07/2020, 21:50:35,9.018549,-3.101098,4.101298,-0.06105556,-0.0024422223,-0.4383789,10.381313920806026,0.4426169970018456,walk
09/07/2020, 21:50:35,8.985049,-3.1106694,4.065406,-0.06105556,-0.0024422223,-0.4383789,10.34093316056945,0.4426169970018456,walk
09/07/2020, 21:50:35,8.985049,-3.1106694,4.065406,-0.025643334,0.012211111,-0.34679556,10.34093316056945,0.3479566804965544,walk
09/07/2020, 21:50:36,9.726824,-2.498107,4.54397,-0.32237336,-0.36755446,-2.2382967,11.022672274748958,2.2910681330277245,walk
09/07/2020, 21:50:36,9.726824,-2.498107,4.54397,-0.34069002,-0.35412225,-2.2578344,11.022672274748958,2.3106900679261737,walk
09/07/2020, 21:50:36,9.820144,-2.5914268,4.5894337,-0.34069002,-0.35412225,-2.2578344,11.145116276156163,2.3106900679261737,walk
09/07/2020, 21:50:36,9.820144,-2.5914268,4.5894337,-0.3504589,-0.34191114,-2.262719,11.145116276156163,2.315085646784026,walk
09/07/2020, 21:50:36,9.896714,-2.6919255,4.651647,-0.3504589,-0.34191114,-2.262719,11.261848687432838,2.315085646784026,walk
09/07/2020, 21:50:36,9.896714,-2.6919255,4.651647,-0.35534334,-0.32359445,-2.2541711,11.261848687432838,2.304836166911688,walk
09/07/2020, 21:50:36,9.961321,-2.7493532,4.658826,-0.35534334,-0.32359445,-2.2541711,11.335409785222957,2.304836166911688,walk
09/07/2020, 21:50:36,9.961321,-2.7493532,4.658826,-0.35900667,-0.30894113,-2.2309701,11.335409785222957,2.28069248150965,walk
09/07/2020, 21:50:36,10.047462,-2.845066,4.7042894,-0.35900667,-0.30894113,-2.2309701,11.453219721969187,2.28069248150965,walk
09/07/2020, 21:50:36,10.047462,-2.845066,4.7042894,-0.3492378,-0.29306668,-2.1906734,11.453219721969187,2.2376114166499677,walk
09/07/2020, 21:50:36,10.107283,-2.9383862,4.7210393,-0.3492378,-0.29306668,-2.1906734,11.53600831455979,2.2376114166499677,walk
09/07/2020, 21:50:36,10.107283,-2.9383862,4.7210393,-0.33458444,-0.26864445,-2.1467135,11.53600831455979,2.1891768825349667,walk
09/07/2020, 21:50:36,10.126426,-3.022135,4.718646,-0.33458444,-0.26864445,-2.1467135,11.573392715445664,2.1891768825349667,walk
09/07/2020, 21:50:36,10.126426,-3.022135,4.718646,-0.31993112,-0.2515489,-2.0929844,11.573392715445664,2.132185878624984,walk
09/07/2020, 21:50:36,10.092926,-3.1393833,4.7042894,-0.31993112,-0.2515489,-2.0929844,11.569495341625805,2.132185878624984,walk
09/07/2020, 21:50:36,10.092926,-3.1393833,4.7042894,-0.30039334,-0.24300112,-2.02216,11.569495341625805,2.0587416022830167,walk
09/07/2020, 21:50:36,10.0163555,-3.1944182,4.692325,-0.30039334,-0.24300112,-2.02216,11.513018733805652,2.0587416022830167,walk
09/07/2020, 21:50:36,10.0163555,-3.1944182,4.692325,-0.27475002,-0.23323223,-1.9415667,11.513018733805652,1.9747319113023685,walk
09/07/2020, 21:50:36,9.949356,-3.2398818,4.685147,-0.27475002,-0.23323223,-1.9415667,11.464602949361609,1.9747319113023685,walk
09/07/2020, 21:50:36,9.949356,-3.2398818,4.685147,-0.24422224,-0.2283478,-1.8609734,11.464602949361609,1.8907694349881032,walk
09/07/2020, 21:50:37,8.274381,-1.7371893,4.063013,-0.1746189,0.04151778,-0.4798967,9.38036660283468,0.5123634681399014,walk
09/07/2020, 21:50:37,8.274381,-1.7371893,4.063013,-0.12943779,0.03174889,-0.5519422,9.38036660283468,0.5678048589337432,walk
09/07/2020, 21:50:37,8.226524,-1.847259,4.019942,-0.12943779,0.03174889,-0.5519422,9.340663843591996,0.5678048589337432,walk
09/07/2020, 21:50:37,8.226524,-1.847259,4.019942,-0.046402223,0.013432222,-0.63619894,9.340663843591996,0.6380303123773963,walk
09/07/2020, 21:50:37,8.176275,-1.9046868,4.0295134,-0.046402223,0.013432222,-0.63619894,9.312158008076489,0.6380303123773963,walk
09/07/2020, 21:50:37,8.176275,-1.9046868,4.0295134,0.028085556,-0.014653334,-0.7167922,9.312158008076489,0.7174918910199611,walk
09/07/2020, 21:50:37,8.140383,-1.8592232,4.017549,0.028085556,-0.014653334,-0.7167922,9.266242115419441,0.7174918910199611,walk
09/07/2020, 21:50:37,8.140383,-1.8592232,4.017549,0.04396,-0.04151778,-0.79250115,9.266242115419441,0.794804556438237,walk
09/07/2020, 21:50:37,8.147561,-1.7611175,4.019942,0.04396,-0.04151778,-0.79250115,9.254416149887152,0.794804556438237,walk
09/07/2020, 21:50:37,8.147561,-1.7611175,4.019942,0.0036633336,-0.047623336,-0.8547778,9.254416149887152,0.8561112729661361,walk
09/07/2020, 21:50:37,8.178668,-1.6319051,4.072584,0.0036633336,-0.047623336,-0.8547778,9.281145752549126,0.8561112729661361,walk
09/07/2020, 21:50:37,8.178668,-1.6319051,4.072584,-0.06349778,-0.042738892,-0.9133912,9.281145752549126,0.9165926117390837,walk
09/07/2020, 21:50:37,8.286345,-1.605584,4.082155,-0.06349778,-0.042738892,-0.9133912,9.375787807181172,0.9165926117390837,walk
09/07/2020, 21:50:37,8.286345,-1.605584,4.082155,-0.11966889,-0.036633335,-0.9842156,9.375787807181172,0.9921406283452389,walk
09/07/2020, 21:50:37,8.391629,-1.6534405,4.0797625,-0.11966889,-0.036633335,-0.9842156,9.476168428022316,0.9921406283452389,walk
09/07/2020, 21:50:37,8.391629,-1.6534405,4.0797625,-0.14531223,-0.039075557,-1.0574822,9.476168428022316,1.068134466309236,walk
09/07/2020, 21:50:37,8.446664,-1.7419748,4.065406,-0.14531223,-0.039075557,-1.0574822,9.534575570266936,1.068134466309236,walk
09/07/2020, 21:50:37,8.446664,-1.7419748,4.065406,-0.15508112,-0.047623336,-1.1258645,9.534575570266936,1.1374924273399778,walk
09/07/2020, 21:50:37,8.504091,-1.8496519,4.0845485,-0.15508112,-0.047623336,-1.1258645,9.613756638782823,1.1374924273399778,walk
09/07/2020, 21:50:37,8.504091,-1.8496519,4.0845485,-0.16607112,-0.064718895,-1.1893623,9.613756638782823,1.202643256406737,walk
09/07/2020, 21:50:38,10.164711,-2.5459633,3.9840498,0.17095557,0.24300112,1.735199,11.210527709690219,1.760451882728,walk
09/07/2020, 21:50:38,10.164711,-2.5459633,3.9840498,0.12821667,0.24910668,1.7535156,11.210527709690219,1.775756349679527,walk
09/07/2020, 21:50:38,10.162318,-2.5459633,3.9577286,0.12821667,0.24910668,1.7535156,11.199029276044131,1.775756349679527,walk
09/07/2020, 21:50:38,10.162318,-2.5459633,3.9577286,0.10501556,0.2515489,1.7681689,11.199029276044131,1.789057422768893,walk
09/07/2020, 21:50:38,10.174282,-2.5794628,3.9098723,0.10501556,0.2515489,1.7681689,11.200747530258116,1.789057422768893,walk
09/07/2020, 21:50:38,10.174282,-2.5794628,3.9098723,0.102573335,0.24788557,1.7840434,11.200747530258116,1.8041007481757265,walk
09/07/2020, 21:50:38,10.13839,-2.5603201,3.9888353,0.102573335,0.24788557,1.7840434,11.191648223909537,1.8041007481757265,walk
09/07/2020, 21:50:38,10.13839,-2.5603201,3.9888353,0.10013112,0.23567446,1.7999178,11.191648223909537,1.8180409340888422,walk
09/07/2020, 21:50:38,10.076176,-2.5172493,4.089334,0.10013112,0.23567446,1.7999178,11.161922480138957,1.8180409340888422,walk
09/07/2020, 21:50:38,10.076176,-2.5172493,4.089334,0.10135223,0.22712667,1.8194556,11.161922480138957,1.8363762050138823,walk
09/07/2020, 21:50:38,10.057034,-2.4646072,4.1467614,0.10135223,0.22712667,1.8194556,11.154095332883696,1.8363762050138823,walk
09/07/2020, 21:50:38,10.057034,-2.4646072,4.1467614,0.08792,0.23079,1.8353301,11.154095332883696,1.8518721970144774,walk
09/07/2020, 21:50:38,10.049855,-2.4382863,4.1491547,0.08792,0.23079,1.8353301,11.142724743515368,1.8518721970144774,walk
09/07/2020, 21:50:38,10.049855,-2.4382863,4.1491547,0.06349778,0.24788557,1.845099,11.142724743515368,1.862758557013107,walk
09/07/2020, 21:50:38,9.990034,-2.428715,4.063013,0.06349778,0.24788557,1.845099,11.05475070522677,1.862758557013107,walk
09/07/2020, 21:50:38,9.990034,-2.428715,4.063013,0.05250778,0.2503278,1.84632,11.05475070522677,1.8639524502686498,walk
09/07/2020, 21:50:38,9.906285,-2.388037,4.0534415,0.05250778,0.2503278,1.84632,10.9666584204916,1.8639524502686498,walk
09/07/2020, 21:50:38,9.906285,-2.388037,4.0534415,0.06105556,0.23323223,1.8389934,10.9666584204916,1.8547296003843583,walk
09/07/2020, 21:50:38,9.851251,-2.4071796,4.0127635,0.06105556,0.23323223,1.8389934,10.906141565473634,1.8547296003843583,walk
09/07/2020, 21:50:38,9.851251,-2.4071796,4.0127635,0.09402556,0.21613668,1.8292245,10.906141565473634,1.8443475869803496,walk
09/07/2020, 21:50:39,8.480164,-3.67059,4.685147,-0.009768889,-0.039075557,-0.6105556,10.360357390215903,0.6118827157765532,walk
09/07/2020, 21:50:39,8.451449,-3.629912,4.7210393,-0.009768889,-0.039075557,-0.6105556,10.338833071897893,0.6118827157765532,walk
09/07/2020, 21:50:39,8.451449,-3.629912,4.7210393,0.06105556,-0.05372889,-0.5372889,10.338833071897893,0.543409552287551,walk
09/07/2020, 21:50:39,8.441878,-3.5892339,4.725825,0.06105556,-0.05372889,-0.5372889,10.318979102218725,0.543409552287551,walk
09/07/2020, 21:50:39,8.441878,-3.5892339,4.725825,0.09524667,-0.048844445,-0.46402225,10.318979102218725,0.476208311618594,walk
09/07/2020, 21:50:39,8.427522,-3.5700915,4.682754,0.09524667,-0.048844445,-0.46402225,10.28089785544036,0.476208311618594,walk
09/07/2020, 21:50:39,8.427522,-3.5700915,4.682754,0.12211112,-0.04151778,-0.38831335,10.28089785544036,0.4091724717307973,walk
09/07/2020, 21:50:39,8.415557,-3.5389848,4.6636114,0.12211112,-0.04151778,-0.38831335,10.251599031862,0.4091724717307973,walk
09/07/2020, 21:50:39,8.415557,-3.5389848,4.6636114,0.13920668,-0.03174889,-0.31016225,10.251599031862,0.3414485468793613,walk
09/07/2020, 21:50:39,8.415557,-3.5557344,4.6492543,0.13920668,-0.03174889,-0.31016225,10.25087366578284,0.3414485468793613,walk
09/07/2020, 21:50:39,8.415557,-3.5557344,4.6492543,0.16485001,-0.03297,-0.2283478,10.25087366578284,0.2835582159873815,walk
09/07/2020, 21:50:39,8.4012,-3.5389848,4.65404,0.16485001,-0.03297,-0.2283478,10.235461232699157,0.2835582159873815,walk
09/07/2020, 21:50:39,8.4012,-3.5389848,4.65404,0.19293556,-0.035412222,-0.14287001,10.235461232699157,0.242672606137106,walk
09/07/2020, 21:50:39,8.449057,-3.5246277,4.6731825,0.19293556,-0.035412222,-0.14287001,10.27853067036971,0.242672606137106,walk
09/07/2020, 21:50:39,8.449057,-3.5246277,4.6731825,0.22224224,-0.039075557,-0.059834447,10.27853067036971,0.23344950569273798,walk
09/07/2020, 21:50:39,8.544769,-3.4695928,4.668397,0.22224224,-0.039075557,-0.059834447,10.336589694647584,0.23344950569273798,walk
09/07/2020, 21:50:39,8.544769,-3.4695928,4.668397,0.2295689,-0.035412222,0.025643334,10.336589694647584,0.23369528297665887,walk
09/07/2020, 21:50:39,8.592627,-3.4337006,4.6755753,0.2295689,-0.035412222,0.025643334,10.367474857644607,0.23369528297665887,walk
09/07/2020, 21:50:39,8.592627,-3.4337006,4.6755753,0.21491556,-0.026864445,0.109900005,10.367474857644607,0.24287529083972106,walk
09/07/2020, 21:50:39,8.652447,-3.3882368,4.709075,0.21491556,-0.026864445,0.109900005,10.41731108142617,0.24287529083972106,walk
09/07/2020, 21:50:40,8.26481,-2.9168508,4.7138605,0.13554333,0.0024422223,-0.94880337,9.951662042537343,0.9584392443122677,walk
09/07/2020, 21:50:40,8.26481,-2.9168508,4.7138605,0.123332225,0.008547778,-0.9732256,9.951662042537343,0.9810463588216569,walk
09/07/2020, 21:50:40,8.300702,-2.9216363,4.6875396,0.123332225,0.008547778,-0.9732256,9.970488527735055,0.9810463588216569,walk
09/07/2020, 21:50:40,8.300702,-2.9216363,4.6875396,0.10867889,0.012211111,-1.00009,9.970488527735055,1.0060518013454844,walk
09/07/2020, 21:50:40,8.370093,-2.9312077,4.625326,0.10867889,0.012211111,-1.00009,10.002203907013536,1.0060518013454844,walk
09/07/2020, 21:50:40,8.370093,-2.9312077,4.625326,0.10013112,0.018316668,-1.020849,10.002203907013536,1.0259114972542258,walk
09/07/2020, 21:50:40,8.439486,-2.9479575,4.6061835,0.10013112,0.018316668,-1.020849,10.056455467201317,1.0259114972542258,walk
09/07/2020, 21:50:40,8.439486,-2.9479575,4.6061835,0.08425667,0.018316668,-1.0306178,10.056455467201317,1.0342184512763977,walk
09/07/2020, 21:50:40,8.475378,-2.955136,4.6037908,0.08425667,0.018316668,-1.0306178,10.087603846362072,1.0342184512763977,walk
09/07/2020, 21:50:40,8.475378,-2.955136,4.6037908,0.08425667,0.018316668,-1.0416079,10.087603846362072,1.0451706148872706,walk
09/07/2020, 21:50:40,8.5423765,-2.9647074,4.558327,0.08425667,0.018316668,-1.0416079,10.126205273480963,1.0451706148872706,walk
09/07/2020, 21:50:40,8.5423765,-2.9647074,4.558327,0.08303556,0.018316668,-1.0440501,10.126205273480963,1.0475070454637356,walk
09/07/2020, 21:50:40,8.633304,-2.928815,4.520042,0.08303556,0.018316668,-1.0440501,10.175591756290522,1.0475070454637356,walk
09/07/2020, 21:50:40,8.633304,-2.928815,4.520042,0.09036223,0.015874445,-1.0501556,10.175591756290522,1.0541556800750145,walk
09/07/2020, 21:50:40,8.664411,-2.955136,4.4985065,0.09036223,0.015874445,-1.0501556,10.200068684745874,1.0541556800750145,walk
09/07/2020, 21:50:40,8.664411,-2.955136,4.4985065,0.10135223,0.015874445,-1.0513767,10.200068684745874,1.0563698398916894,walk
09/07/2020, 21:50:40,8.693125,-2.9623144,4.4554358,0.10135223,0.015874445,-1.0513767,10.207675173360817,1.0563698398916894,walk
09/07/2020, 21:50:40,8.693125,-2.9623144,4.4554358,0.11356334,0.008547778,-1.0403867,10.207675173360817,1.0466012292812823,walk
09/07/2020, 21:50:40,8.707481,-2.9958138,4.386044,0.11356334,0.008547778,-1.0403867,10.199633074472738,1.0466012292812823,walk
09/07/2020, 21:50:40,8.707481,-2.9958138,4.386044,0.1306589,-0.0024422223,-1.0330601,10.199633074472738,1.041292863426282,walk
09/07/2020, 21:50:41,9.396614,-2.6321049,3.8907297,0.46402225,0.26620224,1.2638501,10.505337189586442,1.3724056754672758,walk
09/07/2020, 21:50:41,9.396614,-2.6321049,3.8907297,0.44082114,0.2625389,1.29682,10.505337189586442,1.394629766438684,walk
09/07/2020, 21:50:41,9.458828,-2.589034,3.8739798,0.44082114,0.2625389,1.29682,10.544204267083089,1.394629766438684,walk
09/07/2020, 21:50:41,9.458828,-2.589034,3.8739798,0.40785113,0.26620224,1.3285689,10.544204267083089,1.4150270645327234,walk
09/07/2020, 21:50:41,9.516255,-2.5794628,3.9098723,0.40785113,0.26620224,1.3285689,10.606594455755316,1.4150270645327234,walk
09/07/2020, 21:50:41,9.516255,-2.5794628,3.9098723,0.37854445,0.26376,1.3542123,10.606594455755316,1.4306488558345833,walk
09/07/2020, 21:50:41,9.556933,-2.5722845,3.8644085,0.37854445,0.26376,1.3542123,10.624748298866548,1.4306488558345833,walk
09/07/2020, 21:50:41,9.556933,-2.5722845,3.8644085,0.3370267,0.2613178,1.3774134,10.624748298866548,1.441922892011303,walk
09/07/2020, 21:50:41,9.556933,-2.6009982,3.8548372,0.3370267,0.2613178,1.3774134,10.628261249742417,1.441922892011303,walk
09/07/2020, 21:50:41,9.556933,-2.6009982,3.8548372,0.2942878,0.2613178,1.3993934,10.628261249742417,1.4536830104141991,walk
09/07/2020, 21:50:41,9.571291,-2.5914268,3.8548372,0.2942878,0.2613178,1.3993934,10.638837982746798,1.4536830104141991,walk
09/07/2020, 21:50:41,9.571291,-2.5914268,3.8548372,0.26009667,0.25765446,1.4262578,10.638837982746798,1.472497045257685,walk
09/07/2020, 21:50:41,9.580862,-2.629712,3.8811584,0.26009667,0.25765446,1.4262578,10.666381459401716,1.472497045257685,walk
