DATE,TIME,ax,ay,az,gx,gy,gz,ma,mg,label
09/07/2020, 21:36:59,0.9379865,2.2277179,9.533006,-0.058613338,0.05372889,-0.08303556,9.834670485041215,0.11496617283600875,stand
09/07/2020, 21:36:59,0.9379865,2.2277179,9.533006,-0.089141116,0.05006556,-0.08059334,9.834670485041215,0.1301844272076857,stand
09/07/2020, 21:36:59,0.9212367,2.1822543,9.547362,-0.089141116,0.05006556,-0.08059334,9.836820540852614,0.1301844272076857,stand
09/07/2020, 21:36:59,0.9212367,2.1822543,9.547362,-0.078151114,0.057392225,-0.078151114,9.836820540852614,0.12453537963358524,stand
09/07/2020, 21:36:59,0.91405827,2.1631117,9.573684,-0.078151114,0.057392225,-0.078151114,9.857483198839622,0.12453537963358524,stand
09/07/2020, 21:36:59,0.91405827,2.1631117,9.573684,-0.068382226,0.06105556,-0.058613338,9.857483198839622,0.1088091610623015,stand
09/07/2020, 21:36:59,0.87338024,2.1463618,9.600004,-0.068382226,0.06105556,-0.058613338,9.875714795026182,0.1088091610623015,stand
09/07/2020, 21:36:59,0.87338024,2.1463618,9.600004,-0.054950003,0.05250778,-0.03174889,9.875714795026182,0.08236845189617234,stand
09/07/2020, 21:36:59,0.83748794,2.1511476,9.60479,-0.054950003,0.05250778,-0.03174889,9.878299848116612,0.08236845189617234,stand
09/07/2020, 21:36:59,0.83748794,2.1511476,9.60479,-0.07326667,0.05617111,-0.02198,9.878299848116612,0.0949016289340443,stand
09/07/2020, 21:36:59,0.83030945,2.1367905,9.580862,-0.07326667,0.05617111,-0.02198,9.851304736700047,0.0949016289340443,stand
09/07/2020, 21:36:59,0.83030945,2.1367905,9.580862,-0.14042778,0.0,-0.057392225,9.851304736700047,0.15170309729127118,stand
09/07/2020, 21:36:59,0.8805587,2.2468605,9.413364,-0.14042778,0.0,-0.057392225,9.71777728308404,0.15170309729127118,stand
09/07/2020, 21:36:59,0.8805587,2.2468605,9.413364,-0.12455334,0.025643334,-0.05006556,9.71777728308404,0.13666628932110647,stand
09/07/2020, 21:36:59,0.87338024,2.254039,9.506684,-0.12455334,0.025643334,-0.05006556,9.80920646778368,0.13666628932110647,stand
09/07/2020, 21:36:59,0.87338024,2.254039,9.506684,-0.14531223,0.05006556,-0.01099,9.80920646778368,0.15408759137672198,stand
09/07/2020, 21:36:59,0.8327023,2.184647,9.540184,-0.14531223,0.05006556,-0.01099,9.822483755067603,0.15408759137672198,stand
09/07/2020, 21:36:59,0.8327023,2.184647,9.540184,-0.14531223,0.05006556,0.019537779,9.822483755067603,0.15493201896485861,stand
09/07/2020, 21:36:59,0.8039884,2.103291,9.6071825,-0.14531223,0.05006556,0.019537779,9.867531918389167,0.15493201896485861,stand
09/07/2020, 21:36:59,0.8039884,2.103291,9.6071825,-0.12577444,0.04029667,0.024422223,9.867531918389167,0.13431112065137615,stand
09/07/2020, 21:37:00,1.3830515,1.7252251,9.671789,-0.3382478,0.03052778,-1.45068,9.921327473794447,1.489904707215687,stand
09/07/2020, 21:37:00,1.3280165,1.6414764,9.640682,-0.3382478,0.03052778,-1.45068,9.869185695892277,1.489904707215687,stand
09/07/2020, 21:37:00,1.3280165,1.6414764,9.640682,-0.36755446,0.034191113,-1.4909767,9.869185695892277,1.535993751343725,stand
09/07/2020, 21:37:00,1.2801601,1.564906,9.640682,-0.36755446,0.034191113,-1.4909767,9.850405792229012,1.535993751343725,stand
09/07/2020, 21:37:00,1.2801601,1.564906,9.640682,-0.37366003,0.042738892,-1.5288311,9.850405792229012,1.5744119651659494,stand
09/07/2020, 21:37:00,1.2466606,1.4524434,9.616755,-0.37366003,0.042738892,-1.5288311,9.805392499582936,1.5744119651659494,stand
09/07/2020, 21:37:00,1.2466606,1.4524434,9.616755,-0.34557447,0.047623336,-1.5654645,9.805392499582936,1.6038605879278642,stand
09/07/2020, 21:37:00,1.18684,1.2514462,9.552148,-0.34557447,0.047623336,-1.5654645,9.706607845773707,1.6038605879278642,stand
09/07/2020, 21:37:00,1.18684,1.2514462,9.552148,-0.31138334,0.039075557,-1.5947711,9.706607845773707,1.6253558047933883,stand
09/07/2020, 21:37:00,1.0959128,1.0456635,9.487542,-0.31138334,0.039075557,-1.5947711,9.607699677595813,1.6253558047933883,stand
09/07/2020, 21:37:00,1.0959128,1.0456635,9.487542,-0.27963445,0.026864445,-1.6326256,9.607699677595813,1.6566180626993152,stand
09/07/2020, 21:37:00,0.9954142,0.9667004,9.454042,-0.27963445,0.026864445,-1.6326256,9.555327173708873,1.6566180626993152,stand
09/07/2020, 21:37:00,0.9954142,0.9667004,9.454042,-0.25521225,0.013432222,-1.6765857,9.555327173708873,1.695952015544151,stand
09/07/2020, 21:37:00,0.90448695,0.9954142,9.413364,-0.25521225,0.013432222,-1.6765857,9.508962908635601,1.695952015544151,stand
09/07/2020, 21:37:00,0.90448695,0.9954142,9.413364,-0.25399113,-0.0024422223,-1.7181034,9.508962908635601,1.7367777003486309,stand
09/07/2020, 21:37:00,0.8327023,1.0049855,9.35833,-0.25399113,-0.0024422223,-1.7181034,9.448900728814763,1.7367777003486309,stand
09/07/2020, 21:37:00,0.8327023,1.0049855,9.35833,-0.30649891,-0.014653334,-1.746189,9.448900728814763,1.7729445345502182,stand
09/07/2020, 21:37:00,0.782453,0.99302137,9.269794,-0.30649891,-0.014653334,-1.746189,9.355608667755584,1.7729445345502182,stand
09/07/2020, 21:37:00,0.782453,0.99302137,9.269794,-0.39197668,-0.015874445,-1.7669479,9.355608667755584,1.8099730601375936,stand
09/07/2020, 21:37:00,0.74416786,1.0073783,9.162118,-0.39197668,-0.015874445,-1.7669479,9.247324067387865,1.8099730601375936,stand
09/07/2020, 21:37:01,8.571091,-0.63170516,7.4823565,0.025643334,-0.6777167,-0.2820767,11.39510011754589,0.7345234685016131,stand
09/07/2020, 21:37:01,8.5112705,-0.6412765,7.496713,0.025643334,-0.6777167,-0.2820767,11.360179121143188,0.7345234685016131,stand
09/07/2020, 21:37:01,8.5112705,-0.6412765,7.496713,0.07204556,-0.63986224,-0.19049335,11.360179121143188,0.6714923396888463,stand
09/07/2020, 21:37:01,8.355737,-0.62452674,7.4392858,0.07204556,-0.63986224,-0.19049335,11.20496954647042,0.6714923396888463,stand
09/07/2020, 21:37:01,8.355737,-0.62452674,7.4392858,0.08303556,-0.59590226,-0.11356334,11.20496954647042,0.6122834668124508,stand
09/07/2020, 21:37:01,8.161918,-0.5288138,7.3698936,0.08303556,-0.59590226,-0.11356334,11.009626482538772,0.6122834668124508,stand
09/07/2020, 21:37:01,8.161918,-0.5288138,7.3698936,0.047623336,-0.55316335,-0.048844445,11.009626482538772,0.5573539749475562,stand
09/07/2020, 21:37:01,7.9920278,-0.31345975,7.281359,0.047623336,-0.55316335,-0.048844445,10.816143326702024,0.5573539749475562,stand
09/07/2020, 21:37:01,7.9920278,-0.31345975,7.281359,-0.017095556,-0.5250778,0.0012211112,10.816143326702024,0.5253574650038522,stand
09/07/2020, 21:37:01,7.9011,-0.1052842,7.133004,-0.017095556,-0.5250778,0.0012211112,10.645102969626565,0.5253574650038522,stand
09/07/2020, 21:37:01,7.9011,-0.1052842,7.133004,-0.070824444,-0.50554,0.019537779,10.645102969626565,0.5108507920732379,stand
09/07/2020, 21:37:01,7.8891363,0.09092726,7.0229344,-0.070824444,-0.50554,0.019537779,10.562591900518374,0.5108507920732379,stand
09/07/2020, 21:37:01,7.8891363,0.09092726,7.0229344,-0.11600556,-0.5030978,0.0036633336,10.562591900518374,0.5163119979996262,stand
09/07/2020, 21:37:01,7.891529,0.23688944,6.987042,-0.11600556,-0.5030978,0.0036633336,10.542822349414498,0.5163119979996262,stand
09/07/2020, 21:37:01,7.891529,0.23688944,6.987042,-0.17584,-0.4921078,-0.02075889,10.542822349414498,0.5229920976741733,stand
09/07/2020, 21:37:01,7.8580294,0.29192436,7.0492554,-0.17584,-0.4921078,-0.02075889,10.56057984331484,0.5229920976741733,stand
09/07/2020, 21:37:01,7.8580294,0.29192436,7.0492554,-0.26376,-0.4798967,-0.04029667,10.56057984331484,0.5490846899891881,stand
09/07/2020, 21:37:01,7.798209,0.30149564,7.176075,-0.26376,-0.4798967,-0.04029667,10.60184032804705,0.5490846899891881,stand
09/07/2020, 21:37:01,7.798209,0.30149564,7.176075,-0.34679556,-0.46402225,-0.070824444,10.60184032804705,0.5836093806257164,stand
09/07/2020, 21:37:01,7.704889,0.32542387,7.312466,-0.34679556,-0.46402225,-0.070824444,10.627481994659231,0.5836093806257164,stand
09/07/2020, 21:37:02,8.142776,-0.49292147,5.6350975,0.26742333,-0.03052778,0.02198,9.914740988842631,0.27005611292489035,stand
09/07/2020, 21:37:02,8.142776,-0.49292147,5.6350975,0.2503278,-0.029306669,0.024422223,9.914740988842631,0.25321795181513934,stand
09/07/2020, 21:37:02,8.152347,-0.40677986,5.6350975,0.2503278,-0.029306669,0.024422223,9.918696940267333,0.25321795181513934,stand
09/07/2020, 21:37:02,8.152347,-0.40677986,5.6350975,0.21613668,-0.029306669,0.02198,9.918696940267333,0.21921921744376982,stand
09/07/2020, 21:37:02,8.154739,-0.30867413,5.6374903,0.21613668,-0.029306669,0.02198,9.918485299842224,0.21921921744376982,stand
09/07/2020, 21:37:02,8.154739,-0.30867413,5.6374903,0.17706113,-0.03052778,0.024422223,9.918485299842224,0.1813257635224404,stand
09/07/2020, 21:37:02,8.145168,-0.2416751,5.6279187,0.17706113,-0.03052778,0.024422223,9.903314731964528,0.1813257635224404,stand
09/07/2020, 21:37:02,8.145168,-0.2416751,5.6279187,0.12211112,-0.026864445,0.024422223,9.903314731964528,0.1273941475279751,stand
09/07/2020, 21:37:02,8.128419,-0.19860429,5.6207404,0.12211112,-0.026864445,0.024422223,9.88450103133924,0.1273941475279751,stand
09/07/2020, 21:37:02,8.128419,-0.19860429,5.6207404,0.06227667,-0.019537779,0.025643334,9.88450103133924,0.07012623504889046,stand
09/07/2020, 21:37:02,8.130812,-0.18903299,5.613562,0.06227667,-0.019537779,0.025643334,9.882201766778536,0.07012623504889046,stand
09/07/2020, 21:37:02,8.130812,-0.18903299,5.613562,0.028085556,-0.012211111,0.029306669,9.882201766778536,0.04238856597731899,stand
09/07/2020, 21:37:02,8.145168,-0.21296121,5.625526,0.028085556,-0.012211111,0.029306669,9.901295946246229,0.04238856597731899,stand
09/07/2020, 21:37:02,8.145168,-0.21296121,5.625526,0.026864445,0.0048844446,0.028085556,9.901295946246229,0.03917083921780337,stand
09/07/2020, 21:37:02,8.169097,-0.27996024,5.649454,0.026864445,0.0048844446,0.028085556,9.936239453718889,0.03917083921780337,stand
09/07/2020, 21:37:02,8.169097,-0.27996024,5.649454,0.05250778,0.0061055557,0.035412222,9.936239453718889,0.063626804884923,stand
09/07/2020, 21:37:02,8.185846,-0.39481574,5.651847,0.05250778,0.0061055557,0.035412222,9.955266586473229,0.063626804884923,stand
09/07/2020, 21:37:02,8.185846,-0.39481574,5.651847,0.123332225,0.008547778,0.04029667,9.955266586473229,0.13002970353219104,stand
09/07/2020, 21:37:02,8.190632,-0.5072784,5.6781683,0.123332225,0.008547778,0.04029667,9.979247313117689,0.13002970353219104,stand
09/07/2020, 21:37:02,8.190632,-0.5072784,5.6781683,0.18194556,0.0061055557,0.034191113,9.979247313117689,0.1852309306771573,stand
09/07/2020, 21:37:03,7.7623167,-1.0839486,6.0107703,0.048844445,0.20392556,0.19049335,9.877138505380762,0.2833004243876007,stand
09/07/2020, 21:37:03,7.7623167,-1.0839486,6.0107703,0.06105556,0.19171445,0.20026223,9.877138505380762,0.28387880194221954,stand
09/07/2020, 21:37:03,7.745567,-1.079163,6.0107703,0.06105556,0.19171445,0.20026223,9.863455696864783,0.28387880194221954,stand
09/07/2020, 21:37:03,7.745567,-1.079163,6.0107703,0.07570889,0.18438779,0.20514667,9.863455696864783,0.28603469820000765,stand
09/07/2020, 21:37:03,7.7647095,-1.052842,6.0011992,0.07570889,0.18438779,0.20514667,9.869831908373161,0.28603469820000765,stand
09/07/2020, 21:37:03,7.7647095,-1.052842,6.0011992,0.08792,0.19049335,0.20514667,9.869831908373161,0.2934327824304502,stand
09/07/2020, 21:37:03,7.800602,-1.012164,5.9724855,0.08792,0.19049335,0.20514667,9.876459407878887,0.2934327824304502,stand
09/07/2020, 21:37:03,7.800602,-1.012164,5.9724855,0.06594,0.18805112,0.20026223,9.876459407878887,0.28251773281162695,stand
09/07/2020, 21:37:03,7.826923,-0.9834501,5.9437714,0.06594,0.18805112,0.20026223,9.877059993575147,0.28251773281162695,stand
09/07/2020, 21:37:03,7.826923,-0.9834501,5.9437714,0.06716111,0.18805112,0.20026223,9.877059993575147,0.2828052348175417,stand
09/07/2020, 21:37:03,7.82453,-0.9499506,5.9246287,0.06716111,0.18805112,0.20026223,9.860370348572584,0.2828052348175417,stand
09/07/2020, 21:37:03,7.82453,-0.9499506,5.9246287,0.059834447,0.19415668,0.19537778,9.860370348572584,0.2818677948162476,stand
09/07/2020, 21:37:03,7.810173,-0.92602235,5.9246287,0.059834447,0.19415668,0.19537778,9.846702283928716,0.2818677948162476,stand
09/07/2020, 21:37:03,7.810173,-0.92602235,5.9246287,0.05617111,0.1965989,0.19293556,9.846702283928716,0.2811235511935817,stand
09/07/2020, 21:37:03,7.786245,-0.9403793,5.9294147,0.05617111,0.1965989,0.19293556,9.831982592512807,0.2811235511935817,stand
09/07/2020, 21:37:03,7.786245,-0.9403793,5.9294147,0.045181114,0.19904111,0.19293556,9.831982592512807,0.28086086713070885,stand
09/07/2020, 21:37:03,7.759924,-0.97866446,5.9342003,0.045181114,0.19904111,0.19293556,9.817786748630732,0.28086086713070885,stand
09/07/2020, 21:37:03,7.759924,-0.97866446,5.9342003,0.04396,0.19415668,0.19415668,9.817786748630732,0.2780757303308296,stand
09/07/2020, 21:37:03,7.728817,-1.0289137,5.95095,0.04396,0.19415668,0.19415668,9.80852094446856,0.2780757303308296,stand
09/07/2020, 21:37:03,7.728817,-1.0289137,5.95095,0.05006556,0.19537778,0.18683001,9.80852094446856,0.27492633915317255,stand
09/07/2020, 21:37:04,5.7930236,-1.3351951,6.5635123,0.045181114,0.09402556,0.15508112,8.855594964523535,0.18690182907140093,stand
09/07/2020, 21:37:04,5.7930236,-1.3351951,6.5635123,0.036633335,0.06594,0.123332225,8.855594964523535,0.14457151352639844,stand
09/07/2020, 21:37:04,5.814559,-1.3710874,6.6017976,0.036633335,0.06594,0.123332225,8.903522236045333,0.14457151352639844,stand
09/07/2020, 21:37:04,5.814559,-1.3710874,6.6017976,0.035412222,0.05006556,0.09524667,8.903522236045333,0.11328068795169993,stand
09/07/2020, 21:37:04,5.85763,-1.4524434,6.661618,0.035412222,0.05006556,0.09524667,8.988802800653037,0.11328068795169993,stand
09/07/2020, 21:37:04,5.85763,-1.4524434,6.661618,0.047623336,0.028085556,0.08059334,8.988802800653037,0.09773467695365866,stand
09/07/2020, 21:37:04,5.907879,-1.5433706,6.735796,0.047623336,0.028085556,0.08059334,9.091533041595072,0.09773467695365866,stand
09/07/2020, 21:37:04,5.907879,-1.5433706,6.735796,0.068382226,0.02075889,0.06105556,9.091533041595072,0.09399383856034445,stand
09/07/2020, 21:37:04,5.9294147,-1.5864414,6.7836523,0.068382226,0.02075889,0.06105556,9.148371121622088,0.09399383856034445,stand
09/07/2020, 21:37:04,5.9294147,-1.5864414,6.7836523,0.09280445,0.0048844446,0.036633335,9.148371121622088,0.0998925642154999,stand
09/07/2020, 21:37:04,5.9342003,-1.5888343,6.788438,0.09280445,0.0048844446,0.036633335,9.155436406027754,0.0998925642154999,stand
09/07/2020, 21:37:04,5.9342003,-1.5888343,6.788438,0.109900005,-0.017095556,0.019537779,9.155436406027754,0.11292472704198464,stand
09/07/2020, 21:37:04,5.9437714,-1.5888343,6.7908306,0.109900005,-0.017095556,0.019537779,9.163416000501142,0.11292472704198464,stand
09/07/2020, 21:37:04,5.9437714,-1.5888343,6.7908306,0.10867889,-0.05006556,0.0,9.163416000501142,0.11965643217150576,stand
09/07/2020, 21:37:04,5.977271,-1.5720844,6.786045,0.10867889,-0.05006556,0.0,9.178759543744949,0.11965643217150576,stand
09/07/2020, 21:37:04,5.977271,-1.5720844,6.786045,0.08303556,-0.051286668,-0.018316668,9.178759543744949,0.09930119108261343,stand
09/07/2020, 21:37:04,6.013163,-1.5433706,6.798009,0.08303556,-0.051286668,-0.018316668,9.20614188606769,0.09930119108261343,stand
09/07/2020, 21:37:04,6.013163,-1.5433706,6.798009,0.06716111,-0.05617111,-0.042738892,9.20614188606769,0.09742906034860378,stand
09/07/2020, 21:37:04,6.053841,-1.5457634,6.843473,0.06716111,-0.05617111,-0.042738892,9.266687583064051,0.09742906034860378,stand
09/07/2020, 21:37:04,6.053841,-1.5457634,6.843473,0.059834447,-0.06716111,-0.058613338,9.266687583064051,0.10736060480117232,stand
09/07/2020, 21:37:05,-0.6221339,-2.349752,7.8963146,0.051286668,0.05250778,1.5764545,8.261971279267847,1.5781622995192004,stand
09/07/2020, 21:37:05,-0.7728817,-2.225325,7.9393854,0.051286668,0.05250778,1.5764545,8.281500992574697,1.5781622995192004,stand
09/07/2020, 21:37:05,-0.7728817,-2.225325,7.9393854,0.10013112,0.012211111,1.5117356,8.281500992574697,1.5150972743217248,stand
09/07/2020, 21:37:05,-0.93559366,-2.210968,7.9968133,0.10013112,0.012211111,1.5117356,8.34941542813036,1.5150972743217248,stand
09/07/2020, 21:37:05,-0.93559366,-2.210968,7.9968133,0.16607112,-0.02198,1.4628912,8.34941542813036,1.4724515139454517,stand
09/07/2020, 21:37:05,-1.0743774,-2.292324,8.030313,0.16607112,-0.02198,1.4628912,8.41991424659413,1.4724515139454517,stand
09/07/2020, 21:37:05,-1.0743774,-2.292324,8.030313,0.25277,-0.048844445,1.4225945,8.41991424659413,1.4457018026025785,stand
09/07/2020, 21:37:05,-1.1102697,-2.4454648,8.092526,0.25277,-0.048844445,1.4225945,8.52654567662552,1.4457018026025785,stand
09/07/2020, 21:37:05,-1.1102697,-2.4454648,8.092526,0.35534334,-0.09402556,1.3822979,8.52654567662552,1.430334613835765,stand
09/07/2020, 21:37:05,-1.1078769,-2.5842485,8.145168,0.35534334,-0.09402556,1.3822979,8.616814867292359,1.430334613835765,stand
09/07/2020, 21:37:05,-1.1078769,-2.5842485,8.145168,0.4798967,-0.12699556,1.3200212,8.616814867292359,1.4102781830210596,stand
09/07/2020, 21:37:05,-1.1126626,-2.603391,8.240881,0.4798967,-0.12699556,1.3200212,8.713654882006075,1.4102781830210596,stand
09/07/2020, 21:37:05,-1.1126626,-2.603391,8.240881,0.55438447,-0.14653334,1.2455333,8.713654882006075,1.3711919920889264,stand
09/07/2020, 21:37:05,-1.160519,-2.481357,8.4012,0.55438447,-0.14653334,1.2455333,8.836521023145549,1.3711919920889264,stand
09/07/2020, 21:37:05,-1.160519,-2.481357,8.4012,0.53118336,-0.16240779,1.1832567,8.836521023145549,1.3071452016907628,stand
09/07/2020, 21:37:05,-1.253839,-2.3114667,8.563912,0.53118336,-0.16240779,1.1832567,8.958548208662247,1.3071452016907628,stand
09/07/2020, 21:37:05,-1.253839,-2.3114667,8.563912,0.45791668,-0.16118668,1.1563922,8.958548208662247,1.2541578001790252,stand
09/07/2020, 21:37:05,-1.3519448,-2.1942184,8.733803,0.45791668,-0.16118668,1.1563922,9.106133119883804,1.2541578001790252,stand
09/07/2020, 21:37:05,-1.3519448,-2.1942184,8.733803,0.37610224,-0.15630223,1.1429601,9.106133119883804,1.2133593886172387,stand
09/07/2020, 21:37:05,-1.4548361,-2.1774685,8.829515,0.37610224,-0.15630223,1.1429601,9.209682980911696,1.2133593886172387,stand
09/07/2020, 21:37:06,-1.7874385,-2.0889342,9.303294,-0.05617111,-0.06349778,0.05006556,9.701023919597587,0.09845670227331131,stand
09/07/2020, 21:37:06,-1.7874385,-2.0889342,9.303294,-0.07204556,-0.058613338,0.05250778,9.701023919597587,0.10669185848255404,stand
09/07/2020, 21:37:06,-1.7706888,-2.0482562,9.363115,-0.07204556,-0.058613338,0.05250778,9.746723569541903,0.10669185848255404,stand
09/07/2020, 21:37:06,-1.7706888,-2.0482562,9.363115,-0.09646778,-0.057392225,0.06227667,9.746723569541903,0.1283677652065224,stand
09/07/2020, 21:37:06,-1.7228323,-2.0027926,9.430114,-0.09646778,-0.057392225,0.06227667,9.793180052158133,0.1283677652065224,stand
09/07/2020, 21:37:06,-1.7228323,-2.0027926,9.430114,-0.08059334,-0.05250778,0.06716111,9.793180052158133,0.11731567918700521,stand
09/07/2020, 21:37:06,-1.6558332,-1.9788643,9.501899,-0.08059334,-0.05250778,0.06716111,9.846002633049686,0.11731567918700521,stand
09/07/2020, 21:37:06,-1.6558332,-1.9788643,9.501899,-0.051286668,-0.05250778,0.06960334,9.846002633049686,0.10115341843746926,stand
09/07/2020, 21:37:06,-1.6103697,-1.9884356,9.5353985,-0.051286668,-0.05250778,0.06960334,9.872739791336755,0.10115341843746926,stand
09/07/2020, 21:37:06,-1.6103697,-1.9884356,9.5353985,-0.028085556,-0.057392225,0.06716111,9.872739791336755,0.09269995147926906,stand
09/07/2020, 21:37:06,-1.5960127,-1.9764715,9.501899,-0.028085556,-0.057392225,0.06716111,9.835638082396976,0.09269995147926906,stand
09/07/2020, 21:37:06,-1.5960127,-1.9764715,9.501899,-0.008547778,-0.05250778,0.07204556,9.835638082396976,0.08955832645533651,stand
09/07/2020, 21:37:06,-1.5816557,-1.9477576,9.434899,-0.008547778,-0.05250778,0.07204556,9.7628233583937,0.08955832645533651,stand
09/07/2020, 21:37:06,-1.5816557,-1.9477576,9.434899,-0.014653334,-0.05250778,0.07326667,9.7628233583937,0.09132246256964753,stand
09/07/2020, 21:37:06,-1.5840486,-1.9310079,9.413364,-0.014653334,-0.05250778,0.07326667,9.739067252302746,0.09132246256964753,stand
09/07/2020, 21:37:06,-1.5840486,-1.9310079,9.413364,-0.025643334,-0.042738892,0.07693,9.739067252302746,0.09166470739175095,stand
09/07/2020, 21:37:06,-1.5840486,-1.9334008,9.504292,-0.025643334,-0.042738892,0.07693,9.82745165800708,0.09166470739175095,stand
09/07/2020, 21:37:06,-1.5840486,-1.9334008,9.504292,-0.034191113,-0.04151778,0.07693,9.82745165800708,0.09386683818110216,stand
09/07/2020, 21:37:06,-1.5768701,-1.9501505,9.600004,-0.034191113,-0.04151778,0.07693,9.922181552487856,0.09386683818110216,stand
09/07/2020, 21:37:06,-1.5768701,-1.9501505,9.600004,-0.042738892,-0.03052778,0.07937223,9.922181552487856,0.09517619813845817,stand
09/07/2020, 21:37:07,-1.3184453,-1.8257236,9.446864,0.017095556,0.0012211112,-0.019537779,9.711581064321905,0.025989881789230312,stand
09/07/2020, 21:37:07,-1.3447664,-1.8807586,9.458828,0.017095556,0.0012211112,-0.019537779,9.73730333808867,0.025989881789230312,stand
09/07/2020, 21:37:07,-1.3447664,-1.8807586,9.458828,0.04029667,-0.0012211112,-0.017095556,9.73730333808867,0.043790076284377366,stand
09/07/2020, 21:37:07,-1.3663018,-1.8855443,9.475577,0.04029667,-0.0012211112,-0.017095556,9.757490663468756,0.043790076284377366,stand
09/07/2020, 21:37:07,-1.3663018,-1.8855443,9.475577,0.028085556,0.0048844446,-0.019537779,9.757490663468756,0.03455981828840099,stand
09/07/2020, 21:37:07,-1.3686945,-1.8424734,9.482756,0.028085556,0.0048844446,-0.019537779,9.756571522067285,0.03455981828840099,stand
09/07/2020, 21:37:07,-1.3686945,-1.8424734,9.482756,-0.015874445,0.023201112,-0.017095556,9.756571522067285,0.03290209193554653,stand
09/07/2020, 21:37:07,-1.3710874,-1.8233309,9.492328,-0.015874445,0.023201112,-0.017095556,9.762617539252759,0.03290209193554653,stand
09/07/2020, 21:37:07,-1.3710874,-1.8233309,9.492328,-0.06349778,0.036633335,-0.012211111,9.762617539252759,0.07431743244882806,stand
09/07/2020, 21:37:07,-1.3854443,-1.8257236,9.482756,-0.06349778,0.036633335,-0.012211111,9.755786878986257,0.07431743244882806,stand
09/07/2020, 21:37:07,-1.3854443,-1.8257236,9.482756,-0.06349778,0.045181114,-0.014653334,9.755786878986257,0.07929704647236666,stand
09/07/2020, 21:37:07,-1.4141582,-1.8496519,9.49472,-0.06349778,0.045181114,-0.014653334,9.776030500768773,0.07929704647236666,stand
09/07/2020, 21:37:07,-1.4141582,-1.8496519,9.49472,-0.06594,0.046402223,-0.018316668,9.776030500768773,0.08268464344681341,stand
09/07/2020, 21:37:07,-1.4476577,-1.8855443,9.516255,-0.06594,0.046402223,-0.018316668,9.808675066980884,0.08268464344681341,stand
09/07/2020, 21:37:07,-1.4476577,-1.8855443,9.516255,-0.037854444,0.05372889,-0.015874445,9.808675066980884,0.06761472141445929,stand
09/07/2020, 21:37:07,-1.4715859,-1.9046868,9.533006,-0.037854444,0.05372889,-0.015874445,9.83217141642998,0.06761472141445929,stand
09/07/2020, 21:37:07,-1.4715859,-1.9046868,9.533006,-0.017095556,0.05006556,-0.017095556,9.83217141642998,0.0555974481535065,stand
09/07/2020, 21:37:07,-1.4883357,-1.8975084,9.523434,-0.017095556,0.05006556,-0.017095556,9.82402516600537,0.0555974481535065,stand
09/07/2020, 21:37:07,-1.4883357,-1.8975084,9.523434,-0.008547778,0.05250778,-0.02075889,9.82402516600537,0.05710571795504567,stand
09/07/2020, 21:37:07,-1.5002998,-1.8640088,9.49472,-0.008547778,0.05250778,-0.02075889,9.791585411268118,0.05710571795504567,stand
09/07/2020, 21:37:08,-1.0983056,-2.0291135,9.564112,-0.10745778,0.08792,-0.07570889,9.838486147238347,0.1581421417586347,stand
09/07/2020, 21:37:08,-1.1150553,-2.0291135,9.549755,-0.10745778,0.08792,-0.07570889,9.826417073206533,0.1581421417586347,stand
09/07/2020, 21:37:08,-1.1150553,-2.0291135,9.549755,-0.10135223,0.08425667,-0.09280445,9.826417073206533,0.16119592577724134,stand
09/07/2020, 21:37:08,-1.1629118,-2.0458634,9.51147,-0.10135223,0.08425667,-0.09280445,9.798264098190138,0.16119592577724134,stand
09/07/2020, 21:37:08,-1.1629118,-2.0458634,9.51147,-0.06594,0.07570889,-0.10013112,9.798264098190138,0.14179619163450663,stand
09/07/2020, 21:37:08,-1.1940185,-2.0745773,9.470792,-0.06594,0.07570889,-0.10013112,9.76859503092294,0.14179619163450663,stand
09/07/2020, 21:37:08,-1.1940185,-2.0745773,9.470792,-0.026864445,0.06960334,-0.10013112,9.76859503092294,0.12487018750227463,stand
09/07/2020, 21:37:08,-1.2083755,-2.0985055,9.432507,-0.026864445,0.06960334,-0.10013112,9.738381620532923,0.12487018750227463,stand
09/07/2020, 21:37:08,-1.2083755,-2.0985055,9.432507,-0.008547778,0.05250778,-0.10135223,9.738381620532923,0.1144657415700018,stand
09/07/2020, 21:37:08,-1.2203395,-2.0985055,9.391829,-0.008547778,0.05250778,-0.10135223,9.700484378306657,0.1144657415700018,stand
09/07/2020, 21:37:08,-1.2203395,-2.0985055,9.391829,-0.01099,0.036633335,-0.10745778,9.700484378306657,0.11406119272919035,stand
09/07/2020, 21:37:08,-1.2466606,-2.0793629,9.343972,-0.01099,0.036633335,-0.10745778,9.65337915746704,0.11406119272919035,stand
09/07/2020, 21:37:08,-1.2466606,-2.0793629,9.343972,-0.0024422223,0.025643334,-0.11112112,9.65337915746704,0.11406773381946,stand
09/07/2020, 21:37:08,-1.282553,-2.0697916,9.30808,-0.0024422223,0.025643334,-0.11112112,9.621295507211173,0.11406773381946,stand
09/07/2020, 21:37:08,-1.282553,-2.0697916,9.30808,-0.0024422223,0.018316668,-0.10745778,9.621295507211173,0.10903503611932086,stand
09/07/2020, 21:37:08,-1.3208381,-2.091327,9.29133,-0.0024422223,0.018316668,-0.10745778,9.614940516248828,0.10903503611932086,stand
09/07/2020, 21:37:08,-1.3208381,-2.091327,9.29133,0.0024422223,0.009768889,-0.10013112,9.614940516248828,0.10063615752229071,stand
09/07/2020, 21:37:08,-1.3591232,-2.1511476,9.296116,0.0024422223,0.009768889,-0.10013112,9.63807150494251,0.10063615752229071,stand
09/07/2020, 21:37:08,-1.3591232,-2.1511476,9.296116,0.007326667,-0.0048844446,-0.09280445,9.63807150494251,0.09322125938106211,stand
09/07/2020, 21:37:08,-1.3974084,-2.2181466,9.315259,0.007326667,-0.0048844446,-0.09280445,9.677136672368508,0.09322125938106211,stand
09/07/2020, 21:37:09,-1.3375878,-2.0219352,9.456435,-0.04396,0.008547778,0.0036633336,9.762250254078806,0.044932908229275474,stand
09/07/2020, 21:37:09,-1.3375878,-2.0219352,9.456435,-0.0061055557,-0.0024422223,0.0036633336,9.762250254078806,0.007527434700449178,stand
09/07/2020, 21:37:09,-1.3567305,-2.0482562,9.446864,-0.0061055557,-0.0024422223,0.0036633336,9.761112267120826,0.007527434700449178,stand
09/07/2020, 21:37:09,-1.3567305,-2.0482562,9.446864,0.0036633336,-0.012211111,0.007326667,9.761112267120826,0.014704125484485226,stand
09/07/2020, 21:37:09,-1.3519448,-2.0267208,9.449257,0.0036633336,-0.012211111,0.007326667,9.758268683875873,0.014704125484485226,stand
09/07/2020, 21:37:09,-1.3519448,-2.0267208,9.449257,-0.014653334,-0.008547778,0.0061055557,9.758268683875873,0.018029490618888106,stand
09/07/2020, 21:37:09,-1.3447664,-1.9525433,9.430114,-0.014653334,-0.008547778,0.0061055557,9.723572796427632,0.018029490618888106,stand
09/07/2020, 21:37:09,-1.3447664,-1.9525433,9.430114,-0.05006556,-0.0012211112,0.0024422223,9.723572796427632,0.050139961114976005,stand
09/07/2020, 21:37:09,-1.3375878,-1.8735801,9.399008,-0.05006556,-0.0012211112,0.0024422223,9.676817202410346,0.050139961114976005,stand
09/07/2020, 21:37:09,-1.3375878,-1.8735801,9.399008,-0.07570889,-0.0036633336,-0.0036633336,9.676817202410346,0.07588593953850498,stand
09/07/2020, 21:37:09,-1.3280165,-1.8329022,9.353543,-0.07570889,-0.0036633336,-0.0036633336,9.623509247954885,0.07588593953850498,stand
09/07/2020, 21:37:09,-1.3280165,-1.8329022,9.353543,-0.08303556,-0.0036633336,-0.014653334,9.623509247954885,0.08439812907309777,stand
09/07/2020, 21:37:09,-1.3328022,-1.8257236,9.317652,-0.08303556,-0.0036633336,-0.014653334,9.58792274635125,0.08439812907309777,stand
09/07/2020, 21:37:09,-1.3328022,-1.8257236,9.317652,-0.081814446,-0.009768889,-0.015874445,9.58792274635125,0.08391086173647297,stand
09/07/2020, 21:37:09,-1.3256238,-1.8903298,9.3104725,-0.081814446,-0.009768889,-0.015874445,9.592472214261196,0.08391086173647297,stand
09/07/2020, 21:37:09,-1.3256238,-1.8903298,9.3104725,-0.070824444,-0.018316668,-0.02075889,9.592472214261196,0.07604297283058895,stand
09/07/2020, 21:37:09,-1.2993027,-1.9764715,9.329616,-0.070824444,-0.018316668,-0.02075889,9.624778146677663,0.07604297283058895,stand
09/07/2020, 21:37:09,-1.2993027,-1.9764715,9.329616,-0.05006556,-0.028085556,-0.025643334,9.624778146677663,0.06287240376699427,stand
09/07/2020, 21:37:09,-1.2634103,-1.9908284,9.360723,-0.05006556,-0.028085556,-0.025643334,9.653120213906226,0.06287240376699427,stand
09/07/2020, 21:37:09,-1.2634103,-1.9908284,9.360723,-0.037854444,-0.026864445,-0.034191113,9.653120213906226,0.05765144881606364,stand
09/07/2020, 21:37:10,1.6103697,-9.889536,1.0839486,-2.4788556,0.25765446,-1.0880101,10.078251609419272,2.719352289220748,stand
09/07/2020, 21:37:10,1.6103697,-9.889536,1.0839486,-2.669349,0.14775445,-1.0013112,10.078251609419272,2.854799345970251,stand
09/07/2020, 21:37:10,1.6510476,-10.092926,0.7369894,-2.669349,0.14775445,-1.0013112,10.253597770270865,2.854799345970251,stand
09/07/2020, 21:37:10,1.6510476,-10.092926,0.7369894,-2.7963445,0.07570889,-0.97933114,10.253597770270865,2.9638427718573013,stand
09/07/2020, 21:37:10,1.7874385,-10.078569,0.6149554,-2.7963445,0.07570889,-0.97933114,10.254299976393611,2.9638427718573013,stand
09/07/2020, 21:37:10,1.7874385,-10.078569,0.6149554,-2.8744957,0.05617111,-0.9732256,10.254299976393611,3.0353004853059566,stand
09/07/2020, 21:37:10,1.8999012,-10.107283,0.57906306,-2.8744957,0.05617111,-0.9732256,10.300587398135225,3.0353004853059566,stand
09/07/2020, 21:37:10,1.8999012,-10.107283,0.57906306,-2.9123502,0.03174889,-0.93903446,10.300587398135225,3.0601596806009925,stand
09/07/2020, 21:37:10,1.9238294,-10.27478,0.38285163,-2.9123502,0.03174889,-0.93903446,10.460344389088768,3.0601596806009925,stand
09/07/2020, 21:37:10,1.9238294,-10.27478,0.38285163,-2.8427467,-0.014653334,-0.8950745,10.460344389088768,2.9803660939884664,stand
09/07/2020, 21:37:10,1.9310079,-10.521241,-0.038285162,-2.8427467,-0.014653334,-0.8950745,10.697045071150033,2.9803660939884664,stand
09/07/2020, 21:37:10,1.9310079,-10.521241,-0.038285162,-2.7059824,-0.07570889,-0.87920004,10.697045071150033,2.84623708606541,stand
09/07/2020, 21:37:10,1.98365,-10.607383,-0.22013968,-2.7059824,-0.07570889,-0.87920004,10.79351184746075,2.84623708606541,stand
09/07/2020, 21:37:10,1.98365,-10.607383,-0.22013968,-2.5313635,-0.12699556,-0.86088336,10.79351184746075,2.6767609398037604,stand
09/07/2020, 21:37:10,2.1176481,-10.636097,-0.086141616,-2.5313635,-0.12699556,-0.86088336,10.845202274752223,2.6767609398037604,stand
09/07/2020, 21:37:10,2.1176481,-10.636097,-0.086141616,-2.3701768,-0.1526389,-0.7851745,10.845202274752223,2.5015066734271265,stand
09/07/2020, 21:37:10,2.3377876,-10.767702,0.0023928226,-2.3701768,-0.1526389,-0.7851745,11.018560037123535,2.5015066734271265,stand
09/07/2020, 21:37:10,2.3377876,-10.767702,0.0023928226,-2.1931157,-0.15752333,-0.7131289,11.018560037123535,2.311519627063813,stand
09/07/2020, 21:37:10,2.5962126,-10.894522,-0.038285162,-2.1931157,-0.15752333,-0.7131289,11.199660223020205,2.311519627063813,stand
09/07/2020, 21:37:10,2.5962126,-10.894522,-0.038285162,-1.9745368,-0.12821667,-0.6557367,11.199660223020205,2.0845204714540486,stand
09/07/2020, 21:37:11,-1.416551,-3.4624143,8.288737,1.053819,-0.10867889,0.7986067,9.093849308091068,1.3266944311223525,stand
09/07/2020, 21:37:11,-1.416551,-3.4624143,8.288737,1.0428289,-0.12211112,0.7338878,9.093849308091068,1.281013101944739,stand
09/07/2020, 21:37:11,-1.4859428,-3.2039895,8.446664,1.0428289,-0.12211112,0.7338878,9.155310217755629,1.281013101944739,stand
09/07/2020, 21:37:11,-1.4859428,-3.2039895,8.446664,1.0330601,-0.12699556,0.6618422,9.155310217755629,1.2334407658073174,stand
09/07/2020, 21:37:11,-1.5314065,-2.9096723,8.52802,1.0330601,-0.12699556,0.6618422,9.139941033665837,1.2334407658073174,stand
09/07/2020, 21:37:11,-1.5314065,-2.9096723,8.52802,0.9683412,-0.109900005,0.61299783,9.139941033665837,1.1513161926697704,stand
09/07/2020, 21:37:11,-1.5768701,-2.7637103,8.599805,0.9683412,-0.109900005,0.61299783,9.169583284332797,1.1513161926697704,stand
09/07/2020, 21:37:11,-1.5768701,-2.7637103,8.599805,0.8816423,-0.091583334,0.5788067,9.169583284332797,1.05863015945088,stand
09/07/2020, 21:37:11,-1.6247265,-2.7206392,8.642876,0.8816423,-0.091583334,0.5788067,9.205482822447312,1.05863015945088,stand
09/07/2020, 21:37:11,-1.6247265,-2.7206392,8.642876,0.8315767,-0.085477784,0.54461557,9.205482822447312,0.9977135778336158,stand
09/07/2020, 21:37:11,-1.6438692,-2.6775684,8.681161,0.8315767,-0.085477784,0.54461557,9.232238817615995,0.9977135778336158,stand
09/07/2020, 21:37:11,-1.6438692,-2.6775684,8.681161,0.81570226,-0.08425667,0.48356003,9.232238817615995,0.9519977212877152,stand
09/07/2020, 21:37:11,-1.6390835,-2.6536403,8.650054,0.81570226,-0.08425667,0.48356003,9.195207188575877,0.9519977212877152,stand
09/07/2020, 21:37:11,-1.6390835,-2.6536403,8.650054,0.7937223,-0.091583334,0.41273558,9.195207188575877,0.8992959535895796,stand
09/07/2020, 21:37:11,-1.6414764,-2.6799614,8.575876,0.7937223,-0.091583334,0.41273558,9.133580420523119,0.8992959535895796,stand
09/07/2020, 21:37:11,-1.6414764,-2.6799614,8.575876,0.78761667,-0.09524667,0.35900667,9.133580420523119,0.870802927788533,stand
09/07/2020, 21:37:11,-1.6582261,-2.696711,8.56152,0.78761667,-0.09524667,0.35900667,9.128065661309083,0.870802927788533,stand
09/07/2020, 21:37:11,-1.6582261,-2.696711,8.56152,0.76075226,-0.10379445,0.3284789,9.128065661309083,0.8351141712533189,stand
09/07/2020, 21:37:11,-1.6773686,-2.725425,8.659625,0.76075226,-0.10379445,0.3284789,9.232042736074321,0.8351141712533189,stand
09/07/2020, 21:37:11,-1.6773686,-2.725425,8.659625,0.65940005,-0.10379445,0.31016225,9.232042736074321,0.7360586436773484,stand
09/07/2020, 21:37:12,-1.9046868,-2.5148566,9.090333,0.02198,-0.0012211112,0.0061055557,9.622187340624821,0.02284489771745338,stand
09/07/2020, 21:37:12,-1.9166509,-2.5268207,9.059227,0.02198,-0.0012211112,0.0061055557,9.598331466294086,0.02284489771745338,stand
09/07/2020, 21:37:12,-1.9166509,-2.5268207,9.059227,0.048844445,-0.015874445,0.0048844446,9.598331466294086,0.05159104256878887,stand
09/07/2020, 21:37:12,-1.9190438,-2.5292134,9.090333,0.048844445,-0.015874445,0.0048844446,9.628800723394635,0.05159104256878887,stand
09/07/2020, 21:37:12,-1.9190438,-2.5292134,9.090333,0.06349778,-0.023201112,0.0012211112,9.628800723394635,0.0676147246122739,stand
09/07/2020, 21:37:12,-1.8975084,-2.5052853,9.1669035,0.06349778,-0.023201112,0.0012211112,9.690671391250445,0.0676147246122739,stand
09/07/2020, 21:37:12,-1.8975084,-2.5052853,9.1669035,0.068382226,-0.029306669,0.009768889,9.690671391250445,0.07503626361014892,stand
09/07/2020, 21:37:12,-1.8664017,-2.548356,9.2793665,0.068382226,-0.029306669,0.009768889,9.802255674457207,0.07503626361014892,stand
09/07/2020, 21:37:12,-1.8664017,-2.548356,9.2793665,0.047623336,-0.025643334,0.012211111,9.802255674457207,0.05544974274766837,stand
09/07/2020, 21:37:12,-1.8687944,-2.6153553,9.3104725,0.047623336,-0.025643334,0.012211111,9.84973977937514,0.05544974274766837,stand
09/07/2020, 21:37:12,-1.8687944,-2.6153553,9.3104725,0.054950003,-0.028085556,0.008547778,9.84973977937514,0.06230060790763912,stand
09/07/2020, 21:37:12,-1.8999012,-2.644069,9.312865,0.054950003,-0.028085556,0.008547778,9.865606131002508,0.06230060790763912,stand
09/07/2020, 21:37:12,-1.8999012,-2.644069,9.312865,0.08303556,-0.048844445,0.0024422223,9.865606131002508,0.09636725727588577,stand
09/07/2020, 21:37:12,-1.9381863,-2.6225336,9.221938,0.08303556,-0.048844445,0.0024422223,9.781533176966699,0.09636725727588577,stand
09/07/2020, 21:37:12,-1.9381863,-2.6225336,9.221938,0.06105556,-0.07326667,-0.009768889,9.781533176966699,0.09587083765446151,stand
09/07/2020, 21:37:12,-1.9286151,-2.469393,9.075976,0.06105556,-0.07326667,-0.009768889,9.60160430036324,0.09587083765446151,stand
09/07/2020, 21:37:12,-1.9286151,-2.469393,9.075976,-0.025643334,-0.046402223,-0.0048844446,9.60160430036324,0.0532410058573126,stand
09/07/2020, 21:37:12,-1.8233309,-2.321038,9.131011,-0.025643334,-0.046402223,-0.0048844446,9.596203154314283,0.0532410058573126,stand
09/07/2020, 21:37:12,-1.8233309,-2.321038,9.131011,-0.14531223,0.0024422223,0.013432222,9.596203154314283,0.14595216551911017,stand
09/07/2020, 21:37:12,-1.7228323,-2.2731814,9.188439,-0.14531223,0.0024422223,0.013432222,9.620962691110195,0.14595216551911017,stand
09/07/2020, 21:37:13,-1.6342978,-2.737389,9.145369,0.018316668,-0.013432222,0.04151778,9.685142996584277,0.04732495008632234,stand
09/07/2020, 21:37:13,-1.6342978,-2.737389,9.145369,0.026864445,-0.014653334,0.035412222,9.685142996584277,0.04680218031942191,stand
09/07/2020, 21:37:13,-1.6175481,-2.713461,9.169296,0.026864445,-0.014653334,0.035412222,9.698212518162647,0.04680218031942191,stand
09/07/2020, 21:37:13,-1.6175481,-2.713461,9.169296,0.029306669,-0.029306669,0.025643334,9.698212518162647,0.048737482894842046,stand
09/07/2020, 21:37:13,-1.5984055,-2.656033,9.171689,0.029306669,-0.029306669,0.025643334,9.681388914399337,0.048737482894842046,stand
09/07/2020, 21:37:13,-1.5984055,-2.656033,9.171689,0.02198,-0.025643334,0.023201112,9.681388914399337,0.04097551197136668,stand
09/07/2020, 21:37:13,-1.579263,-2.6416762,9.200403,0.02198,-0.025643334,0.023201112,9.701543377475016,0.04097551197136668,stand
09/07/2020, 21:37:13,-1.579263,-2.6416762,9.200403,0.037854444,-0.02075889,0.035412222,9.701543377475016,0.05583830158449475,stand
09/07/2020, 21:37:13,-1.5672989,-2.684747,9.217153,0.037854444,-0.02075889,0.035412222,9.727291201936193,0.05583830158449475,stand
09/07/2020, 21:37:13,-1.5672989,-2.684747,9.217153,0.025643334,-0.028085556,0.036633335,9.727291201936193,0.052805115797008105,stand
09/07/2020, 21:37:13,-1.5696917,-2.7182465,9.23151,0.025643334,-0.028085556,0.036633335,9.750567962738582,0.052805115797008105,stand
09/07/2020, 21:37:13,-1.5696917,-2.7182465,9.23151,0.04029667,-0.036633335,0.03052778,9.750567962738582,0.06243210869212954,stand
09/07/2020, 21:37:13,-1.6103697,-2.7182465,9.224331,0.04029667,-0.036633335,0.03052778,9.750406910597611,0.06243210869212954,stand
09/07/2020, 21:37:13,-1.6103697,-2.7182465,9.224331,0.046402223,-0.047623336,0.024422223,9.750406910597611,0.0708349734452222,stand
09/07/2020, 21:37:13,-1.6390835,-2.7182465,9.217153,0.046402223,-0.047623336,0.024422223,9.748402972871775,0.0708349734452222,stand
09/07/2020, 21:37:13,-1.6390835,-2.7182465,9.217153,0.05372889,-0.057392225,0.023201112,9.748402972871775,0.08196921752957824,stand
09/07/2020, 21:37:13,-1.6295122,-2.7302105,9.209974,0.05372889,-0.057392225,0.023201112,9.743355992178746,0.08196921752957824,stand
09/07/2020, 21:37:13,-1.6295122,-2.7302105,9.209974,0.064718895,-0.058613338,0.018316668,9.743355992178746,0.08921636047951273,stand
09/07/2020, 21:37:13,-1.6271194,-2.6871397,9.186047,0.064718895,-0.058613338,0.018316668,9.708330947719846,0.08921636047951273,stand
09/07/2020, 21:37:13,-1.6271194,-2.6871397,9.186047,0.064718895,-0.06227667,0.007326667,9.708330947719846,0.09011436545257182,stand
09/07/2020, 21:37:14,-1.8329022,-2.672783,9.090333,0.018316668,0.05372889,0.03174889,9.650774717385733,0.06504064857297752,stand
09/07/2020, 21:37:14,-1.8329022,-2.6919255,9.071191,0.018316668,0.05372889,0.03174889,9.638075359362812,0.06504064857297752,stand
09/07/2020, 21:37:14,-1.8329022,-2.6919255,9.071191,0.023201112,0.048844445,0.04029667,9.638075359362812,0.0674380683091443,stand
09/07/2020, 21:37:14,-1.847259,-2.7230322,9.099904,0.023201112,0.048844445,0.04029667,9.67654506756888,0.0674380683091443,stand
09/07/2020, 21:37:14,-1.847259,-2.7230322,9.099904,0.0012211112,0.04029667,0.04396,9.67654506756888,0.05964725010897559,stand
09/07/2020, 21:37:14,-1.8592232,-2.754139,9.12144,0.0012211112,0.04029667,0.04396,9.70786582534559,0.05964725010897559,stand
09/07/2020, 21:37:14,-1.8592232,-2.754139,9.12144,0.0048844446,0.03052778,0.047623336,9.70786582534559,0.05677838763786423,stand
09/07/2020, 21:37:14,-1.8711873,-2.7565317,9.099904,0.0048844446,0.03052778,0.047623336,9.690617267599464,0.05677838763786423,stand
09/07/2020, 21:37:14,-1.8711873,-2.7565317,9.099904,0.0061055557,0.02198,0.048844445,9.690617267599464,0.053908979726421655,stand
09/07/2020, 21:37:14,-1.9070797,-2.7469604,9.06162,0.0061055557,0.02198,0.048844445,9.658969772525131,0.053908979726421655,stand
09/07/2020, 21:37:14,-1.9070797,-2.7469604,9.06162,0.0048844446,0.014653334,0.05617111,9.658969772525131,0.05825608813653602,stand
09/07/2020, 21:37:14,-1.9405792,-2.7445676,9.047262,0.0048844446,0.014653334,0.05617111,9.651499997157483,0.05825608813653602,stand
09/07/2020, 21:37:14,-1.9405792,-2.7445676,9.047262,0.0012211112,0.008547778,0.070824444,9.651499997157483,0.07134884396316693,stand
09/07/2020, 21:37:14,-1.9477576,-2.7828526,9.071191,0.0012211112,0.008547778,0.070824444,9.686306400928945,0.07134884396316693,stand
09/07/2020, 21:37:14,-1.9477576,-2.7828526,9.071191,-0.0036633336,-0.0048844446,0.08425667,9.686306400928945,0.08447759751981117,stand
09/07/2020, 21:37:14,-1.9357935,-2.8115666,9.104691,-0.0036633336,-0.0048844446,0.08425667,9.723558674099383,0.08447759751981117,stand
09/07/2020, 21:37:14,-1.9357935,-2.8115666,9.104691,0.0061055557,-0.02198,0.085477784,9.723558674099383,0.08846948538332286,stand
09/07/2020, 21:37:14,-1.9334008,-2.804388,9.109476,0.0061055557,-0.02198,0.085477784,9.725491524828714,0.08846948538332286,stand
09/07/2020, 21:37:14,-1.9334008,-2.804388,9.109476,0.036633335,-0.039075557,0.08303556,9.725491524828714,0.09881196472234148,stand
09/07/2020, 21:37:14,-1.9310079,-2.7637103,9.0951185,0.036633335,-0.039075557,0.08303556,9.699900345250565,0.09881196472234148,stand
09/07/2020, 21:37:15,-1.3351951,-2.1655045,9.521041,-0.19171445,0.26498112,-0.26009667,9.855068520311857,0.41787522340371125,stand
09/07/2020, 21:37:15,-1.3351951,-2.1655045,9.521041,-0.21247335,0.27475002,-0.29062447,9.855068520311857,0.4528742447228251,stand
09/07/2020, 21:37:15,-1.3639089,-2.1918256,9.446864,-0.21247335,0.27475002,-0.29062447,9.793242001074148,0.4528742447228251,stand
09/07/2020, 21:37:15,-1.3639089,-2.1918256,9.446864,-0.2283478,0.26986557,-0.3284789,9.793242001074148,0.48256453589477183,stand
09/07/2020, 21:37:15,-1.4356936,-2.184647,9.379865,-0.2283478,0.26986557,-0.3284789,9.73733848168143,0.48256453589477183,stand
09/07/2020, 21:37:15,-1.4356936,-2.184647,9.379865,-0.27719223,0.26742333,-0.3602278,9.73733848168143,0.5273659418994994,stand
09/07/2020, 21:37:15,-1.4835501,-2.1176481,9.322437,-0.27719223,0.26742333,-0.3602278,9.674357412962593,0.5273659418994994,stand
09/07/2020, 21:37:15,-1.4835501,-2.1176481,9.322437,-0.3614489,0.28085557,-0.39686114,9.674357412962593,0.6058249975302452,stand
09/07/2020, 21:37:15,-1.4979069,-2.009971,9.2793665,-0.3614489,0.28085557,-0.39686114,9.611989944800293,0.6058249975302452,stand
09/07/2020, 21:37:15,-1.4979069,-2.009971,9.2793665,-0.46035892,0.29917222,-0.43227336,9.611989944800293,0.6987808011320706,stand
09/07/2020, 21:37:15,-1.4979069,-1.9405792,9.229117,-0.46035892,0.29917222,-0.43227336,9.549145540406569,0.6987808011320706,stand
09/07/2020, 21:37:15,-1.4979069,-1.9405792,9.229117,-0.5592689,0.31382558,-0.46768558,9.549145540406569,0.7937241261399924,stand
09/07/2020, 21:37:15,-1.524228,-1.9381863,9.152547,-0.5592689,0.31382558,-0.46768558,9.478868679885363,0.7937241261399924,stand
09/07/2020, 21:37:15,-1.524228,-1.9381863,9.152547,-0.6325356,0.3260367,-0.5018767,9.478868679885363,0.8707935542644496,stand
09/07/2020, 21:37:15,-1.5601203,-2.009971,9.109476,-0.6325356,0.3260367,-0.5018767,9.458145333284538,0.8707935542644496,stand
09/07/2020, 21:37:15,-1.5601203,-2.009971,9.109476,-0.6679478,0.31993112,-0.5372889,9.458145333284538,0.9149806499942233,stand
09/07/2020, 21:37:15,-1.5888343,-2.1128623,9.056833,-0.6679478,0.31993112,-0.5372889,9.434766055475604,0.9149806499942233,stand
09/07/2020, 21:37:15,-1.5888343,-2.1128623,9.056833,-0.68260115,0.30772,-0.5739222,9.434766055475604,0.9434101165840163,stand
09/07/2020, 21:37:15,-1.605584,-2.201397,9.006584,-0.68260115,0.30772,-0.5739222,9.40970812115511,0.9434101165840163,stand
09/07/2020, 21:37:15,-1.605584,-2.201397,9.006584,-0.67283225,0.2942878,-0.6191034,9.40970812115511,0.9605194076518747,stand
09/07/2020, 21:37:16,8.26481,-0.83748794,5.5872407,-0.69603336,0.09280445,0.15752333,10.011279763425872,0.7196448446000021,stand
09/07/2020, 21:37:16,8.051848,-0.66999036,5.460421,-0.69603336,0.09280445,0.15752333,9.751786931411141,0.7196448446000021,stand
09/07/2020, 21:37:16,8.051848,-0.66999036,5.460421,-0.71801335,0.08669889,0.17828223,9.751786931411141,0.7448787933070622,stand
09/07/2020, 21:37:16,7.908279,-0.50488555,5.4125648,-0.71801335,0.08669889,0.17828223,9.59643905157798,0.7448787933070622,stand
09/07/2020, 21:37:16,7.908279,-0.50488555,5.4125648,-0.71923447,0.07693,0.18927222,9.59643905157798,0.7476900548417084,stand
09/07/2020, 21:37:16,7.783852,-0.3589234,5.4149575,-0.71923447,0.07693,0.18927222,9.488885314464584,0.7476900548417084,stand
09/07/2020, 21:37:16,7.783852,-0.3589234,5.4149575,-0.7522045,0.07448778,0.19537778,9.488885314464584,0.7807256137181169,stand
09/07/2020, 21:37:16,7.7407813,-0.25842485,5.4221363,-0.7522045,0.07448778,0.19537778,9.454419113703183,0.7807256137181169,stand
09/07/2020, 21:37:16,7.7407813,-0.25842485,5.4221363,-0.8364611,0.08792,0.2075889,9.454419113703183,0.8663084285206389,stand
09/07/2020, 21:37:16,7.8317084,-0.25124636,5.4388857,-0.8364611,0.08792,0.2075889,9.538357260164581,0.8663084285206389,stand
09/07/2020, 21:37:16,7.8317084,-0.25124636,5.4388857,-0.96712005,0.13432223,0.23323223,9.538357260164581,1.003872963718933,stand
09/07/2020, 21:37:16,8.006385,-0.35413775,5.493921,-0.96712005,0.13432223,0.23323223,9.716520863682723,1.003872963718933,stand
09/07/2020, 21:37:16,8.006385,-0.35413775,5.493921,-1.1124322,0.21003112,0.26009667,9.716520863682723,1.1615803206485067,stand
09/07/2020, 21:37:16,8.157132,-0.55034924,5.5226345,-1.1124322,0.21003112,0.26009667,9.866163441908837,1.1615803206485067,stand
09/07/2020, 21:37:16,8.157132,-0.55034924,5.5226345,-1.2333223,0.25887558,0.29795113,9.866163441908837,1.2949421786866502,stand
09/07/2020, 21:37:16,8.238488,-0.8207382,5.5393844,-1.2333223,0.25887558,0.29795113,9.961479714810888,1.2949421786866502,stand
09/07/2020, 21:37:16,8.238488,-0.8207382,5.5393844,-1.3322322,0.29062447,0.34679556,9.961479714810888,1.4069728053203456,stand
09/07/2020, 21:37:16,8.26481,-1.1581261,5.532206,-1.3322322,0.29062447,0.34679556,10.012673860558328,1.4069728053203456,stand
09/07/2020, 21:37:16,8.26481,-1.1581261,5.532206,-1.3932878,0.28818223,0.40540892,10.012673860558328,1.4794107680204833,stand
09/07/2020, 21:37:16,8.209774,-1.4644074,5.4963136,-1.3932878,0.28818223,0.40540892,9.987709520141076,1.4794107680204833,stand
09/07/2020, 21:37:17,9.140582,-1.7324036,3.7256248,0.6325356,-0.09036223,-0.2515489,10.021563917504759,0.6866901997792294,stand
09/07/2020, 21:37:17,9.238688,-1.713261,3.7136607,0.6325356,-0.09036223,-0.2515489,10.103459992967634,0.6866901997792294,stand
09/07/2020, 21:37:17,9.238688,-1.713261,3.7136607,0.63742,-0.08425667,-0.23933779,10.103459992967634,0.6860656073913206,stand
09/07/2020, 21:37:17,9.315259,-1.6821543,3.6993039,0.63742,-0.08425667,-0.23933779,10.163097068866582,0.6860656073913206,stand
09/07/2020, 21:37:17,9.315259,-1.6821543,3.6993039,0.63009334,-0.07937223,-0.22468445,10.163097068866582,0.6736472841183127,stand
09/07/2020, 21:37:17,9.339187,-1.6462619,3.6729827,0.63009334,-0.07937223,-0.22468445,10.169630663492939,0.6736472841183127,stand
09/07/2020, 21:37:17,9.339187,-1.6462619,3.6729827,0.61666113,-0.07448778,-0.1965989,10.169630663492939,0.6515140130334209,stand
09/07/2020, 21:37:17,9.360723,-1.6103697,3.6777685,0.61666113,-0.07448778,-0.1965989,10.185401215905035,0.6515140130334209,stand
09/07/2020, 21:37:17,9.360723,-1.6103697,3.6777685,0.61299783,-0.06960334,-0.15752333,10.185401215905035,0.6367295854752669,stand
09/07/2020, 21:37:17,9.375079,-1.5553347,3.7088752,0.61299783,-0.06960334,-0.15752333,10.201320024721783,0.6367295854752669,stand
09/07/2020, 21:37:17,9.375079,-1.5553347,3.7088752,0.5910178,-0.064718895,-0.12455334,10.201320024721783,0.6074570673802386,stand
09/07/2020, 21:37:17,9.403793,-1.4524434,3.7471602,0.5910178,-0.064718895,-0.12455334,10.226540487435443,0.6074570673802386,stand
09/07/2020, 21:37:17,9.403793,-1.4524434,3.7471602,0.54950005,-0.057392225,-0.10379445,10.226540487435443,0.5621543007330899,stand
09/07/2020, 21:37:17,9.434899,-1.3256238,3.7974095,0.54950005,-0.057392225,-0.10379445,10.256457618037997,0.5621543007330899,stand
09/07/2020, 21:37:17,9.434899,-1.3256238,3.7974095,0.4823389,-0.03174889,-0.08059334,10.256457618037997,0.4900551990739947,stand
09/07/2020, 21:37:17,9.466006,-1.2370893,3.8668015,0.4823389,-0.03174889,-0.08059334,10.29989410597804,0.4900551990739947,stand
09/07/2020, 21:37:17,9.466006,-1.2370893,3.8668015,0.41151446,0.0024422223,-0.046402223,10.29989410597804,0.41412954788633993,stand
09/07/2020, 21:37:17,9.485149,-1.1700903,3.9194436,0.41151446,0.0024422223,-0.046402223,10.329530888227286,0.41412954788633993,stand
09/07/2020, 21:37:17,9.485149,-1.1700903,3.9194436,0.3382478,0.039075557,-0.02198,10.329530888227286,0.3412060927744309,stand
09/07/2020, 21:37:17,9.487542,-1.1006985,3.9553359,0.3382478,0.039075557,-0.02198,10.337779014253952,0.3412060927744309,stand
09/07/2020, 21:37:18,9.245867,-0.9882358,3.737589,0.068382226,-0.03052778,0.013432222,10.021588348415445,0.07608218427356209,stand
09/07/2020, 21:37:18,9.238688,-0.9810573,3.7256248,0.068382226,-0.03052778,0.013432222,10.009801105580346,0.07608218427356209,stand
09/07/2020, 21:37:18,9.238688,-0.9810573,3.7256248,0.051286668,-0.02075889,0.013432222,10.009801105580346,0.05693573894472826,stand
09/07/2020, 21:37:18,9.241081,-0.9738788,3.7447674,0.051286668,-0.02075889,0.013432222,10.018448255489481,0.05693573894472826,stand
09/07/2020, 21:37:18,9.241081,-0.9738788,3.7447674,0.04396,-0.0061055557,0.019537779,10.018448255489481,0.048492105726300916,stand
09/07/2020, 21:37:18,9.267402,-1.0073783,3.7280176,0.04396,-0.0061055557,0.019537779,10.039803797499484,0.048492105726300916,stand
09/07/2020, 21:37:18,9.267402,-1.0073783,3.7280176,0.04029667,0.0036633336,0.019537779,10.039803797499484,0.044932910228759275,stand
09/07/2020, 21:37:18,9.293723,-1.038485,3.76391,0.04029667,0.0036633336,0.019537779,10.080613040930167,0.044932910228759275,stand
09/07/2020, 21:37:18,9.293723,-1.038485,3.76391,0.04396,0.012211111,0.014653334,10.080613040930167,0.047919861914259405,stand
09/07/2020, 21:37:18,9.339187,-1.0719845,3.7591243,0.04396,0.012211111,0.014653334,10.124256703766303,0.047919861914259405,stand
09/07/2020, 21:37:18,9.339187,-1.0719845,3.7591243,0.05006556,0.023201112,0.012211111,10.124256703766303,0.056515156936675685,stand
09/07/2020, 21:37:18,9.387043,-1.0600204,3.7758741,0.05006556,0.023201112,0.012211111,10.173369408548162,0.056515156936675685,stand
09/07/2020, 21:37:18,9.387043,-1.0600204,3.7758741,0.05250778,0.03297,0.013432222,10.173369408548162,0.06343904566731434,stand
09/07/2020, 21:37:18,9.379865,-1.0193424,3.723232,0.05250778,0.03297,0.013432222,10.143144353852923,0.06343904566731434,stand
09/07/2020, 21:37:18,9.379865,-1.0193424,3.723232,0.037854444,0.042738892,0.01099,10.143144353852923,0.058140794256862326,stand
09/07/2020, 21:37:18,9.394221,-1.0001999,3.737589,0.037854444,0.042738892,0.01099,10.159791556195517,0.058140794256862326,stand
09/07/2020, 21:37:18,9.394221,-1.0001999,3.737589,0.015874445,0.054950003,0.014653334,10.159791556195517,0.059044229273319676,stand
09/07/2020, 21:37:18,9.348758,-0.9834501,3.7328033,0.015874445,0.054950003,0.014653334,10.114359410831794,0.059044229273319676,stand
09/07/2020, 21:37:18,9.348758,-0.9834501,3.7328033,-0.018316668,0.06716111,0.02075889,10.114359410831794,0.07264328537417061,stand
09/07/2020, 21:37:18,9.317652,-0.9523434,3.7064822,-0.018316668,0.06716111,0.02075889,10.07291428338397,0.07264328537417061,stand
09/07/2020, 21:37:19,9.226724,-1.1174482,3.5198421,0.08425667,-0.04396,-0.019537779,9.93833028981716,0.09702264260325476,stand
09/07/2020, 21:37:19,9.233903,-1.1126626,3.505485,0.08425667,-0.04396,-0.019537779,9.939386640650742,0.09702264260325476,stand
09/07/2020, 21:37:19,9.233903,-1.1126626,3.505485,0.06960334,-0.037854444,-0.018316668,9.939386640650742,0.08132087084519948,stand
09/07/2020, 21:37:19,9.217153,-1.0719845,3.5365918,0.06960334,-0.037854444,-0.018316668,9.930384390140025,0.08132087084519948,stand
09/07/2020, 21:37:19,9.217153,-1.0719845,3.5365918,0.06105556,-0.03174889,-0.014653334,9.930384390140025,0.0703597445047404,stand
09/07/2020, 21:37:19,9.250652,-1.0695918,3.534199,0.06105556,-0.03174889,-0.014653334,9.960379376415643,0.0703597445047404,stand
09/07/2020, 21:37:19,9.250652,-1.0695918,3.534199,0.05372889,-0.034191113,-0.007326667,9.960379376415643,0.06410542756756736,stand
09/07/2020, 21:37:19,9.265009,-1.0671989,3.5724843,0.05372889,-0.034191113,-0.007326667,9.987089044900982,0.06410542756756736,stand
09/07/2020, 21:37:19,9.265009,-1.0671989,3.5724843,0.04396,-0.024422223,-0.0061055557,9.987089044900982,0.05065771896013512,stand
09/07/2020, 21:37:19,9.300901,-1.0719845,3.586841,0.04396,-0.024422223,-0.0061055557,10.026033465325023,0.05065771896013512,stand
09/07/2020, 21:37:19,9.300901,-1.0719845,3.586841,0.042738892,-0.02075889,0.0,10.026033465325023,0.04751362330168016,stand
09/07/2020, 21:37:19,9.315259,-1.0743774,3.5940197,0.042738892,-0.02075889,0.0,10.042176753613248,0.04751362330168016,stand
09/07/2020, 21:37:19,9.315259,-1.0743774,3.5940197,0.045181114,-0.017095556,-0.0012211112,10.042176753613248,0.048322688735978725,stand
09/07/2020, 21:37:19,9.322437,-1.0671989,3.546163,0.045181114,-0.017095556,-0.0012211112,10.031052935611925,0.048322688735978725,stand
09/07/2020, 21:37:19,9.322437,-1.0671989,3.546163,0.039075557,-0.009768889,0.008547778,10.031052935611925,0.041175173062591025,stand
09/07/2020, 21:37:19,9.317652,-1.0911272,3.5437703,0.039075557,-0.009768889,0.008547778,10.02833488748869,0.041175173062591025,stand
09/07/2020, 21:37:19,9.317652,-1.0911272,3.5437703,0.034191113,-0.0036633336,0.018316668,10.02833488748869,0.03896091025831264,stand
09/07/2020, 21:37:19,9.288938,-1.0935199,3.5844483,0.034191113,-0.0036633336,0.018316668,10.016407383281827,0.03896091025831264,stand
09/07/2020, 21:37:19,9.288938,-1.0935199,3.5844483,0.025643334,-0.0036633336,0.026864445,10.016407383281827,0.03731888231788352,stand
09/07/2020, 21:37:19,9.332008,-1.1102697,3.586841,0.025643334,-0.0036633336,0.026864445,10.059051044621057,0.03731888231788352,stand
09/07/2020, 21:37:20,9.19801,-1.2059826,3.76391,0.09768889,-0.034191113,0.008547778,10.011234139319267,0.10385189522695569,stand
09/07/2020, 21:37:20,9.1669035,-1.2083755,3.751946,0.09768889,-0.034191113,0.008547778,9.978446247734945,0.10385189522695569,stand
09/07/2020, 21:37:20,9.1669035,-1.2083755,3.751946,0.109900005,-0.039075557,0.013432222,9.978446247734945,0.11741096584072354,stand
09/07/2020, 21:37:20,9.164511,-1.2155539,3.737589,0.109900005,-0.039075557,0.013432222,9.971729977928767,0.11741096584072354,stand
09/07/2020, 21:37:20,9.164511,-1.2155539,3.737589,0.12821667,-0.047623336,0.014653334,9.971729977928767,0.13755804800421526,stand
09/07/2020, 21:37:20,9.157332,-1.1916257,3.6873398,0.12821667,-0.047623336,0.014653334,9.943499563682524,0.13755804800421526,stand
09/07/2020, 21:37:20,9.157332,-1.1916257,3.6873398,0.13554333,-0.054950003,0.018316668,9.943499563682524,0.14740080667384262,stand
09/07/2020, 21:37:20,9.152547,-1.1772687,3.6897326,0.13554333,-0.054950003,0.018316668,9.938269589588344,0.14740080667384262,stand
09/07/2020, 21:37:20,9.152547,-1.1772687,3.6897326,0.13920668,-0.05372889,0.02075889,9.938269589588344,0.15065266075660752,stand
09/07/2020, 21:37:20,9.209974,-1.1174482,3.6586258,0.13920668,-0.05372889,0.02075889,9.97285615819458,0.15065266075660752,stand
09/07/2020, 21:37:20,9.209974,-1.1174482,3.6586258,0.12821667,-0.045181114,0.018316668,9.97285615819458,0.13717269258903841,stand
09/07/2020, 21:37:20,9.255438,-1.0576276,3.6993039,0.12821667,-0.045181114,0.018316668,10.023300601826845,0.13717269258903841,stand
09/07/2020, 21:37:20,9.255438,-1.0576276,3.6993039,0.11234222,-0.03174889,0.01099,10.023300601826845,0.11725846394059664,stand
09/07/2020, 21:37:20,9.265009,-1.0456635,3.7088752,0.11234222,-0.03174889,0.01099,10.034418648167682,0.11725846394059664,stand
09/07/2020, 21:37:20,9.265009,-1.0456635,3.7088752,0.09524667,-0.028085556,0.0036633336,10.034418648167682,0.09936874312055584,stand
09/07/2020, 21:37:20,9.272188,-1.0241281,3.6681972,0.09524667,-0.028085556,0.0036633336,10.023870632622641,0.09936874312055584,stand
09/07/2020, 21:37:20,9.272188,-1.0241281,3.6681972,0.09036223,-0.03174889,0.0036633336,10.023870632622641,0.09584750604987115,stand
09/07/2020, 21:37:20,9.245867,-1.0169497,3.67059,0.09036223,-0.03174889,0.0036633336,9.999673465552318,0.09584750604987115,stand
09/07/2020, 21:37:20,9.245867,-1.0169497,3.67059,0.089141116,-0.03052778,0.0061055557,9.999673465552318,0.09442119270891729,stand
09/07/2020, 21:37:20,9.267402,-1.0336994,3.656233,0.089141116,-0.03052778,0.0061055557,10.016052560547092,0.09442119270891729,stand
09/07/2020, 21:37:21,9.123833,-1.3328022,3.9026937,0.05006556,-0.03052778,0.0,10.012577256715682,0.058638771131205115,stand
09/07/2020, 21:37:21,9.08794,-1.2729816,3.8907297,0.05006556,-0.03052778,0.0,9.967392686550237,0.058638771131205115,stand
09/07/2020, 21:37:21,9.08794,-1.2729816,3.8907297,0.039075557,-0.023201112,-0.0012211112,9.967392686550237,0.04546077279116484,stand
09/07/2020, 21:37:21,9.0544405,-1.2107682,3.8380876,0.039075557,-0.023201112,-0.0012211112,9.908570458757652,0.04546077279116484,stand
09/07/2020, 21:37:21,9.0544405,-1.2107682,3.8380876,0.024422223,-0.018316668,0.0,9.908570458757652,0.03052777871489525,stand
09/07/2020, 21:37:21,9.052048,-1.1557333,3.7950168,0.024422223,-0.018316668,0.0,9.883189764310655,0.03052777871489525,stand
09/07/2020, 21:37:21,9.052048,-1.1557333,3.7950168,0.009768889,-0.017095556,0.0036633336,9.883189764310655,0.020027712360155103,stand
09/07/2020, 21:37:21,9.037691,-1.1940185,3.7806597,0.009768889,-0.017095556,0.0036633336,9.869089544384058,0.020027712360155103,stand
09/07/2020, 21:37:21,9.037691,-1.1940185,3.7806597,0.007326667,-0.019537779,0.0024422223,9.869089544384058,0.02100879086436443,stand
09/07/2020, 21:37:21,9.049655,-1.2346965,3.7710886,0.007326667,-0.019537779,0.0024422223,9.881388546265296,0.02100879086436443,stand
09/07/2020, 21:37:21,9.049655,-1.2346965,3.7710886,0.029306669,-0.026864445,-0.0024422223,9.881388546265296,0.03983144086933014,stand
09/07/2020, 21:37:21,9.090333,-1.253839,3.7950168,0.029306669,-0.026864445,-0.0024422223,9.930177153802017,0.03983144086933014,stand
09/07/2020, 21:37:21,9.090333,-1.253839,3.7950168,0.06105556,-0.04151778,-0.0012211112,9.930177153802017,0.07384442071510106,stand
09/07/2020, 21:37:21,9.119047,-1.2801601,3.8165522,0.06105556,-0.04151778,-0.0012211112,9.968044011038602,0.07384442071510106,stand
09/07/2020, 21:37:21,9.119047,-1.2801601,3.8165522,0.09402556,-0.051286668,-0.01099,9.968044011038602,0.10766572463211484,stand
09/07/2020, 21:37:21,9.126225,-1.2897314,3.842873,0.09402556,-0.051286668,-0.01099,9.98594372271673,0.10766572463211484,stand
09/07/2020, 21:37:21,9.126225,-1.2897314,3.842873,0.11234222,-0.054950003,-0.024422223,9.98594372271673,0.12742340026134502,stand
09/07/2020, 21:37:21,9.128618,-1.2634103,3.8620157,0.11234222,-0.054950003,-0.024422223,9.99214902278239,0.12742340026134502,stand
09/07/2020, 21:37:21,9.128618,-1.2634103,3.8620157,0.11966889,-0.058613338,-0.03174889,9.99214902278239,0.1369823327626881,stand
09/07/2020, 21:37:21,9.085547,-1.2155539,3.859623,0.11966889,-0.058613338,-0.03174889,9.945925447498698,0.1369823327626881,stand
09/07/2020, 21:37:22,9.109476,-1.0169497,3.7016966,-0.1856089,0.12821667,0.029306669,9.885307238275661,0.22748418940920787,stand
09/07/2020, 21:37:22,9.109476,-1.0169497,3.7016966,-0.18683001,0.12211112,0.028085556,9.885307238275661,0.22495639142025198,stand
09/07/2020, 21:37:22,9.0544405,-1.0456635,3.7160535,-0.18683001,0.12211112,0.028085556,9.843036033311424,0.22495639142025198,stand
09/07/2020, 21:37:22,9.0544405,-1.0456635,3.7160535,-0.18683001,0.11966889,0.025643334,9.843036033311424,0.22334654412149746,stand
09/07/2020, 21:37:22,9.064013,-1.0671989,3.7304106,-0.18683001,0.11966889,0.025643334,9.859574006832245,0.22334654412149746,stand
09/07/2020, 21:37:22,9.064013,-1.0671989,3.7304106,-0.17828223,0.123332225,0.02075889,9.859574006832245,0.2177758551633002,stand
09/07/2020, 21:37:22,9.073584,-1.1030912,3.7423747,-0.17828223,0.123332225,0.02075889,9.876846549771649,0.2177758551633002,stand
09/07/2020, 21:37:22,9.073584,-1.1030912,3.7423747,-0.16729222,0.11844778,0.017095556,9.876846549771649,0.20569108500791647,stand
09/07/2020, 21:37:22,9.107083,-1.160519,3.792624,-0.16729222,0.11844778,0.017095556,9.933265714135455,0.20569108500791647,stand
09/07/2020, 21:37:22,9.107083,-1.160519,3.792624,-0.15996556,0.117226675,0.015874445,9.933265714135455,0.1989549489717225,stand
09/07/2020, 21:37:22,9.107083,-1.1820544,3.8117664,-0.15996556,0.117226675,0.015874445,9.94312738508192,0.1989549489717225,stand
09/07/2020, 21:37:22,9.107083,-1.1820544,3.8117664,-0.15874445,0.11234222,0.013432222,9.94312738508192,0.1949384558861531,stand
09/07/2020, 21:37:22,9.0951185,-1.1964114,3.8404803,-0.15874445,0.11234222,0.013432222,9.944941943364176,0.1949384558861531,stand
09/07/2020, 21:37:22,9.0951185,-1.1964114,3.8404803,-0.15996556,0.11600556,0.008547778,9.944941943364176,0.1977860847477072,stand
09/07/2020, 21:37:22,9.037691,-1.1676974,3.8069808,-0.15996556,0.11600556,0.008547778,9.876055952701428,0.1977860847477072,stand
09/07/2020, 21:37:22,9.037691,-1.1676974,3.8069808,-0.15996556,0.11478445,0.0,9.876055952701428,0.1968868968342658,stand
09/07/2020, 21:37:22,9.008977,-1.1700903,3.804588,-0.15996556,0.11478445,0.0,9.849145508391103,0.1968868968342658,stand
09/07/2020, 21:37:22,9.008977,-1.1700903,3.804588,-0.16607112,0.11234222,0.0,9.849145508391103,0.20050035177782488,stand
09/07/2020, 21:37:22,8.932407,-1.2131611,3.76391,-0.16607112,0.11234222,0.0,9.768658064001706,0.20050035177782488,stand
09/07/2020, 21:37:22,8.932407,-1.2131611,3.76391,-0.16851334,0.106236674,0.0024422223,9.768658064001706,0.19922083728915319,stand
09/07/2020, 21:37:23,9.233903,-1.0911272,3.696911,0.0061055557,0.029306669,0.05372889,10.006131793667256,0.061505708932622874,stand
09/07/2020, 21:37:23,9.245867,-1.0624132,3.694518,0.0061055557,0.029306669,0.05372889,10.013203192955485,0.061505708932622874,stand
09/07/2020, 21:37:23,9.245867,-1.0624132,3.694518,0.0,0.03174889,0.05617111,10.013203192955485,0.06452275465712057,stand
09/07/2020, 21:37:23,9.296116,-1.0576276,3.6729827,0.0,0.03174889,0.05617111,10.05122620777758,0.06452275465712057,stand
09/07/2020, 21:37:23,9.296116,-1.0576276,3.6729827,-0.008547778,0.034191113,0.054950003,10.05122620777758,0.06528092755400243,stand
09/07/2020, 21:37:23,9.288938,-1.0432707,3.6873398,-0.008547778,0.034191113,0.054950003,10.048345614880873,0.06528092755400243,stand
09/07/2020, 21:37:23,9.288938,-1.0432707,3.6873398,-0.019537779,0.03297,0.057392225,10.048345614880873,0.0690116884872426,stand
09/07/2020, 21:37:23,9.284152,-1.0432707,3.682554,-0.019537779,0.03297,0.057392225,10.042165937356653,0.0690116884872426,stand
09/07/2020, 21:37:23,9.284152,-1.0432707,3.682554,-0.025643334,0.048844445,0.05250778,10.042165937356653,0.07616053726255434,stand
09/07/2020, 21:37:23,9.260223,-1.0456635,3.6586258,-0.025643334,0.048844445,0.05250778,10.0115279732211,0.07616053726255434,stand
09/07/2020, 21:37:23,9.260223,-1.0456635,3.6586258,-0.03174889,0.05006556,0.051286668,10.0115279732211,0.07838924978716745,stand
09/07/2020, 21:37:23,9.257831,-1.0408778,3.6681972,-0.03174889,0.05006556,0.051286668,10.01231865190495,0.07838924978716745,stand
09/07/2020, 21:37:23,9.257831,-1.0408778,3.6681972,-0.04396,0.05250778,0.054950003,10.01231865190495,0.0878012045013641,stand
09/07/2020, 21:37:23,9.23151,-1.0504491,3.6610186,-0.04396,0.05250778,0.054950003,9.986354716374638,0.0878012045013641,stand
09/07/2020, 21:37:23,9.23151,-1.0504491,3.6610186,-0.057392225,0.05617111,0.057392225,9.986354716374638,0.09870627488491632,stand
09/07/2020, 21:37:23,9.2075815,-1.038485,3.6203406,-0.057392225,0.05617111,0.057392225,9.948109096956568,0.09870627488491632,stand
09/07/2020, 21:37:23,9.2075815,-1.038485,3.6203406,-0.06349778,0.058613338,0.05617111,9.948109096956568,0.10306641269638668,stand
09/07/2020, 21:37:23,9.183653,-1.0432707,3.6179478,-0.06349778,0.058613338,0.05617111,9.925595214084707,0.10306641269638668,stand
09/07/2020, 21:37:23,9.183653,-1.0432707,3.6179478,-0.06105556,0.054950003,0.058613338,9.925595214084707,0.10090989788660315,stand
09/07/2020, 21:37:23,9.1669035,-1.0432707,3.6323047,-0.06105556,0.054950003,0.058613338,9.915350254717694,0.10090989788660315,stand
09/07/2020, 21:37:24,9.090333,-1.1988041,3.6897326,0.1306589,-0.07448778,0.0,9.883593043284018,0.1504000551957383,stand
09/07/2020, 21:37:24,9.138189,-1.174876,3.696911,0.1306589,-0.07448778,0.0,9.927436183784405,0.1504000551957383,stand
09/07/2020, 21:37:24,9.138189,-1.174876,3.696911,0.14653334,-0.08059334,-0.0036633336,9.927436183784405,0.16727440412719857,stand
09/07/2020, 21:37:24,9.164511,-1.18684,3.6634114,0.14653334,-0.08059334,-0.0036633336,9.940695605265311,0.16727440412719857,stand
09/07/2020, 21:37:24,9.164511,-1.18684,3.6634114,0.14287001,-0.078151114,-0.0024422223,9.940695605265311,0.16286620450520226,stand
09/07/2020, 21:37:24,9.18126,-1.1988041,3.6849468,0.14287001,-0.078151114,-0.0024422223,9.965515605941,0.16286620450520226,stand
09/07/2020, 21:37:24,9.18126,-1.1988041,3.6849468,0.13432223,-0.078151114,-0.0061055557,9.965515605941,0.15552277931092326,stand
09/07/2020, 21:37:24,9.186047,-1.1533405,3.7016966,0.13432223,-0.078151114,-0.0061055557,9.970767489519078,0.15552277931092326,stand
09/07/2020, 21:37:24,9.186047,-1.1533405,3.7016966,0.1306589,-0.07326667,-0.007326667,9.970767489519078,0.14997810435304418,stand
09/07/2020, 21:37:24,9.164511,-1.1557333,3.6993039,0.1306589,-0.07326667,-0.007326667,9.950317860351198,0.14997810435304418,stand
09/07/2020, 21:37:24,9.164511,-1.1557333,3.6993039,0.12089001,-0.064718895,-0.007326667,9.950317860351198,0.13731936874032677,stand
09/07/2020, 21:37:24,9.147761,-1.1437693,3.6801612,0.12089001,-0.064718895,-0.007326667,9.926395745122846,0.13731936874032677,stand
09/07/2020, 21:37:24,9.147761,-1.1437693,3.6801612,0.117226675,-0.06716111,-0.0048844446,9.926395745122846,0.13519085127860453,stand
09/07/2020, 21:37:24,9.128618,-1.160519,3.7256248,0.117226675,-0.06716111,-0.0048844446,9.927676237914826,0.13519085127860453,stand
09/07/2020, 21:37:24,9.128618,-1.160519,3.7256248,0.12089001,-0.068382226,-0.0048844446,9.927676237914826,0.13897618600197975,stand
09/07/2020, 21:37:24,9.152547,-1.1796615,3.7040894,0.12089001,-0.068382226,-0.0048844446,9.943892297740057,0.13897618600197975,stand
09/07/2020, 21:37:24,9.152547,-1.1796615,3.7040894,0.11844778,-0.06594,-0.0036633336,9.943892297740057,0.1356148235249,stand
09/07/2020, 21:37:24,9.174082,-1.1653047,3.6897326,0.11844778,-0.06594,-0.0036633336,9.95669815607404,0.1356148235249,stand
09/07/2020, 21:37:24,9.174082,-1.1653047,3.6897326,0.12089001,-0.06716111,0.0061055557,9.95669815607404,0.13842791107934269,stand
09/07/2020, 21:37:24,9.200403,-1.1629118,3.6753755,0.12089001,-0.06716111,0.0061055557,9.97537808134212,0.13842791107934269,stand
09/07/2020, 21:37:25,9.446864,-1.3471591,3.9242291,0.10379445,-0.029306669,-0.035412222,10.317831846174744,0.11351737208286007,stand
09/07/2020, 21:37:25,9.446864,-1.3471591,3.9242291,0.11844778,-0.023201112,-0.05006556,10.317831846174744,0.13067030440697985,stand
09/07/2020, 21:37:25,9.509077,-1.294517,3.9625144,0.11844778,-0.023201112,-0.05006556,10.382670249290374,0.13067030440697985,stand
09/07/2020, 21:37:25,9.509077,-1.294517,3.9625144,0.12821667,-0.014653334,-0.064718895,10.382670249290374,0.14437025225099873,stand
09/07/2020, 21:37:25,9.497113,-1.2466606,3.9840498,0.12821667,-0.014653334,-0.064718895,10.374101169499951,0.14437025225099873,stand
09/07/2020, 21:37:25,9.497113,-1.2466606,3.9840498,0.13188,-0.012211111,-0.07448778,10.374101169499951,0.15195353079503215,stand
09/07/2020, 21:37:25,9.430114,-1.2011969,4.0031924,0.13188,-0.012211111,-0.07448778,10.314817969398272,0.15195353079503215,stand
09/07/2020, 21:37:25,9.430114,-1.2011969,4.0031924,0.12089001,-0.0012211112,-0.08059334,10.314817969398272,0.1452968383472576,stand
09/07/2020, 21:37:25,9.353543,-1.1533405,3.991228,0.12089001,-0.0012211112,-0.08059334,10.23468943882811,0.1452968383472576,stand
09/07/2020, 21:37:25,9.353543,-1.1533405,3.991228,0.10745778,0.015874445,-0.08425667,10.23468943882811,0.13747130257095086,stand
09/07/2020, 21:37:25,9.296116,-1.1126626,3.9673,0.10745778,0.015874445,-0.08425667,10.168345840116931,0.13747130257095086,stand
09/07/2020, 21:37:25,9.296116,-1.1126626,3.9673,0.09646778,0.02198,-0.08059334,10.168345840116931,0.12761049763351576,stand
09/07/2020, 21:37:25,9.233903,-1.0743774,3.9338005,0.09646778,0.02198,-0.08059334,10.09425758681384,0.12761049763351576,stand
09/07/2020, 21:37:25,9.233903,-1.0743774,3.9338005,0.085477784,0.036633335,-0.07570889,10.09425758681384,0.11991784118904977,stand
09/07/2020, 21:37:25,9.162118,-1.0504491,3.9218364,0.085477784,0.036633335,-0.07570889,10.02140955255433,0.11991784118904977,stand
09/07/2020, 21:37:25,9.162118,-1.0504491,3.9218364,0.07693,0.046402223,-0.06716111,10.02140955255433,0.11216954378014012,stand
09/07/2020, 21:37:25,9.114262,-1.0600204,3.900301,0.07693,0.046402223,-0.06716111,9.970243532039051,0.11216954378014012,stand
09/07/2020, 21:37:25,9.114262,-1.0600204,3.900301,0.07693,0.05250778,-0.057392225,9.970243532039051,0.10940365431175393,stand
09/07/2020, 21:37:25,9.073584,-1.0504491,3.9290147,0.07693,0.05250778,-0.057392225,9.943365585011087,0.10940365431175393,stand
09/07/2020, 21:37:25,9.073584,-1.0504491,3.9290147,0.091583334,0.054950003,-0.051286668,9.943365585011087,0.11847924757371003,stand
09/07/2020, 21:37:26,8.606983,-1.3232309,4.3836513,-0.07937223,0.091583334,0.10501556,9.74923062598344,0.16036123455592477,stand
09/07/2020, 21:37:26,8.609376,-1.3734802,4.3812585,-0.07937223,0.091583334,0.10501556,9.757214157210122,0.16036123455592477,stand
09/07/2020, 21:37:26,8.609376,-1.3734802,4.3812585,-0.051286668,0.07326667,0.10135223,9.757214157210122,0.13516878962535334,stand
09/07/2020, 21:37:26,8.635697,-1.3950156,4.395615,-0.051286668,0.07326667,0.10135223,9.789932053302616,0.13516878962535334,stand
09/07/2020, 21:37:26,8.635697,-1.3950156,4.395615,-0.019537779,0.05617111,0.09402556,9.789932053302616,0.1112552222119547,stand
09/07/2020, 21:37:26,8.650054,-1.4093726,4.398008,-0.019537779,0.05617111,0.09402556,9.80572476054945,0.1112552222119547,stand
09/07/2020, 21:37:26,8.650054,-1.4093726,4.398008,0.0048844446,0.046402223,0.09524667,9.80572476054945,0.10606108043877695,stand
09/07/2020, 21:37:26,8.671589,-1.3878372,4.4315076,0.0048844446,0.046402223,0.09524667,9.836707046721761,0.10606108043877695,stand
09/07/2020, 21:37:26,8.671589,-1.3878372,4.4315076,0.013432222,0.037854444,0.091583334,9.836707046721761,0.10000445288817977,stand
09/07/2020, 21:37:26,8.657232,-1.3998013,4.476971,0.013432222,0.037854444,0.091583334,9.84633866231533,0.10000445288817977,stand
09/07/2020, 21:37:26,8.657232,-1.3998013,4.476971,0.012211111,0.026864445,0.09036223,9.84633866231533,0.09505862385082632,stand
09/07/2020, 21:37:26,8.676374,-1.3998013,4.4721856,0.012211111,0.026864445,0.09036223,9.8610020302642,0.09505862385082632,stand
09/07/2020, 21:37:26,8.676374,-1.3998013,4.4721856,0.017095556,0.019537779,0.08792,9.8610020302642,0.09167284061839023,stand
09/07/2020, 21:37:26,8.700303,-1.4141582,4.4339004,0.017095556,0.019537779,0.08792,9.866842934740232,0.09167284061839023,stand
09/07/2020, 21:37:26,8.700303,-1.4141582,4.4339004,0.018316668,0.009768889,0.08425667,9.866842934740232,0.08677625353381199,stand
09/07/2020, 21:37:26,8.736196,-1.4524434,4.436293,0.018316668,0.009768889,0.08425667,9.905119956223672,0.08677625353381199,stand
09/07/2020, 21:37:26,8.736196,-1.4524434,4.436293,0.037854444,0.0024422223,0.081814446,9.905119956223672,0.09018052394922633,stand
09/07/2020, 21:37:26,8.738588,-1.4811572,4.465007,0.037854444,0.0024422223,0.081814446,9.924365905962016,0.09018052394922633,stand
09/07/2020, 21:37:26,8.738588,-1.4811572,4.465007,0.064718895,-0.0048844446,0.078151114,9.924365905962016,0.1015873505389721,stand
09/07/2020, 21:37:26,8.774481,-1.4883357,4.469793,0.064718895,-0.0048844446,0.078151114,9.959202023988176,0.1015873505389721,stand
09/07/2020, 21:37:27,8.831908,-1.7563318,4.4554358,-0.034191113,-0.0024422223,0.029306669,10.046801085784443,0.045098530919943786,stand
09/07/2020, 21:37:27,8.827123,-1.7682959,4.4315076,-0.034191113,-0.0024422223,0.029306669,10.034103088243596,0.045098530919943786,stand
09/07/2020, 21:37:27,8.827123,-1.7682959,4.4315076,-0.051286668,0.0048844446,0.046402223,10.034103088243596,0.06933503017023791,stand
09/07/2020, 21:37:27,8.819944,-1.7611175,4.3669014,-0.051286668,0.0048844446,0.046402223,9.998138897609238,0.06933503017023791,stand
09/07/2020, 21:37:27,8.819944,-1.7611175,4.3669014,-0.057392225,0.014653334,0.059834447,9.998138897609238,0.08419470696079626,stand
09/07/2020, 21:37:27,8.82473,-1.7898313,4.3525443,-0.057392225,0.014653334,0.059834447,10.001199733777751,0.08419470696079626,stand
09/07/2020, 21:37:27,8.82473,-1.7898313,4.3525443,-0.05372889,0.019537779,0.07204556,10.001199733777751,0.09197326073095283,stand
09/07/2020, 21:37:27,8.805588,-1.7946169,4.347759,-0.05372889,0.019537779,0.07204556,9.983087309274175,0.09197326073095283,stand
09/07/2020, 21:37:27,8.805588,-1.7946169,4.347759,-0.05006556,0.01099,0.08669889,9.983087309274175,0.10071761378404902,stand
09/07/2020, 21:37:27,8.843872,-1.8113668,4.369294,-0.05006556,0.01099,0.08669889,10.02924994112078,0.10071761378404902,stand
09/07/2020, 21:37:27,8.843872,-1.8113668,4.369294,-0.037854444,-0.0012211112,0.09768889,10.02924994112078,0.10477389696106885,stand
09/07/2020, 21:37:27,8.894122,-1.7706888,4.3740797,-0.037854444,-0.0012211112,0.09768889,10.068431870904737,0.10477389696106885,stand
09/07/2020, 21:37:27,8.894122,-1.7706888,4.3740797,-0.029306669,0.0024422223,0.10135223,10.068431870904737,0.10553255305074036,stand
09/07/2020, 21:37:27,8.925228,-1.7395821,4.371687,-0.029306669,0.0024422223,0.10135223,10.089474187752696,0.10553255305074036,stand
09/07/2020, 21:37:27,8.925228,-1.7395821,4.371687,-0.037854444,0.014653334,0.09646778,10.089474187752696,0.10465997977367532,stand
09/07/2020, 21:37:27,8.920443,-1.6917256,4.345366,-0.037854444,0.014653334,0.09646778,10.065705989799094,0.10465997977367532,stand
09/07/2020, 21:37:27,8.920443,-1.6917256,4.345366,-0.054950003,0.02075889,0.09402556,10.065705989799094,0.1108658656350241,stand
09/07/2020, 21:37:27,8.9108715,-1.6749759,4.369294,-0.054950003,0.02075889,0.09402556,10.064785475987797,0.1108658656350241,stand
09/07/2020, 21:37:27,8.9108715,-1.6749759,4.369294,-0.07693,0.029306669,0.091583334,10.064785475987797,0.1231446831879893,stand
09/07/2020, 21:37:27,8.896515,-1.6438692,4.3740797,-0.07693,0.029306669,0.091583334,10.049022654655431,0.1231446831879893,stand
09/07/2020, 21:37:28,9.145369,-1.1940185,3.9577286,-0.064718895,0.0061055557,0.03052778,10.036287281354713,0.0718175360049492,stand
09/07/2020, 21:37:28,9.145369,-1.1940185,3.9577286,-0.068382226,0.012211111,0.037854444,10.036287281354713,0.07910877961776751,stand
09/07/2020, 21:37:28,9.12144,-1.1653047,3.9625144,-0.068382226,0.012211111,0.037854444,10.012997642664422,0.07910877961776751,stand
09/07/2020, 21:37:28,9.12144,-1.1653047,3.9625144,-0.068382226,0.014653334,0.039075557,10.012997642664422,0.08011084944062041,stand
09/07/2020, 21:37:28,9.099904,-1.1820544,3.979264,-0.068382226,0.014653334,0.039075557,10.00200223263427,0.08011084944062041,stand
09/07/2020, 21:37:28,9.099904,-1.1820544,3.979264,-0.06716111,0.01099,0.039075557,10.00200223263427,0.07847480089709005,stand
09/07/2020, 21:37:28,9.06162,-1.174876,3.9888353,-0.06716111,0.01099,0.039075557,9.97016015585266,0.07847480089709005,stand
09/07/2020, 21:37:28,9.06162,-1.174876,3.9888353,-0.05617111,0.0036633336,0.04151778,9.97016015585266,0.06994526289872667,stand
09/07/2020, 21:37:28,9.049655,-1.1988041,3.9984066,-0.05617111,0.0036633336,0.04151778,9.965974212321237,0.06994526289872667,stand
09/07/2020, 21:37:28,9.049655,-1.1988041,3.9984066,-0.04151778,0.0036633336,0.04151778,9.965974212321237,0.058829176414548386,stand
09/07/2020, 21:37:28,9.044869,-1.2155539,3.9816568,-0.04151778,0.0036633336,0.04151778,9.9569485739198,0.058829176414548386,stand
09/07/2020, 21:37:28,9.044869,-1.2155539,3.9816568,-0.023201112,0.0024422223,0.04151778,9.9569485739198,0.0476233348942911,stand
09/07/2020, 21:37:28,9.044869,-1.2059826,4.031906,-0.023201112,0.0024422223,0.04151778,9.97598736222046,0.0476233348942911,stand
09/07/2020, 21:37:28,9.044869,-1.2059826,4.031906,-0.012211111,-0.0012211112,0.037854444,9.97598736222046,0.039793985749648965,stand
09/07/2020, 21:37:28,9.056833,-1.2107682,4.0558343,-0.012211111,-0.0012211112,0.037854444,9.99709859582667,0.039793985749648965,stand
09/07/2020, 21:37:28,9.056833,-1.2107682,4.0558343,-0.0012211112,-0.0036633336,0.034191113,9.99709859582667,0.03440847760843074,stand
09/07/2020, 21:37:28,9.073584,-1.1676974,4.1036906,-0.0012211112,-0.0036633336,0.034191113,10.026650159728828,0.03440847760843074,stand
09/07/2020, 21:37:28,9.073584,-1.1676974,4.1036906,0.009768889,-0.0048844446,0.023201112,10.026650159728828,0.025643334058778628,stand
09/07/2020, 21:37:28,9.071191,-1.1700903,4.132405,0.009768889,-0.0048844446,0.023201112,10.036552394389565,0.025643334058778628,stand
09/07/2020, 21:37:28,9.071191,-1.1700903,4.132405,0.007326667,0.0,0.014653334,10.036552394389565,0.01638292590111866,stand
09/07/2020, 21:37:29,8.985049,-1.3112668,3.952943,0.07937223,-0.029306669,-0.03297,9.90334739360897,0.09080667480267754,stand
09/07/2020, 21:37:29,8.9826565,-1.3471591,3.940979,0.07937223,-0.029306669,-0.03297,9.901225716792894,0.09080667480267754,stand
09/07/2020, 21:37:29,8.9826565,-1.3471591,3.940979,0.089141116,-0.035412222,-0.037854444,9.901225716792894,0.1031170349971172,stand
09/07/2020, 21:37:29,8.987442,-1.3567305,3.9242291,0.089141116,-0.035412222,-0.037854444,9.9002225191542,0.1031170349971172,stand
09/07/2020, 21:37:29,8.987442,-1.3567305,3.9242291,0.10501556,-0.04151778,-0.04029667,9.9002225191542,0.11989918956467217,stand
09/07/2020, 21:37:29,8.939586,-1.3591232,3.9242291,0.10501556,-0.04151778,-0.04029667,9.85712851542685,0.11989918956467217,stand
09/07/2020, 21:37:29,8.939586,-1.3591232,3.9242291,0.117226675,-0.046402223,-0.04396,9.85712851542685,0.13352056553439623,stand
09/07/2020, 21:37:29,8.939586,-1.3543376,3.9481573,0.117226675,-0.046402223,-0.04396,9.866020912334925,0.13352056553439623,stand
09/07/2020, 21:37:29,8.939586,-1.3543376,3.9481573,0.11478445,-0.048844445,-0.05006556,9.866020912334925,0.13441655331172736,stand
09/07/2020, 21:37:29,8.953942,-1.3639089,3.9625144,0.11478445,-0.048844445,-0.05006556,9.886093794702527,0.13441655331172736,stand
09/07/2020, 21:37:29,8.953942,-1.3639089,3.9625144,0.10745778,-0.04396,-0.05617111,9.886093794702527,0.1289761600259618,stand
09/07/2020, 21:37:29,8.963513,-1.3519448,3.938586,0.10745778,-0.04396,-0.05617111,9.883561423807777,0.1289761600259618,stand
09/07/2020, 21:37:29,8.963513,-1.3519448,3.938586,0.09280445,-0.04151778,-0.06105556,9.883561423807777,0.11859246479936365,stand
09/07/2020, 21:37:29,8.985049,-1.3710874,3.9673,0.09280445,-0.04151778,-0.06105556,9.917180019034424,0.11859246479936365,stand
09/07/2020, 21:37:29,8.985049,-1.3710874,3.9673,0.078151114,-0.034191113,-0.058613338,9.917180019034424,0.10349952759137936,stand
09/07/2020, 21:37:29,9.025727,-1.39023,3.9457645,0.078151114,-0.034191113,-0.058613338,9.948143037487464,0.10349952759137936,stand
09/07/2020, 21:37:29,9.025727,-1.39023,3.9457645,0.06349778,-0.03052778,-0.054950003,9.948143037487464,0.08934996593597314,stand
09/07/2020, 21:37:29,9.0544405,-1.4261223,3.9673,0.06349778,-0.03052778,-0.054950003,9.987801879021976,0.08934996593597314,stand
09/07/2020, 21:37:29,9.0544405,-1.4261223,3.9673,0.048844445,-0.029306669,-0.051286668,9.987801879021976,0.07664843744893376,stand
09/07/2020, 21:37:29,9.092726,-1.4237294,3.9601214,0.048844445,-0.029306669,-0.051286668,10.01934272010808,0.07664843744893376,stand
09/07/2020, 21:37:30,9.226724,-1.5984055,4.156333,-0.109900005,-0.0036633336,-0.03297,10.245117546162989,0.1147974392199633,stand
09/07/2020, 21:37:30,9.221938,-1.5936198,4.1491547,-0.109900005,-0.0036633336,-0.03297,10.237150555365515,0.1147974392199633,stand
09/07/2020, 21:37:30,9.221938,-1.5936198,4.1491547,-0.10135223,-0.0024422223,-0.028085556,10.237150555365515,0.10519998748624387,stand
09/07/2020, 21:37:30,9.217153,-1.5888343,4.15394,-0.10135223,-0.0024422223,-0.028085556,10.234037109005484,0.10519998748624387,stand
09/07/2020, 21:37:30,9.217153,-1.5888343,4.15394,-0.07937223,-0.0048844446,-0.029306669,10.234037109005484,0.0847507468069527,stand
09/07/2020, 21:37:30,9.21476,-1.6199409,4.165904,-0.07937223,-0.0048844446,-0.029306669,10.241619189410448,0.0847507468069527,stand
09/07/2020, 21:37:30,9.21476,-1.6199409,4.165904,-0.057392225,-0.0048844446,-0.025643334,10.241619189410448,0.06305002632815628,stand
09/07/2020, 21:37:30,9.243474,-1.6127625,4.213761,-0.057392225,-0.0048844446,-0.025643334,10.28584439704791,0.06305002632815628,stand
09/07/2020, 21:37:30,9.243474,-1.6127625,4.213761,-0.03297,-0.01099,-0.02075889,10.28584439704791,0.040481261210258516,stand
09/07/2020, 21:37:30,9.269794,-1.6247265,4.2281175,-0.03297,-0.01099,-0.02075889,10.317257533999022,0.040481261210258516,stand
09/07/2020, 21:37:30,9.269794,-1.6247265,4.2281175,-0.018316668,-0.013432222,-0.019537779,10.317257533999022,0.02996080272442698,stand
09/07/2020, 21:37:30,9.243474,-1.6366907,4.237689,-0.018316668,-0.013432222,-0.019537779,10.299445445836787,0.02996080272442698,stand
09/07/2020, 21:37:30,9.243474,-1.6366907,4.237689,-0.0048844446,-0.009768889,-0.019537779,10.299445445836787,0.022383337303507594,stand
09/07/2020, 21:37:30,9.174082,-1.5864414,4.182654,-0.0048844446,-0.009768889,-0.019537779,10.206623678038483,0.022383337303507594,stand
09/07/2020, 21:37:30,9.174082,-1.5864414,4.182654,0.0012211112,-0.0048844446,-0.017095556,10.206623678038483,0.017821530893493427,stand
09/07/2020, 21:37:30,9.142975,-1.5553347,4.125226,0.0012211112,-0.0048844446,-0.017095556,10.150396291974108,0.017821530893493427,stand
09/07/2020, 21:37:30,9.142975,-1.5553347,4.125226,0.0024422223,-0.009768889,-0.015874445,10.150396291974108,0.018798767664882088,stand
09/07/2020, 21:37:30,9.109476,-1.5481563,4.113262,0.0024422223,-0.009768889,-0.015874445,10.114260633746271,0.018798767664882088,stand
09/07/2020, 21:37:30,9.109476,-1.5481563,4.113262,-0.0061055557,-0.017095556,-0.013432222,10.114260633746271,0.02258230415170769,stand
09/07/2020, 21:37:30,9.12144,-1.5170496,4.1874394,-0.0061055557,-0.017095556,-0.013432222,10.150702186719109,0.02258230415170769,stand
09/07/2020, 21:37:31,8.60459,-1.7659031,4.462614,0.023201112,0.02075889,-0.039075557,9.852528319292054,0.049961207435100255,stand
09/07/2020, 21:37:31,8.618947,-1.8233309,4.5128636,0.023201112,0.02075889,-0.039075557,9.898319129177345,0.049961207435100255,stand
09/07/2020, 21:37:31,8.618947,-1.8233309,4.5128636,0.07204556,-0.0048844446,-0.039075557,9.898319129177345,0.08210553743721903,stand
09/07/2020, 21:37:31,8.630911,-1.8137596,4.57747,0.07204556,-0.0048844446,-0.039075557,9.936577694121539,0.08210553743721903,stand
09/07/2020, 21:37:31,8.630911,-1.8137596,4.57747,0.10135223,-0.015874445,-0.042738892,9.936577694121539,0.11113453732858855,stand
09/07/2020, 21:37:31,8.626125,-1.7443677,4.5966125,0.10135223,-0.015874445,-0.042738892,9.928831909768217,0.11113453732858855,stand
09/07/2020, 21:37:31,8.626125,-1.7443677,4.5966125,0.117226675,-0.02075889,-0.04396,9.928831909768217,0.12690747252021228,stand
09/07/2020, 21:37:31,8.595019,-1.698904,4.6085763,0.117226675,-0.02075889,-0.04396,9.899475131776203,0.12690747252021228,stand
09/07/2020, 21:37:31,8.595019,-1.698904,4.6085763,0.117226675,-0.026864445,-0.04396,9.899475131776203,0.1280479343050768,stand
09/07/2020, 21:37:31,8.547162,-1.6558332,4.615755,0.117226675,-0.026864445,-0.04396,9.85398183037786,0.1280479343050768,stand
09/07/2020, 21:37:31,8.547162,-1.6558332,4.615755,0.109900005,-0.026864445,-0.048844445,9.85398183037786,0.12322941770066034,stand
09/07/2020, 21:37:31,8.484949,-1.6438692,4.584648,0.109900005,-0.026864445,-0.048844445,9.783438339862329,0.12322941770066034,stand
09/07/2020, 21:37:31,8.484949,-1.6438692,4.584648,0.11478445,-0.034191113,-0.047623336,9.783438339862329,0.12888942616690033,stand
09/07/2020, 21:37:31,8.408379,-1.6414764,4.5942197,0.11478445,-0.034191113,-0.047623336,9.72122060017768,0.12888942616690033,stand
09/07/2020, 21:37:31,8.408379,-1.6414764,4.5942197,0.123332225,-0.042738892,-0.05006556,9.72122060017768,0.13979989524386346,stand
09/07/2020, 21:37:31,8.374879,-1.6606189,4.5918264,0.123332225,-0.042738892,-0.05006556,9.694386081191196,0.13979989524386346,stand
09/07/2020, 21:37:31,8.374879,-1.6606189,4.5918264,0.14897557,-0.05617111,-0.05372889,9.694386081191196,0.16803483762618285,stand
09/07/2020, 21:37:31,8.355737,-1.7036897,4.610969,0.14897557,-0.05617111,-0.05372889,9.694427814508186,0.16803483762618285,stand
09/07/2020, 21:37:31,8.355737,-1.7036897,4.610969,0.17828223,-0.06960334,-0.057392225,9.694427814508186,0.1998075227641773,stand
09/07/2020, 21:37:31,8.34138,-1.7252251,4.634897,0.17828223,-0.06960334,-0.057392225,9.697282931899801,0.1998075227641773,stand
09/07/2020, 21:37:32,8.62134,-1.6582261,4.331009,-0.08669889,0.009768889,-0.02075889,9.789527670249802,0.08968310976303644,stand
09/07/2020, 21:37:32,8.62134,-1.6582261,4.331009,-0.05617111,-0.01099,-0.02198,9.789527670249802,0.061311453521305626,stand
09/07/2020, 21:37:32,8.676374,-1.6917256,4.3262234,-0.05617111,-0.01099,-0.02198,9.841626774349633,0.061311453521305626,stand
09/07/2020, 21:37:32,8.676374,-1.6917256,4.3262234,-0.03297,-0.015874445,-0.03174889,9.841626774349633,0.04844595951916978,stand
09/07/2020, 21:37:32,8.73141,-1.7156538,4.359723,-0.03297,-0.015874445,-0.03174889,9.908994619334015,0.04844595951916978,stand
09/07/2020, 21:37:32,8.73141,-1.7156538,4.359723,-0.024422223,-0.017095556,-0.03052778,9.908994619334015,0.04266905619913774,stand
09/07/2020, 21:37:32,8.755338,-1.7156538,4.345366,-0.024422223,-0.017095556,-0.03052778,9.923790207024384,0.04266905619913774,stand
09/07/2020, 21:37:32,8.755338,-1.7156538,4.345366,-0.02198,-0.02198,-0.03052778,9.923790207024384,0.04356817874908465,stand
09/07/2020, 21:37:32,8.755338,-1.7180467,4.371687,-0.02198,-0.02198,-0.03052778,9.935757118179232,0.04356817874908465,stand
09/07/2020, 21:37:32,8.755338,-1.7180467,4.371687,-0.02075889,-0.026864445,-0.028085556,9.935757118179232,0.0440616425434675,stand
09/07/2020, 21:37:32,8.755338,-1.7491534,4.398008,-0.02075889,-0.026864445,-0.028085556,9.952786004928207,0.0440616425434675,stand
09/07/2020, 21:37:32,8.755338,-1.7491534,4.398008,-0.017095556,-0.03174889,-0.02198,9.952786004928207,0.042229972204148335,stand
09/07/2020, 21:37:32,8.7673025,-1.7491534,4.409972,-0.017095556,-0.03174889,-0.02198,9.968599982555178,0.042229972204148335,stand
09/07/2020, 21:37:32,8.7673025,-1.7491534,4.409972,-0.008547778,-0.04396,-0.02198,9.968599982555178,0.04988653784231025,stand
09/07/2020, 21:37:32,8.738588,-1.7467605,4.4315076,-0.008547778,-0.04396,-0.02198,9.952505099434875,0.04988653784231025,stand
09/07/2020, 21:37:32,8.738588,-1.7467605,4.4315076,-0.019537779,-0.046402223,-0.02075889,9.952505099434875,0.0544593667498593,stand
09/07/2020, 21:37:32,8.693125,-1.7347964,4.412365,-0.019537779,-0.046402223,-0.02075889,9.9019645217606,0.0544593667498593,stand
09/07/2020, 21:37:32,8.693125,-1.7347964,4.412365,-0.034191113,-0.04029667,-0.02075889,9.9019645217606,0.05677838779810105,stand
09/07/2020, 21:37:32,8.702696,-1.7228323,4.436293,-0.034191113,-0.04029667,-0.02075889,9.918959769053961,0.05677838779810105,stand
09/07/2020, 21:37:32,8.702696,-1.7228323,4.436293,-0.048844445,-0.03174889,-0.013432222,9.918959769053961,0.059784584358297456,stand
09/07/2020, 21:37:33,8.908479,-1.4356936,4.1587257,-0.059834447,0.036633335,0.017095556,9.935653443476967,0.07221094312820474,stand
09/07/2020, 21:37:33,8.908479,-1.4356936,4.1587257,-0.06105556,0.04029667,0.018316668,9.935653443476967,0.07541288545313599,stand
09/07/2020, 21:37:33,8.930014,-1.4261223,4.139583,-0.06105556,0.04029667,0.018316668,9.94560792889958,0.07541288545313599,stand
09/07/2020, 21:37:33,8.930014,-1.4261223,4.139583,-0.06227667,0.037854444,0.019537779,9.94560792889958,0.07545241694281546,stand
09/07/2020, 21:37:33,8.930014,-1.4093726,4.1611185,-0.06227667,0.037854444,0.019537779,9.952204890156494,0.07545241694281546,stand
09/07/2020, 21:37:33,8.930014,-1.4093726,4.1611185,-0.07570889,0.037854444,0.023201112,9.952204890156494,0.0877672280878432,stand
09/07/2020, 21:37:33,8.927621,-1.457229,4.1467614,-0.07570889,0.037854444,0.023201112,9.950957812178988,0.0877672280878432,stand
09/07/2020, 21:37:33,8.927621,-1.457229,4.1467614,-0.089141116,0.04151778,0.023201112,9.950957812178988,0.10103541981608398,stand
09/07/2020, 21:37:33,8.898908,-1.4931214,4.130012,-0.089141116,0.04151778,0.023201112,9.923556240136858,0.10103541981608398,stand
09/07/2020, 21:37:33,8.898908,-1.4931214,4.130012,-0.08792,0.051286668,0.028085556,9.923556240136858,0.10558905049892924,stand
09/07/2020, 21:37:33,8.88455,-1.4979069,4.141976,-0.08792,0.051286668,0.028085556,9.916396508921492,0.10558905049892924,stand
09/07/2020, 21:37:33,8.88455,-1.4979069,4.141976,-0.07693,0.051286668,0.025643334,9.916396508921492,0.09594856930691513,stand
09/07/2020, 21:37:33,8.836694,-1.4763715,4.156333,-0.07693,0.051286668,0.025643334,9.87633197668187,0.09594856930691513,stand
09/07/2020, 21:37:33,8.836694,-1.4763715,4.156333,-0.06227667,0.036633335,0.025643334,9.87633197668187,0.07666788954840176,stand
09/07/2020, 21:37:33,8.807981,-1.5002998,4.180261,-0.06227667,0.036633335,0.025643334,9.864380559826785,0.07666788954840176,stand
09/07/2020, 21:37:33,8.807981,-1.5002998,4.180261,-0.06227667,0.029306669,0.029306669,9.864380559826785,0.07480738702529224,stand
09/07/2020, 21:37:33,8.788837,-1.5314065,4.197011,-0.06227667,0.029306669,0.029306669,9.859197261423859,0.07480738702529224,stand
09/07/2020, 21:37:33,8.788837,-1.5314065,4.197011,-0.06227667,0.025643334,0.029306669,9.859197261423859,0.07344960780081848,stand
09/07/2020, 21:37:33,8.7984085,-1.5290136,4.2161536,-0.06227667,0.025643334,0.029306669,9.875516509662521,0.07344960780081848,stand
09/07/2020, 21:37:33,8.7984085,-1.5290136,4.2161536,-0.06227667,0.017095556,0.03174889,9.875516509662521,0.07196272372546275,stand
09/07/2020, 21:37:34,8.980264,-1.3471591,4.0558343,0.023201112,-0.01099,-0.0024422223,9.945338902462312,0.02578829465911374,stand
09/07/2020, 21:37:34,8.958728,-1.3328022,4.0773697,0.023201112,-0.01099,-0.0024422223,9.932779554611173,0.02578829465911374,stand
09/07/2020, 21:37:34,8.958728,-1.3328022,4.0773697,0.023201112,-0.015874445,-0.0048844446,9.932779554611173,0.028533268332800548,stand
09/07/2020, 21:37:34,8.992228,-1.3208381,4.089334,0.023201112,-0.015874445,-0.0048844446,9.966314379587603,0.028533268332800548,stand
09/07/2020, 21:37:34,8.992228,-1.3208381,4.089334,0.026864445,-0.012211111,-0.007326667,9.966314379587603,0.0304054220429225,stand
09/07/2020, 21:37:34,9.004191,-1.3232309,4.098905,0.026864445,-0.012211111,-0.007326667,9.981353894490185,0.0304054220429225,stand
09/07/2020, 21:37:34,9.004191,-1.3232309,4.098905,0.02198,-0.012211111,-0.009768889,9.981353894490185,0.02697522692904954,stand
09/07/2020, 21:37:34,8.9826565,-1.3280165,4.0965123,0.02198,-0.012211111,-0.009768889,9.961584134187977,0.02697522692904954,stand
09/07/2020, 21:37:34,8.9826565,-1.3280165,4.0965123,0.01099,-0.009768889,-0.01099,9.961584134187977,0.018357325850398225,stand
09/07/2020, 21:37:34,8.956335,-1.3423735,4.074977,0.01099,-0.009768889,-0.01099,9.93092852359176,0.018357325850398225,stand
09/07/2020, 21:37:34,8.956335,-1.3423735,4.074977,0.0024422223,-0.0012211112,-0.012211111,9.93092852359176,0.012512665716268013,stand
09/07/2020, 21:37:34,8.932407,-1.3734802,4.089334,0.0024422223,-0.0012211112,-0.012211111,9.919526304373564,0.012512665716268013,stand
09/07/2020, 21:37:34,8.932407,-1.3734802,4.089334,-0.0048844446,0.0012211112,-0.009768889,9.919526304373564,0.01099000044632703,stand
09/07/2020, 21:37:34,8.930014,-1.4069797,4.082155,-0.0048844446,0.0012211112,-0.009768889,9.919109185313904,0.01099000044632703,stand
09/07/2020, 21:37:34,8.930014,-1.4069797,4.082155,-0.0048844446,0.0036633336,-0.008547778,9.919109185313904,0.01050439552691326,stand
09/07/2020, 21:37:34,8.932407,-1.4356936,4.0845485,-0.0048844446,0.0036633336,-0.008547778,9.92636156874801,0.01050439552691326,stand
09/07/2020, 21:37:34,8.932407,-1.4356936,4.0845485,-0.0048844446,0.0048844446,-0.008547778,9.92636156874801,0.01099000053687228,stand
09/07/2020, 21:37:34,8.941978,-1.457229,4.0701914,-0.0048844446,0.0048844446,-0.008547778,9.932217929096149,0.01099000053687228,stand
09/07/2020, 21:37:34,8.941978,-1.457229,4.0701914,0.0,0.0036633336,-0.0061055557,9.932217929096149,0.0071202403963877975,stand
09/07/2020, 21:37:34,8.944371,-1.457229,4.0701914,0.0,0.0036633336,-0.0061055557,9.934372194134124,0.0071202403963877975,stand
09/07/2020, 21:37:35,8.927621,-1.416551,4.0534415,0.10135223,-0.037854444,-0.0061055557,9.906534188426535,0.10836286830234265,stand
09/07/2020, 21:37:35,8.927621,-1.416551,4.0534415,0.09036223,-0.035412222,-0.0024422223,9.906534188426535,0.09708409889511131,stand
09/07/2020, 21:37:35,8.949157,-1.4380864,4.0151563,0.09036223,-0.035412222,-0.0024422223,9.913474621321855,0.09708409889511131,stand
09/07/2020, 21:37:35,8.949157,-1.4380864,4.0151563,0.07937223,-0.035412222,-0.0012211112,9.913474621321855,0.08692218956780243,stand
09/07/2020, 21:37:35,8.975478,-1.4285151,3.9625144,0.07937223,-0.035412222,-0.0012211112,9.914705447953695,0.08692218956780243,stand
09/07/2020, 21:37:35,8.975478,-1.4285151,3.9625144,0.07204556,-0.035412222,-0.0036633336,9.914705447953695,0.08036173095964957,stand
09/07/2020, 21:37:35,8.987442,-1.4141582,3.9098723,0.07204556,-0.035412222,-0.0036633336,9.902578393455963,0.08036173095964957,stand
09/07/2020, 21:37:35,8.987442,-1.4141582,3.9098723,0.078151114,-0.04151778,-0.0024422223,9.902578393455963,0.08852845365267077,stand
09/07/2020, 21:37:35,9.004191,-1.4045869,3.9098723,0.078151114,-0.04151778,-0.0024422223,9.916422161514408,0.08852845365267077,stand
09/07/2020, 21:37:35,9.004191,-1.4045869,3.9098723,0.091583334,-0.046402223,0.0,9.916422161514408,0.10266778164160194,stand
09/07/2020, 21:37:35,9.035298,-1.4285151,3.9457645,0.091583334,-0.046402223,0.0,9.962245197242627,0.10266778164160194,stand
09/07/2020, 21:37:35,9.035298,-1.4285151,3.9457645,0.10135223,-0.05006556,-0.0036633336,9.962245197242627,0.1131028497404492,stand
09/07/2020, 21:37:35,9.073584,-1.4141582,4.0295134,0.10135223,-0.05006556,-0.0036633336,10.028297003745804,0.1131028497404492,stand
09/07/2020, 21:37:35,9.073584,-1.4141582,4.0295134,0.10135223,-0.047623336,-0.0048844446,10.028297003745804,0.11208976059094011,stand
09/07/2020, 21:37:35,9.078369,-1.4093726,4.0534415,0.10135223,-0.047623336,-0.0048844446,10.041588792707927,0.11208976059094011,stand
09/07/2020, 21:37:35,9.078369,-1.4093726,4.0534415,0.09646778,-0.04029667,-0.007326667,10.041588792707927,0.10480235626295037,stand
09/07/2020, 21:37:35,9.071191,-1.3686945,4.0677986,0.09646778,-0.04029667,-0.007326667,10.035278445072999,0.10480235626295037,stand
09/07/2020, 21:37:35,9.071191,-1.3686945,4.0677986,0.07937223,-0.03174889,-0.008547778,10.035278445072999,0.08591278737286248,stand
09/07/2020, 21:37:35,9.056833,-1.3471591,4.082155,0.07937223,-0.03174889,-0.008547778,10.025221089873817,0.08591278737286248,stand
09/07/2020, 21:37:35,9.056833,-1.3471591,4.082155,0.05617111,-0.018316668,-0.009768889,10.025221089873817,0.05988426591188964,stand
09/07/2020, 21:37:36,8.776874,-1.8735801,4.199404,-0.01099,-0.0024422223,-0.0061055557,9.908521803828968,0.012807121744049622,stand
09/07/2020, 21:37:36,8.752945,-1.8927227,4.1874394,-0.01099,-0.0024422223,-0.0061055557,9.885903784051825,0.012807121744049622,stand
09/07/2020, 21:37:36,8.752945,-1.8927227,4.1874394,0.0012211112,-0.008547778,-0.0048844446,9.885903784051825,0.009920354066188942,stand
09/07/2020, 21:37:36,8.762517,-1.8879371,4.206582,0.0012211112,-0.008547778,-0.0048844446,9.901582844528933,0.009920354066188942,stand
09/07/2020, 21:37:36,8.762517,-1.8879371,4.206582,0.014653334,-0.009768889,-0.0024422223,9.901582844528933,0.017779647257670478,stand
09/07/2020, 21:37:36,8.745767,-1.9046868,4.223332,0.014653334,-0.009768889,-0.0024422223,9.897110615288675,0.017779647257670478,stand
09/07/2020, 21:37:36,8.745767,-1.9046868,4.223332,0.024422223,-0.009768889,0.0048844446,9.897110615288675,0.026753204692445385,stand
09/07/2020, 21:37:36,8.752945,-1.8975084,4.213761,0.024422223,-0.009768889,0.0048844446,9.897997970309877,0.026753204692445385,stand
09/07/2020, 21:37:36,8.752945,-1.8975084,4.213761,0.028085556,-0.014653334,0.01099,9.897997970309877,0.03353056464296681,stand
09/07/2020, 21:37:36,8.733803,-1.8711873,4.2041893,0.028085556,-0.014653334,0.01099,9.871973509140359,0.03353056464296681,stand
09/07/2020, 21:37:36,8.733803,-1.8711873,4.2041893,0.042738892,-0.025643334,0.018316668,9.871973509140359,0.05310078886871932,stand
09/07/2020, 21:37:36,8.7984085,-1.8544376,4.182654,0.042738892,-0.025643334,0.018316668,9.91693121550972,0.05310078886871932,stand
09/07/2020, 21:37:36,8.7984085,-1.8544376,4.182654,0.06349778,-0.029306669,0.013432222,9.91693121550972,0.07121287609822294,stand
09/07/2020, 21:37:36,8.822337,-1.8113668,4.1922255,0.06349778,-0.029306669,0.013432222,9.93425572178212,0.07121287609822294,stand
09/07/2020, 21:37:36,8.822337,-1.8113668,4.1922255,0.08425667,-0.035412222,0.009768889,9.93425572178212,0.09191650203015143,stand
09/07/2020, 21:37:36,8.915657,-1.7778672,4.1635113,0.08425667,-0.035412222,0.009768889,9.99922889215241,0.09191650203015143,stand
09/07/2020, 21:37:36,8.915657,-1.7778672,4.1635113,0.09280445,-0.036633335,0.007326667,9.99922889215241,0.10004172448681292,stand
09/07/2020, 21:37:36,8.930014,-1.7252251,4.180261,0.09280445,-0.036633335,0.007326667,10.009801630379064,0.10004172448681292,stand
09/07/2020, 21:37:36,8.930014,-1.7252251,4.180261,0.08059334,-0.026864445,0.0061055557,10.009801630379064,0.08517195944051818,stand
09/07/2020, 21:37:36,8.906086,-1.6486548,4.208975,0.08059334,-0.026864445,0.0061055557,9.987587254661506,0.08517195944051818,stand
09/07/2020, 21:37:37,9.016156,-1.3280165,3.9984066,-0.054950003,0.03052778,0.017095556,9.95198252437315,0.0651437347454965,stand
09/07/2020, 21:37:37,9.016156,-1.3280165,3.9984066,-0.05617111,0.036633335,0.014653334,9.95198252437315,0.06864339183545622,stand
09/07/2020, 21:37:37,8.992228,-1.3016955,3.979264,-0.05617111,0.036633335,0.014653334,9.9191284709492,0.06864339183545622,stand
09/07/2020, 21:37:37,8.992228,-1.3016955,3.979264,-0.06716111,0.042738892,0.009768889,9.9191284709492,0.08020386026650297,stand
09/07/2020, 21:37:37,8.975478,-1.3232309,3.9673,-0.06716111,0.042738892,0.009768889,9.90200066334649,0.08020386026650297,stand
09/07/2020, 21:37:37,8.975478,-1.3232309,3.9673,-0.07448778,0.046402223,0.013432222,9.90200066334649,0.08878074540564734,stand
09/07/2020, 21:37:37,8.968299,-1.3423735,3.9338005,-0.07448778,0.046402223,0.013432222,9.88469210516459,0.08878074540564734,stand
09/07/2020, 21:37:37,8.968299,-1.3423735,3.9338005,-0.07204556,0.035412222,0.023201112,9.88469210516459,0.0835636247064694,stand
09/07/2020, 21:37:37,9.06162,-1.4213367,3.938586,-0.07204556,0.035412222,0.023201112,9.982264781973852,0.0835636247064694,stand
09/07/2020, 21:37:37,9.06162,-1.4213367,3.938586,-0.057392225,0.03174889,0.018316668,9.982264781973852,0.06809816321831026,stand
09/07/2020, 21:37:37,9.159725,-1.4620147,3.9361932,-0.057392225,0.03174889,0.018316668,10.076292452012378,0.06809816321831026,stand
09/07/2020, 21:37:37,9.159725,-1.4620147,3.9361932,-0.039075557,0.034191113,0.012211111,10.076292452012378,0.05333894086686189,stand
09/07/2020, 21:37:37,9.178867,-1.4620147,3.952943,-0.039075557,0.034191113,0.012211111,10.100240175527887,0.05333894086686189,stand
09/07/2020, 21:37:37,9.178867,-1.4620147,3.952943,-0.03052778,0.037854444,0.0048844446,10.100240175527887,0.048874963829680526,stand
09/07/2020, 21:37:37,9.164511,-1.4117653,3.9960139,-0.03052778,0.037854444,0.0048844446,10.097002780928673,0.048874963829680526,stand
09/07/2020, 21:37:37,9.164511,-1.4117653,3.9960139,-0.048844445,0.045181114,0.0012211112,10.097002780928673,0.0665477576715524,stand
09/07/2020, 21:37:37,9.133404,-1.3663018,4.0558343,-0.048844445,0.045181114,0.0012211112,10.08640852478846,0.0665477576715524,stand
09/07/2020, 21:37:37,9.133404,-1.3663018,4.0558343,-0.081814446,0.05250778,0.0061055557,10.08640852478846,0.0974061000347662,stand
09/07/2020, 21:37:37,9.040084,-1.3495519,4.0390844,-0.081814446,0.05250778,0.0061055557,9.99292800408012,0.0974061000347662,stand
09/07/2020, 21:37:37,9.040084,-1.3495519,4.0390844,-0.11844778,0.06227667,0.01099,9.99292800408012,0.1342722619199894,stand
09/07/2020, 21:37:38,9.052048,-1.1892328,3.7950168,0.07693,-0.029306669,0.0036633336,9.887163145368735,0.0824046476877563,stand
09/07/2020, 21:37:38,9.052048,-1.1892328,3.7950168,0.070824444,-0.03052778,0.0061055557,9.887163145368735,0.07736488261025978,stand
09/07/2020, 21:37:38,9.064013,-1.2323036,3.7471602,0.070824444,-0.03052778,0.0061055557,9.885145666360893,0.07736488261025978,stand
09/07/2020, 21:37:38,9.064013,-1.2323036,3.7471602,0.08059334,-0.035412222,0.007326667,9.885145666360893,0.08833454589170708,stand
09/07/2020, 21:37:38,9.097511,-1.2418749,3.7543387,0.08059334,-0.035412222,0.007326667,9.919779454872101,0.08833454589170708,stand
09/07/2020, 21:37:38,9.097511,-1.2418749,3.7543387,0.09646778,-0.04029667,0.0012211112,9.919779454872101,0.10455307235331184,stand
09/07/2020, 21:37:38,9.123833,-1.2418749,3.7830527,0.09646778,-0.04029667,0.0012211112,9.954801059636491,0.10455307235331184,stand
09/07/2020, 21:37:38,9.123833,-1.2418749,3.7830527,0.10501556,-0.04151778,-0.0012211112,9.954801059636491,0.11293132937170022,stand
09/07/2020, 21:37:38,9.152547,-1.2370893,3.8165522,0.10501556,-0.04151778,-0.0012211112,9.993276475854515,0.11293132937170022,stand
09/07/2020, 21:37:38,9.152547,-1.2370893,3.8165522,0.09646778,-0.042738892,0.0012211112,9.993276475854515,0.10551841650929131,stand
09/07/2020, 21:37:38,9.171689,-1.1988041,3.8691943,0.09646778,-0.042738892,0.0012211112,10.026349055679903,0.10551841650929131,stand
09/07/2020, 21:37:38,9.171689,-1.1988041,3.8691943,0.07937223,-0.03297,-0.0012211112,10.026349055679903,0.08595616595524189,stand
09/07/2020, 21:37:38,9.171689,-1.2131611,3.897908,0.07937223,-0.03297,-0.0012211112,10.039189517541855,0.08595616595524189,stand
09/07/2020, 21:37:38,9.171689,-1.2131611,3.897908,0.058613338,-0.02198,-0.0012211112,10.039189517541855,0.0626109805331014,stand
09/07/2020, 21:37:38,9.169296,-1.2323036,3.912265,0.058613338,-0.02198,-0.0012211112,10.044918323072089,0.0626109805331014,stand
09/07/2020, 21:37:38,9.169296,-1.2323036,3.912265,0.039075557,-0.0036633336,-0.0012211112,10.044918323072089,0.03926589221598498,stand
09/07/2020, 21:37:38,9.138189,-1.2418749,3.897908,0.039075557,-0.0036633336,-0.0012211112,10.012114855610788,0.03926589221598498,stand
09/07/2020, 21:37:38,9.138189,-1.2418749,3.897908,0.024422223,-0.0024422223,0.007326667,10.012114855610788,0.025614243421500652,stand
09/07/2020, 21:37:38,9.073584,-1.2490535,3.8739798,0.024422223,-0.0024422223,0.007326667,9.944735971089752,0.025614243421500652,stand
09/07/2020, 21:37:38,9.073584,-1.2490535,3.8739798,0.02075889,-0.0061055557,0.013432222,9.944735971089752,0.02546829219672924,stand
09/07/2020, 21:37:39,8.803194,-1.7587247,4.2185464,0.035412222,0.0,0.037854444,9.918945084754379,0.051836130505381973,stand
09/07/2020, 21:37:39,8.803194,-1.7587247,4.2185464,0.03174889,0.0,0.046402223,9.918945084754379,0.056224179932940016,stand
09/07/2020, 21:37:39,8.817552,-1.7371893,4.1611185,0.03174889,0.0,0.046402223,9.903633187736789,0.056224179932940016,stand
09/07/2020, 21:37:39,8.817552,-1.7371893,4.1611185,0.029306669,-0.0024422223,0.054950003,9.903633187736789,0.062324538257150036,stand
09/07/2020, 21:37:39,8.839087,-1.6845472,4.1204405,0.029306669,-0.0024422223,0.054950003,9.896725707368729,0.062324538257150036,stand
09/07/2020, 21:37:39,8.839087,-1.6845472,4.1204405,0.035412222,-0.0012211112,0.05372889,9.896725707368729,0.06436078134586094,stand
09/07/2020, 21:37:39,8.894122,-1.6295122,4.091727,0.035412222,-0.0012211112,0.05372889,9.924865055672111,0.06436078134586094,stand
09/07/2020, 21:37:39,8.894122,-1.6295122,4.091727,0.051286668,-0.01099,0.05250778,9.924865055672111,0.0742170424598836,stand
09/07/2020, 21:37:39,8.944371,-1.5840486,4.0414777,0.051286668,-0.01099,0.05250778,9.942058563542384,0.0742170424598836,stand
09/07/2020, 21:37:39,8.944371,-1.5840486,4.0414777,0.05372889,-0.02075889,0.05006556,9.942058563542384,0.07631700480196169,stand
09/07/2020, 21:37:39,8.906086,-1.524228,4.0151563,0.05372889,-0.02075889,0.05006556,9.887523353199047,0.07631700480196169,stand
09/07/2020, 21:37:39,8.906086,-1.524228,4.0151563,0.04396,-0.014653334,0.047623336,9.887523353199047,0.0664468515933972,stand
09/07/2020, 21:37:39,8.894122,-1.4715859,3.9984066,0.04396,-0.014653334,0.047623336,9.861958682312208,0.0664468515933972,stand
09/07/2020, 21:37:39,8.894122,-1.4715859,3.9984066,0.036633335,-0.014653334,0.054950003,9.861958682312208,0.06764779545319194,stand
09/07/2020, 21:37:39,8.908479,-1.4596218,3.9553359,0.036633335,-0.014653334,0.054950003,9.855768407200319,0.06764779545319194,stand
09/07/2020, 21:37:39,8.908479,-1.4596218,3.9553359,0.03052778,-0.013432222,0.05250778,9.855768407200319,0.06220479847108571,stand
09/07/2020, 21:37:39,8.925228,-1.5074782,3.9673,0.03052778,-0.013432222,0.05250778,9.882897166797017,0.06220479847108571,stand
09/07/2020, 21:37:39,8.925228,-1.5074782,3.9673,0.037854444,-0.017095556,0.045181114,9.882897166797017,0.06137222566105014,stand
09/07/2020, 21:37:39,8.9348,-1.5050855,4.022335,0.037854444,-0.017095556,0.045181114,9.91338061542278,0.06137222566105014,stand
09/07/2020, 21:37:39,8.9348,-1.5050855,4.022335,0.046402223,-0.024422223,0.04029667,9.91338061542278,0.06613193569124916,stand
09/07/2020, 21:37:40,9.042477,-1.4380864,3.926622,-0.04029667,0.046402223,0.04396,9.962571764379621,0.07556103275050215,stand
09/07/2020, 21:37:40,9.042477,-1.4380864,3.926622,-0.039075557,0.046402223,0.045181114,9.962571764379621,0.07563992719442743,stand
09/07/2020, 21:37:40,9.035298,-1.4380864,3.95055,-0.039075557,0.046402223,0.045181114,9.965518281745164,0.07563992719442743,stand
09/07/2020, 21:37:40,9.035298,-1.4380864,3.95055,-0.039075557,0.042738892,0.04396,9.965518281745164,0.07270484016352553,stand
09/07/2020, 21:37:40,8.997013,-1.4620147,3.9457645,-0.039075557,0.042738892,0.04396,9.932411052037471,0.07270484016352553,stand
09/07/2020, 21:37:40,8.997013,-1.4620147,3.9457645,-0.039075557,0.042738892,0.045181114,9.932411052037471,0.07344960959689087,stand
09/07/2020, 21:37:40,9.006584,-1.4811572,3.9218364,-0.039075557,0.042738892,0.045181114,9.934444399672685,0.07344960959689087,stand
09/07/2020, 21:37:40,9.006584,-1.4811572,3.9218364,-0.04029667,0.04396,0.04029667,9.934444399672685,0.07197308490101309,stand
09/07/2020, 21:37:40,9.013762,-1.4787644,3.938586,-0.04029667,0.04396,0.04029667,9.94721658485665,0.07197308490101309,stand
09/07/2020, 21:37:40,9.013762,-1.4787644,3.938586,-0.045181114,0.04396,0.036633335,9.94721658485665,0.0729096429558629,stand
09/07/2020, 21:37:40,9.025727,-1.4668003,3.9481573,-0.045181114,0.04396,0.036633335,9.960080428974177,0.0729096429558629,stand
09/07/2020, 21:37:40,9.025727,-1.4668003,3.9481573,-0.05006556,0.042738892,0.036633335,9.960080428974177,0.07533375257236376,stand
09/07/2020, 21:37:40,9.032906,-1.4668003,3.9361932,-0.05006556,0.042738892,0.036633335,9.961852414718262,0.07533375257236376,stand
09/07/2020, 21:37:40,9.032906,-1.4668003,3.9361932,-0.059834447,0.048844445,0.03174889,9.961852414718262,0.08351007691670764,stand
09/07/2020, 21:37:40,9.02812,-1.4380864,3.9146578,-0.059834447,0.048844445,0.03174889,9.944827292347748,0.08351007691670764,stand
09/07/2020, 21:37:40,9.02812,-1.4380864,3.9146578,-0.070824444,0.05617111,0.026864445,9.944827292347748,0.09430267282843703,stand
09/07/2020, 21:37:40,9.0233345,-1.4452649,3.940979,-0.070824444,0.05617111,0.026864445,9.951917996002786,0.09430267282843703,stand
09/07/2020, 21:37:40,9.0233345,-1.4452649,3.940979,-0.08303556,0.054950003,0.023201112,9.951917996002786,0.10223843864743554,stand
09/07/2020, 21:37:40,8.987442,-1.4668003,3.8931224,-0.08303556,0.054950003,0.023201112,9.903636680878654,0.10223843864743554,stand
09/07/2020, 21:37:40,8.987442,-1.4668003,3.8931224,-0.08792,0.05006556,0.024422223,9.903636680878654,0.10408137185079351,stand
09/07/2020, 21:37:41,9.126225,-1.0671989,3.6466618,0.07448778,-0.0036633336,-0.023201112,9.885597947041104,0.07810340207581755,stand
09/07/2020, 21:37:41,9.126225,-1.0671989,3.6466618,0.064718895,-0.01099,-0.019537779,9.885597947041104,0.06849116895501173,stand
09/07/2020, 21:37:41,9.15494,-1.0767702,3.644269,0.064718895,-0.01099,-0.019537779,9.912267678239568,0.06849116895501173,stand
09/07/2020, 21:37:41,9.15494,-1.0767702,3.644269,0.058613338,-0.014653334,-0.017095556,9.912267678239568,0.06278934306202971,stand
09/07/2020, 21:37:41,9.164511,-1.0863415,3.615555,0.058613338,-0.014653334,-0.017095556,9.911641288114948,0.06278934306202971,stand
09/07/2020, 21:37:41,9.164511,-1.0863415,3.615555,0.058613338,-0.018316668,-0.014653334,9.911641288114948,0.0631327479205698,stand
09/07/2020, 21:37:41,9.178867,-1.0815558,3.6203406,0.058613338,-0.018316668,-0.014653334,9.926138959623362,0.0631327479205698,stand
09/07/2020, 21:37:41,9.178867,-1.0815558,3.6203406,0.06105556,-0.018316668,-0.01099,9.926138959623362,0.06468432408664966,stand
09/07/2020, 21:37:41,9.190832,-1.105484,3.6203406,0.06105556,-0.018316668,-0.01099,9.939836831670926,0.06468432408664966,stand
09/07/2020, 21:37:41,9.190832,-1.105484,3.6203406,0.06227667,-0.012211111,-0.013432222,9.939836831670926,0.06486847711117308,stand
09/07/2020, 21:37:41,9.200403,-1.1150553,3.6394832,0.06227667,-0.012211111,-0.013432222,9.956736700564235,0.06486847711117308,stand
09/07/2020, 21:37:41,9.200403,-1.1150553,3.6394832,0.05617111,-0.0048844446,-0.012211111,9.956736700564235,0.057690231730334725,stand
09/07/2020, 21:37:41,9.2075815,-1.0863415,3.6490545,0.05617111,-0.0048844446,-0.012211111,9.96369882359193,0.057690231730334725,stand
09/07/2020, 21:37:41,9.2075815,-1.0863415,3.6490545,0.039075557,-0.008547778,-0.019537779,9.96369882359193,0.04451615965420491,stand
09/07/2020, 21:37:41,9.176475,-1.0983056,3.682554,0.039075557,-0.008547778,-0.019537779,9.948626273078958,0.04451615965420491,stand
09/07/2020, 21:37:41,9.176475,-1.0983056,3.682554,0.037854444,-0.0036633336,-0.018316668,9.948626273078958,0.04221231183826173,stand
09/07/2020, 21:37:41,9.174082,-1.1102697,3.6897326,0.037854444,-0.0036633336,-0.018316668,9.950407124801801,0.04221231183826173,stand
09/07/2020, 21:37:41,9.174082,-1.1102697,3.6897326,0.029306669,0.0012211112,-0.018316668,9.950407124801801,0.03458138599334823,stand
09/07/2020, 21:37:41,9.174082,-1.119841,3.7160535,0.029306669,0.0012211112,-0.018316668,9.961268706642239,0.03458138599334823,stand
09/07/2020, 21:37:41,9.174082,-1.119841,3.7160535,0.018316668,-0.007326667,-0.019537779,9.961268706642239,0.027765178785821517,stand
09/07/2020, 21:37:42,9.183653,-1.3184453,3.802195,0.11234222,-0.06594,0.0012211112,10.026687669498521,0.13027029559506412,stand
09/07/2020, 21:37:42,9.171689,-1.3663018,3.7591243,0.11234222,-0.06594,0.0012211112,10.005882050714995,0.13027029559506412,stand
09/07/2020, 21:37:42,9.171689,-1.3663018,3.7591243,0.11966889,-0.06960334,0.0,10.005882050714995,0.13843868264579823,stand
09/07/2020, 21:37:42,9.176475,-1.3926228,3.7184465,0.11966889,-0.06960334,0.0,9.998696326082658,0.13843868264579823,stand
09/07/2020, 21:37:42,9.176475,-1.3926228,3.7184465,0.13920668,-0.07326667,0.0061055557,9.998696326082658,0.15742865643941611,stand
09/07/2020, 21:37:42,9.188439,-1.4117653,3.6993039,0.13920668,-0.07326667,0.0061055557,10.00526603829344,0.15742865643941611,stand
09/07/2020, 21:37:42,9.188439,-1.4117653,3.6993039,0.16973445,-0.091583334,0.01099,10.00526603829344,0.19317885510874433,stand
09/07/2020, 21:37:42,9.12144,-1.4380864,3.546163,0.16973445,-0.091583334,0.01099,9.891614202800149,0.19317885510874433,stand
09/07/2020, 21:37:42,9.12144,-1.4380864,3.546163,0.20026223,-0.081814446,0.008547778,9.891614202800149,0.21649856864840222,stand
09/07/2020, 21:37:42,9.083155,-1.5290136,3.5605202,0.20026223,-0.081814446,0.008547778,9.875165087173439,0.21649856864840222,stand
09/07/2020, 21:37:42,9.083155,-1.5290136,3.5605202,0.23323223,-0.08059334,0.017095556,9.875165087173439,0.2473556500391281,stand
09/07/2020, 21:37:42,9.12144,-1.4069797,3.6586258,0.23323223,-0.08059334,0.017095556,9.928031090355603,0.2473556500391281,stand
09/07/2020, 21:37:42,9.12144,-1.4069797,3.6586258,0.24910668,-0.10013112,0.013432222,9.928031090355603,0.26881369175376596,stand
09/07/2020, 21:37:42,9.169296,-1.2586247,3.7591243,0.24910668,-0.10013112,0.013432222,9.989551811830038,0.26881369175376596,stand
09/07/2020, 21:37:42,9.169296,-1.2586247,3.7591243,0.21980001,-0.09646778,0.007326667,9.989551811830038,0.24014944680222625,stand
09/07/2020, 21:37:42,9.21476,-1.2011969,3.737589,0.21980001,-0.09646778,0.007326667,10.016199046109707,0.24014944680222625,stand
09/07/2020, 21:37:42,9.21476,-1.2011969,3.737589,0.16118668,-0.06960334,0.013432222,10.016199046109707,0.17608576106433318,stand
09/07/2020, 21:37:42,9.241081,-1.1437693,3.6729827,0.16118668,-0.06960334,0.013432222,10.009824795383583,0.17608576106433318,stand
09/07/2020, 21:37:42,9.241081,-1.1437693,3.6729827,0.10501556,-0.039075557,0.01099,10.009824795383583,0.11258750961878763,stand
09/07/2020, 21:37:42,9.236296,-1.1509477,3.641876,0.10501556,-0.039075557,0.01099,9.99485365148845,0.11258750961878763,stand
09/07/2020, 21:37:43,9.114262,-1.1653047,3.6658044,-0.025643334,0.026864445,0.028085556,9.89271559072186,0.04656261819916748,stand
09/07/2020, 21:37:43,9.08794,-1.18684,3.6394832,-0.025643334,0.026864445,0.028085556,9.861292245610963,0.04656261819916748,stand
09/07/2020, 21:37:43,9.08794,-1.18684,3.6394832,-0.01099,0.018316668,0.025643334,9.861292245610963,0.033374555945327566,stand
09/07/2020, 21:37:43,9.042477,-1.2083755,3.6681972,-0.01099,0.018316668,0.025643334,9.832712018804184,0.033374555945327566,stand
09/07/2020, 21:37:43,9.042477,-1.2083755,3.6681972,0.0,0.008547778,0.019537779,9.832712018804184,0.021325789653895182,stand
09/07/2020, 21:37:43,9.056833,-1.2394822,3.6753755,0.0,0.008547778,0.019537779,9.85245805113994,0.021325789653895182,stand
09/07/2020, 21:37:43,9.056833,-1.2394822,3.6753755,0.014653334,-0.0024422223,0.02198,9.85245805113994,0.02652932505244427,stand
09/07/2020, 21:37:43,9.075976,-1.2490535,3.7184465,0.014653334,-0.0024422223,0.02198,9.887382161864462,0.02652932505244427,stand
09/07/2020, 21:37:43,9.075976,-1.2490535,3.7184465,0.013432222,-0.0012211112,0.018316668,9.887382161864462,0.022746780450422093,stand
09/07/2020, 21:37:43,9.085547,-1.268196,3.723232,0.013432222,-0.0012211112,0.018316668,9.900401518721063,0.022746780450422093,stand
09/07/2020, 21:37:43,9.085547,-1.268196,3.723232,-0.0048844446,0.0012211112,0.012211111,9.900401518721063,0.013208336493616073,stand
09/07/2020, 21:37:43,9.066405,-1.2610176,3.7471602,-0.0048844446,0.0012211112,0.012211111,9.890959499616631,0.013208336493616073,stand
09/07/2020, 21:37:43,9.066405,-1.2610176,3.7471602,-0.035412222,0.0048844446,0.014653334,9.890959499616631,0.03863422686843302,stand
09/07/2020, 21:37:43,9.073584,-1.2634103,3.751946,-0.035412222,0.0048844446,0.014653334,9.899657753707071,0.03863422686843302,stand
09/07/2020, 21:37:43,9.073584,-1.2634103,3.751946,-0.054950003,0.0061055557,0.015874445,9.899657753707071,0.0575219837267751,stand
09/07/2020, 21:37:43,9.068798,-1.3519448,3.7830527,-0.054950003,0.0061055557,0.015874445,9.918787259645883,0.0575219837267751,stand
09/07/2020, 21:37:43,9.068798,-1.3519448,3.7830527,-0.05372889,0.0061055557,0.019537779,9.918787259645883,0.05749605366755793,stand
09/07/2020, 21:37:43,9.090333,-1.4380864,3.802195,-0.05372889,0.0061055557,0.019537779,9.957857882606863,0.05749605366755793,stand
09/07/2020, 21:37:43,9.090333,-1.4380864,3.802195,-0.034191113,-0.0061055557,0.017095556,9.957857882606863,0.03871134287918125,stand
09/07/2020, 21:37:43,9.071191,-1.4835501,3.802195,-0.034191113,-0.0061055557,0.017095556,9.947065463232045,0.03871134287918125,stand
09/07/2020, 21:37:44,9.315259,-0.7704889,3.5772698,0.078151114,0.091583334,-0.070824444,10.008224727789123,0.1396825172436318,stand
09/07/2020, 21:37:44,9.315259,-0.7704889,3.5772698,0.068382226,0.085477784,-0.068382226,10.008224727789123,0.12906862225656526,stand
09/07/2020, 21:37:44,9.293723,-0.7704889,3.4576287,0.068382226,0.085477784,-0.068382226,9.945960927136698,0.12906862225656526,stand
09/07/2020, 21:37:44,9.293723,-0.7704889,3.4576287,0.070824444,0.085477784,-0.064718895,9.945960927136698,0.12849548178967124,stand
09/07/2020, 21:37:44,9.284152,-0.7513463,3.4791641,0.070824444,0.085477784,-0.064718895,9.943067091187478,0.12849548178967124,stand
09/07/2020, 21:37:44,9.284152,-0.7513463,3.4791641,0.070824444,0.08792,-0.06716111,9.943067091187478,0.13136454573527012,stand
09/07/2020, 21:37:44,9.257831,-0.72741807,3.493521,0.070824444,0.08792,-0.06716111,9.921756579863999,0.13136454573527012,stand
09/07/2020, 21:37:44,9.257831,-0.72741807,3.493521,0.06594,0.08425667,-0.068382226,9.921756579863999,0.1269779473327529,stand
09/07/2020, 21:37:44,9.217153,-0.6939186,3.5006995,0.06594,0.08425667,-0.068382226,9.883942639599573,0.1269779473327529,stand
09/07/2020, 21:37:44,9.217153,-0.6939186,3.5006995,0.064718895,0.07693,-0.05617111,9.883942639599573,0.11516055850307225,stand
09/07/2020, 21:37:44,9.212367,-0.70588267,3.4911282,0.064718895,0.07693,-0.05617111,9.876940482853055,0.11516055850307225,stand
09/07/2020, 21:37:44,9.212367,-0.70588267,3.4911282,0.059834447,0.081814446,-0.05006556,9.876940482853055,0.11305009800359983,stand
09/07/2020, 21:37:44,9.209974,-0.715454,3.5389848,0.059834447,0.081814446,-0.05006556,9.892416997141572,0.11305009800359983,stand
09/07/2020, 21:37:44,9.209974,-0.715454,3.5389848,0.05617111,0.07937223,-0.05250778,9.892416997141572,0.11050887411548746,stand
09/07/2020, 21:37:44,9.188439,-0.73459655,3.5389848,0.05617111,0.07937223,-0.05250778,9.873776550792314,0.11050887411548746,stand
09/07/2020, 21:37:44,9.188439,-0.73459655,3.5389848,0.058613338,0.07937223,-0.058613338,9.873776550792314,0.11476496474575379,stand
09/07/2020, 21:37:44,9.174082,-0.6891329,3.534199,0.058613338,0.07937223,-0.058613338,9.855416971268154,0.11476496474575379,stand
09/07/2020, 21:37:44,9.174082,-0.6891329,3.534199,0.05372889,0.07204556,-0.06349778,9.855416971268154,0.11004237450003027,stand
09/07/2020, 21:37:44,9.195618,-0.66999036,3.591627,0.05372889,0.07204556,-0.06349778,9.894849932469867,0.11004237450003027,stand
09/07/2020, 21:37:44,9.195618,-0.66999036,3.591627,0.05372889,0.06594,-0.064718895,9.894849932469867,0.10688036548906252,stand
09/07/2020, 21:37:45,9.454042,-0.18903299,3.4504502,-0.013432222,-0.02198,-0.03052778,10.065796455583772,0.03994358984375415,stand
09/07/2020, 21:37:45,9.454042,-0.18903299,3.4504502,-0.037854444,-0.018316668,-0.04151778,10.065796455583772,0.05909471423026398,stand
09/07/2020, 21:37:45,9.442079,-0.19860429,3.4097722,-0.037854444,-0.018316668,-0.04151778,10.040858426284052,0.05909471423026398,stand
