DATE,TIME,ax,ay,az,gx,gy,gz,ma,mg,label
09/07/2020, 21:34:37,-1.4548361,-1.1365907,9.688539,-0.07937223,-0.07570889,-0.13432223,9.86286803567855,0.17341927993536357,stand
09/07/2020, 21:34:37,-1.4548361,-1.1365907,9.688539,0.11112112,0.06227667,-0.123332225,9.86286803567855,0.17730517204582819,stand
09/07/2020, 21:34:37,-1.0767702,-1.6965113,9.932607,0.11112112,0.06227667,-0.123332225,10.133817657617527,0.17730517204582819,stand
09/07/2020, 21:34:37,-1.0767702,-1.6965113,9.932607,0.35778558,0.15996556,-0.046402223,10.133817657617527,0.394655127608187,stand
09/07/2020, 21:34:37,-1.0169497,-1.564906,10.025927,0.35778558,0.15996556,-0.046402223,10.198152841453362,0.394655127608187,stand
09/07/2020, 21:34:37,-1.0169497,-1.564906,10.025927,0.42006224,0.16485001,-0.0024422223,10.198152841453362,0.4512579966199464,stand
09/07/2020, 21:34:37,-1.2346965,-1.2777673,10.035499,0.42006224,0.16485001,-0.0024422223,10.191584630152693,0.4512579966199464,stand
09/07/2020, 21:34:37,-1.2346965,-1.2777673,10.035499,0.29062447,0.09768889,0.012211111,10.191584630152693,0.3068465625480511,stand
09/07/2020, 21:34:37,-1.4404793,-1.1365907,9.970892,0.29062447,0.09768889,0.012211111,10.138318664537964,0.3068465625480511,stand
09/07/2020, 21:34:37,-1.4404793,-1.1365907,9.970892,0.15508112,0.059834447,0.024422223,10.138318664537964,0.1680082162544371,stand
09/07/2020, 21:34:37,-1.3926228,-1.0576276,10.095319,0.15508112,0.059834447,0.024422223,10.245654491192829,0.1680082162544371,stand
09/07/2020, 21:34:37,-1.3926228,-1.0576276,10.095319,0.12211112,0.06594,0.047623336,10.245654491192829,0.14672147505120545,stand
09/07/2020, 21:34:37,-1.2873386,-0.94755775,10.162318,0.12211112,0.06594,0.047623336,10.287264854861567,0.14672147505120545,stand
09/07/2020, 21:34:37,-1.2873386,-0.94755775,10.162318,0.081814446,0.051286668,0.037854444,10.287264854861567,0.10371540252972242,stand
09/07/2020, 21:34:37,-1.2394822,-0.7465607,10.124033,0.081814446,0.051286668,0.037854444,10.226911193874773,0.10371540252972242,stand
09/07/2020, 21:34:37,-1.2394822,-0.7465607,10.124033,-0.051286668,0.012211111,-0.0012211112,10.226911193874773,0.05273447283772198,stand
09/07/2020, 21:34:37,-1.2442678,-0.58624154,9.982856,-0.051286668,0.012211111,-0.0012211112,10.077166834890505,0.05273447283772198,stand
09/07/2020, 21:34:37,-1.2442678,-0.58624154,9.982856,-0.21613668,-0.048844445,-0.03174889,10.077166834890505,0.22385003006474385,stand
09/07/2020, 21:34:37,-1.2753744,-0.5096712,9.798609,-0.21613668,-0.048844445,-0.03174889,9.894396326072536,0.22385003006474385,stand
09/07/2020, 21:34:37,-1.2753744,-0.5096712,9.798609,-0.30894113,-0.05617111,-0.045181114,9.894396326072536,0.3172398873613822,stand
09/07/2020, 21:34:38,-8.17149,-4.0534415,3.4695928,0.018316668,0.009768889,0.08792,9.759185756471528,0.09033746936493954,stand
09/07/2020, 21:34:38,-8.17149,-4.0534415,3.4695928,0.05006556,0.028085556,0.09646778,9.759185756471528,0.1122559165318886,stand
09/07/2020, 21:34:38,-8.178668,-4.0869412,3.481557,0.05006556,0.028085556,0.09646778,9.783401132988418,0.1122559165318886,stand
09/07/2020, 21:34:38,-8.178668,-4.0869412,3.481557,0.09280445,0.04151778,0.11234222,9.783401132988418,0.15151622529530603,stand
09/07/2020, 21:34:38,-8.1738825,-4.115655,3.505485,0.09280445,0.04151778,0.11234222,9.79996918308537,0.15151622529530603,stand
09/07/2020, 21:34:38,-8.1738825,-4.115655,3.505485,0.13432223,0.051286668,0.12821667,9.79996918308537,0.19264552131428045,stand
09/07/2020, 21:34:38,-8.161918,-4.1443686,3.534199,0.13432223,0.051286668,0.12821667,9.812403089095604,0.19264552131428045,stand
09/07/2020, 21:34:38,-8.161918,-4.1443686,3.534199,0.16851334,0.06105556,0.14531223,9.812403089095604,0.23073832281946285,stand
09/07/2020, 21:34:38,-8.161918,-4.1635113,3.5533416,0.16851334,0.06105556,0.14531223,9.82740877276603,0.23073832281946285,stand
09/07/2020, 21:34:38,-8.161918,-4.1635113,3.5533416,0.19049335,0.054950003,0.16973445,9.82740877276603,0.26099233758122736,stand
09/07/2020, 21:34:38,-8.16431,-4.156333,3.562913,0.19049335,0.054950003,0.16973445,9.829822866695451,0.26099233758122736,stand
09/07/2020, 21:34:38,-8.16431,-4.156333,3.562913,0.19782001,0.04396,0.18927222,9.829822866695451,0.27728904111451175,stand
09/07/2020, 21:34:38,-8.154739,-4.139583,3.5724843,0.19782001,0.04396,0.18927222,9.818277162321701,0.27728904111451175,stand
09/07/2020, 21:34:38,-8.154739,-4.139583,3.5724843,0.19171445,0.039075557,0.20148334,9.818277162321701,0.2808502549456147,stand
09/07/2020, 21:34:38,-8.145168,-4.0941195,3.5653057,0.19171445,0.039075557,0.20148334,9.788615141692162,0.2808502549456147,stand
09/07/2020, 21:34:38,-8.145168,-4.0941195,3.5653057,0.17950334,0.02075889,0.21369445,9.788615141692162,0.27985299475890413,stand
09/07/2020, 21:34:38,-8.154739,-4.065406,3.548556,0.17950334,0.02075889,0.21369445,9.778524907327231,0.27985299475890413,stand
09/07/2020, 21:34:38,-8.154739,-4.065406,3.548556,0.16240779,0.009768889,0.21125223,9.778524907327231,0.26664437671025326,stand
09/07/2020, 21:34:38,-8.181061,-4.034299,3.522235,0.16240779,0.009768889,0.21125223,9.778111375069306,0.26664437671025326,stand
09/07/2020, 21:34:38,-8.181061,-4.034299,3.522235,0.13676445,-0.0061055557,0.21247335,9.778111375069306,0.2527582177127893,stand
09/07/2020, 21:34:39,-8.224132,-3.3762727,3.6251264,-0.13920668,0.0024422223,-0.025643334,9.600890513478516,0.14156992663433318,stand
09/07/2020, 21:34:39,-8.224132,-3.3762727,3.6251264,-0.13188,0.013432222,-0.0024422223,9.600890513478516,0.13258477857806475,stand
09/07/2020, 21:34:39,-8.152347,-3.4193435,3.6107693,-0.13188,0.013432222,-0.0024422223,9.549362270700215,0.13258477857806475,stand
09/07/2020, 21:34:39,-8.152347,-3.4193435,3.6107693,-0.12089001,0.025643334,0.019537779,9.549362270700215,0.12511474338563938,stand
09/07/2020, 21:34:39,-8.070991,-3.4408789,3.6059837,-0.12089001,0.025643334,0.019537779,9.485971470268774,0.12511474338563938,stand
09/07/2020, 21:34:39,-8.070991,-3.4408789,3.6059837,-0.10745778,0.04029667,0.037854444,9.485971470268774,0.12084682415288017,stand
09/07/2020, 21:34:39,-8.023134,-3.4528432,3.5940197,-0.10745778,0.04029667,0.037854444,9.445093236277158,0.12084682415288017,stand
09/07/2020, 21:34:39,-8.023134,-3.4528432,3.5940197,-0.08792,0.057392225,0.057392225,9.445093236277158,0.11965643220952288,stand
09/07/2020, 21:34:39,-8.01117,-3.4624143,3.5557344,-0.08792,0.057392225,0.057392225,9.423927557491849,0.11965643220952288,stand
09/07/2020, 21:34:39,-8.01117,-3.4624143,3.5557344,-0.07448778,0.068382226,0.07448778,9.423927557491849,0.12559055880179942,stand
09/07/2020, 21:34:39,-8.006385,-3.4504502,3.5126636,-0.07448778,0.068382226,0.07448778,9.399287760458861,0.12559055880179942,stand
09/07/2020, 21:34:39,-8.006385,-3.4504502,3.5126636,-0.07326667,0.08059334,0.102573335,9.399287760458861,0.14961477368572804,stand
09/07/2020, 21:34:39,-7.9704924,-3.4313076,3.4672,-0.07326667,0.08059334,0.102573335,9.344736281090114,0.14961477368572804,stand
09/07/2020, 21:34:39,-7.9704924,-3.4313076,3.4672,-0.081814446,0.08669889,0.12211112,9.344736281090114,0.17065001156266807,stand
09/07/2020, 21:34:39,-7.932207,-3.4169507,3.4408789,-0.081814446,0.08669889,0.12211112,9.297048407230479,0.17065001156266807,stand
09/07/2020, 21:34:39,-7.932207,-3.4169507,3.4408789,-0.08669889,0.09768889,0.14531223,9.297048407230479,0.19538542032386508,stand
09/07/2020, 21:34:39,-7.908279,-3.414558,3.4193435,-0.08669889,0.09768889,0.14531223,9.267793237108451,0.19538542032386508,stand
09/07/2020, 21:34:39,-7.908279,-3.414558,3.4193435,-0.09524667,0.10745778,0.16973445,9.267793237108451,0.22232608010177163,stand
09/07/2020, 21:34:39,-7.908279,-3.4241292,3.4073794,-0.09524667,0.10745778,0.16973445,9.266918108529433,0.22232608010177163,stand
09/07/2020, 21:34:39,-7.908279,-3.4241292,3.4073794,-0.09524667,0.11478445,0.20148334,9.266918108529433,0.2506849305014021,stand
09/07/2020, 21:34:40,-8.879765,-2.7397819,2.804388,-0.24666445,0.02198,-0.24300112,9.706761330183593,0.34695246736135454,stand
09/07/2020, 21:34:40,-8.879765,-2.7397819,2.804388,-0.23811668,0.03052778,-0.25643334,9.706761330183593,0.35126849586388065,stand
09/07/2020, 21:34:40,-8.896515,-2.8115666,2.7876384,-0.23811668,0.03052778,-0.25643334,9.737751892717178,0.35126849586388065,stand
09/07/2020, 21:34:40,-8.896515,-2.8115666,2.7876384,-0.2295689,0.042738892,-0.2759711,9.737751892717178,0.3615087111737091,stand
09/07/2020, 21:34:40,-8.946764,-2.87378,2.766103,-0.2295689,0.042738892,-0.2759711,9.795637981297661,0.3615087111737091,stand
09/07/2020, 21:34:40,-8.946764,-2.87378,2.766103,-0.21980001,0.04151778,-0.28940335,9.795637981297661,0.36577324811444434,stand
09/07/2020, 21:34:40,-8.977871,-2.914458,2.7397819,-0.21980001,0.04151778,-0.28940335,9.828664044703158,0.36577324811444434,stand
09/07/2020, 21:34:40,-8.977871,-2.914458,2.7397819,-0.22224224,0.04396,-0.31138334,9.828664044703158,0.3850761946227615,stand
09/07/2020, 21:34:40,-8.9826565,-2.9359934,2.7182465,-0.22224224,0.04396,-0.31138334,9.833465242390357,0.3850761946227615,stand
09/07/2020, 21:34:40,-8.9826565,-2.9359934,2.7182465,-0.22346334,0.04396,-0.32115224,9.833465242390357,0.39370942080884663,stand
09/07/2020, 21:34:40,-8.99462,-2.955136,2.6632116,-0.22346334,0.04396,-0.32115224,9.835075995494769,0.39370942080884663,stand
09/07/2020, 21:34:40,-8.99462,-2.955136,2.6632116,-0.22590557,0.048844445,-0.3382478,9.835075995494769,0.40967143345983276,stand
09/07/2020, 21:34:40,-8.970692,-2.9910283,2.6105695,-0.22590557,0.048844445,-0.3382478,9.80992520731103,0.40967143345983276,stand
09/07/2020, 21:34:40,-8.970692,-2.9910283,2.6105695,-0.21735778,0.05250778,-0.34435335,9.80992520731103,0.41058580320015053,stand
09/07/2020, 21:34:40,-8.930014,-3.0436704,2.6009982,-0.21735778,0.05250778,-0.34435335,9.786432698023095,0.41058580320015053,stand
09/07/2020, 21:34:40,-8.930014,-3.0436704,2.6009982,-0.18927222,0.06594,-0.35534334,9.786432698023095,0.4079717506350633,stand
09/07/2020, 21:34:40,-8.894122,-3.0867412,2.6201408,-0.18927222,0.06594,-0.35534334,9.772334286519458,0.4079717506350633,stand
09/07/2020, 21:34:40,-8.894122,-3.0867412,2.6201408,-0.14775445,0.085477784,-0.35534334,9.772334286519458,0.39421658818680555,stand
09/07/2020, 21:34:40,-8.841479,-3.1250265,2.6464617,-0.14775445,0.085477784,-0.35534334,9.743782956569731,0.39421658818680555,stand
09/07/2020, 21:34:40,-8.841479,-3.1250265,2.6464617,-0.11356334,0.098910004,-0.35656446,9.743782956569731,0.3870633487510498,stand
09/07/2020, 21:34:41,-8.949157,-4.3740797,2.928815,0.6935911,0.14164889,-0.054950003,10.382578516129456,0.7100370055106853,stand
09/07/2020, 21:34:41,-8.7984085,-4.3070807,2.9431717,0.6935911,0.14164889,-0.054950003,10.228645888755052,0.7100370055106853,stand
09/07/2020, 21:34:41,-8.7984085,-4.3070807,2.9431717,0.6972545,0.14164889,-0.07693,10.228645888755052,0.7156440743415444,stand
09/07/2020, 21:34:41,-8.626125,-4.2017965,2.8977082,0.6972545,0.14164889,-0.07693,10.023065652934822,0.7156440743415444,stand
09/07/2020, 21:34:41,-8.626125,-4.2017965,2.8977082,0.69114894,0.13920668,-0.109900005,10.023065652934822,0.7135428249324101,stand
09/07/2020, 21:34:41,-8.463413,-4.0701914,2.8378878,0.69114894,0.13920668,-0.109900005,9.810679309006604,0.7135428249324101,stand
09/07/2020, 21:34:41,-8.463413,-4.0701914,2.8378878,0.6789378,0.14775445,-0.14287001,9.810679309006604,0.7093657322807543,stand
09/07/2020, 21:34:41,-8.343773,-3.9601214,2.7684958,0.6789378,0.14775445,-0.14287001,9.641871003215897,0.7093657322807543,stand
09/07/2020, 21:34:41,-8.343773,-3.9601214,2.7684958,0.6667267,0.15141778,-0.16973445,9.641871003215897,0.7044583946466633,stand
09/07/2020, 21:34:41,-8.300702,-3.8907297,2.7349963,0.6667267,0.15141778,-0.16973445,9.56658964659837,0.7044583946466633,stand
09/07/2020, 21:34:41,-8.300702,-3.8907297,2.7349963,0.6447467,0.15386,-0.19537778,9.56658964659837,0.6910453763052886,stand
09/07/2020, 21:34:41,-8.29113,-3.859623,2.725425,0.6447467,0.15386,-0.19537778,9.542927673668906,0.6910453763052886,stand
09/07/2020, 21:34:41,-8.29113,-3.859623,2.725425,0.6191034,0.14287001,-0.2185789,9.542927673668906,0.6719208007279616,stand
09/07/2020, 21:34:41,-8.26481,-3.8572302,2.7469604,0.6191034,0.14287001,-0.2185789,9.525287083497396,0.6719208007279616,stand
09/07/2020, 21:34:41,-8.26481,-3.8572302,2.7469604,0.59346,0.1306589,-0.23079,9.525287083497396,0.6500235166287197,stand
09/07/2020, 21:34:41,-8.202596,-3.8835511,2.7996025,0.59346,0.1306589,-0.23079,9.497490189912204,0.6500235166287197,stand
09/07/2020, 21:34:41,-8.202596,-3.8835511,2.7996025,0.57514334,0.12455334,-0.24300112,9.497490189912204,0.6366733352430403,stand
09/07/2020, 21:34:41,-8.123632,-3.9314077,2.8833513,0.57514334,0.12455334,-0.24300112,9.474338244380887,0.6366733352430403,stand
09/07/2020, 21:34:41,-8.123632,-3.9314077,2.8833513,0.5653745,0.117226675,-0.25277,9.474338244380887,0.6303039644844636,stand
09/07/2020, 21:34:41,-8.078169,-3.9673,2.9455647,0.5653745,0.117226675,-0.25277,9.469563493317011,0.6303039644844636,stand
09/07/2020, 21:34:42,-7.8221374,-4.7832522,3.5700915,-0.05250778,0.07448778,0.5030978,9.839252411407635,0.5112855030450418,stand
09/07/2020, 21:34:42,-7.8221374,-4.7832522,3.5700915,-0.035412222,0.07326667,0.45059,9.839252411407635,0.4578792325003085,stand
09/07/2020, 21:34:42,-7.881958,-4.790431,3.5437703,-0.035412222,0.07326667,0.45059,9.880880499874177,0.4578792325003085,stand
09/07/2020, 21:34:42,-7.881958,-4.790431,3.5437703,-0.028085556,0.07448778,0.38953447,9.880880499874177,0.3975856313419548,stand
09/07/2020, 21:34:42,-7.9106717,-4.7808595,3.5365918,-0.028085556,0.07448778,0.38953447,9.896606768457042,0.3975856313419548,stand
09/07/2020, 21:34:42,-7.9106717,-4.7808595,3.5365918,-0.023201112,0.081814446,0.32481557,9.896606768457042,0.33576338461786426,stand
09/07/2020, 21:34:42,-7.925029,-4.749753,3.5437703,-0.023201112,0.081814446,0.32481557,9.895683052454364,0.33576338461786426,stand
09/07/2020, 21:34:42,-7.925029,-4.749753,3.5437703,-0.01099,0.09402556,0.24666445,9.895683052454364,0.2642062388958319,stand
09/07/2020, 21:34:42,-7.946564,-4.735396,3.5557344,-0.01099,0.09402556,0.24666445,9.91035337660884,0.2642062388958319,stand
09/07/2020, 21:34:42,-7.946564,-4.735396,3.5557344,0.0048844446,0.10501556,0.17828223,9.91035337660884,0.206970238854972,stand
09/07/2020, 21:34:42,-8.006385,-4.7162533,3.586841,0.0048844446,0.10501556,0.17828223,9.960455435816595,0.206970238854972,stand
09/07/2020, 21:34:42,-8.006385,-4.7162533,3.586841,-0.008547778,0.117226675,0.106236674,9.960455435816595,0.15843417800391582,stand
09/07/2020, 21:34:42,-8.1020975,-4.6755753,3.5964124,-0.008547778,0.117226675,0.106236674,10.021934461816196,0.15843417800391582,stand
09/07/2020, 21:34:42,-8.1020975,-4.6755753,3.5964124,-0.045181114,0.11356334,0.03174889,10.021934461816196,0.12627730016207742,stand
09/07/2020, 21:34:42,-8.2049885,-4.625326,3.615555,-0.045181114,0.11356334,0.03174889,10.088989855814047,0.12627730016207742,stand
09/07/2020, 21:34:42,-8.2049885,-4.625326,3.615555,-0.089141116,0.10379445,-0.037854444,10.088989855814047,0.14195909580213242,stand
09/07/2020, 21:34:42,-8.269595,-4.584648,3.6275191,-0.089141116,0.10379445,-0.037854444,10.127393416994238,0.14195909580213242,stand
09/07/2020, 21:34:42,-8.269595,-4.584648,3.6275191,-0.14042778,0.08425667,-0.09524667,10.127393416994238,0.1894494064192269,stand
09/07/2020, 21:34:42,-8.315059,-4.5726843,3.6394832,-0.14042778,0.08425667,-0.09524667,10.163438442742272,0.1894494064192269,stand
09/07/2020, 21:34:42,-8.315059,-4.5726843,3.6394832,-0.17584,0.070824444,-0.14775445,10.163438442742272,0.24034805092152198,stand
09/07/2020, 21:34:43,-7.834101,-4.45065,3.5605202,0.045181114,0.025643334,-0.064718895,9.688071678468305,0.08299065596096804,stand
09/07/2020, 21:34:43,-7.838887,-4.4602213,3.5533416,0.045181114,0.025643334,-0.064718895,9.693707414824253,0.08299065596096804,stand
09/07/2020, 21:34:43,-7.838887,-4.4602213,3.5533416,0.05250778,0.028085556,-0.06349778,9.693707414824253,0.08705075386811907,stand
09/07/2020, 21:34:43,-7.84128,-4.4817567,3.548556,0.05250778,0.028085556,-0.06349778,9.703817037770653,0.08705075386811907,stand
09/07/2020, 21:34:43,-7.84128,-4.4817567,3.548556,0.057392225,0.03052778,-0.058613338,9.703817037770653,0.08752905880822469,stand
09/07/2020, 21:34:43,-7.826923,-4.4841495,3.5605202,0.057392225,0.03052778,-0.058613338,9.6977122158374,0.08752905880822469,stand
09/07/2020, 21:34:43,-7.826923,-4.4841495,3.5605202,0.07204556,0.025643334,-0.051286668,9.6977122158374,0.09207858139874375,stand
09/07/2020, 21:34:43,-7.8149586,-4.476971,3.5653057,0.07204556,0.025643334,-0.051286668,9.686498488396346,0.09207858139874375,stand
09/07/2020, 21:34:43,-7.8149586,-4.476971,3.5653057,0.08303556,0.03052778,-0.05250778,9.686498488396346,0.10287816251687545,stand
09/07/2020, 21:34:43,-7.8173513,-4.4674,3.5724843,0.08303556,0.03052778,-0.05250778,9.686655210380131,0.10287816251687545,stand
09/07/2020, 21:34:43,-7.8173513,-4.4674,3.5724843,0.08303556,0.03052778,-0.054950003,9.686655210380131,0.10414582130003736,stand
09/07/2020, 21:34:43,-7.8293157,-4.462614,3.548556,0.08303556,0.03052778,-0.054950003,9.685316634187222,0.10414582130003736,stand
09/07/2020, 21:34:43,-7.8293157,-4.462614,3.548556,0.07570889,0.025643334,-0.045181114,9.685316634187222,0.0918191126307146,stand
09/07/2020, 21:34:43,-7.834101,-4.4410787,3.5365918,0.07570889,0.025643334,-0.045181114,9.674905820660221,0.0918191126307146,stand
09/07/2020, 21:34:43,-7.834101,-4.4410787,3.5365918,0.07570889,0.018316668,-0.036633335,9.674905820660221,0.08607750774737558,stand
09/07/2020, 21:34:43,-7.8460655,-4.438686,3.534199,0.07570889,0.018316668,-0.036633335,9.682625635471743,0.08607750774737558,stand
09/07/2020, 21:34:43,-7.8460655,-4.438686,3.534199,0.07448778,0.017095556,-0.034191113,9.682625635471743,0.0837240710651206,stand
09/07/2020, 21:34:43,-7.8580294,-4.4243293,3.5389848,0.07448778,0.017095556,-0.034191113,9.687503720599244,0.0837240710651206,stand
09/07/2020, 21:34:43,-7.8580294,-4.4243293,3.5389848,0.07204556,0.017095556,-0.04029667,9.687503720599244,0.08430090142409034,stand
09/07/2020, 21:34:43,-7.867601,-4.4315076,3.534199,0.07204556,0.017095556,-0.04029667,9.696801857668918,0.08430090142409034,stand
09/07/2020, 21:34:44,-7.9130645,-4.4051867,3.4695928,0.014653334,0.03174889,-0.023201112,9.698470661699972,0.04196431656868639,stand
09/07/2020, 21:34:44,-7.9130645,-4.4051867,3.4695928,0.019537779,0.028085556,-0.02075889,9.698470661699972,0.040018180102655815,stand
09/07/2020, 21:34:44,-7.9226356,-4.395615,3.4695928,0.019537779,0.028085556,-0.02075889,9.701941069778925,0.040018180102655815,stand
09/07/2020, 21:34:44,-7.9226356,-4.395615,3.4695928,0.014653334,0.024422223,-0.018316668,9.701941069778925,0.03386244944080164,stand
09/07/2020, 21:34:44,-7.9226356,-4.3740797,3.4719856,0.014653334,0.024422223,-0.018316668,9.6930599533166,0.03386244944080164,stand
09/07/2020, 21:34:44,-7.9226356,-4.3740797,3.4719856,0.0036633336,0.02198,-0.019537779,9.6930599533166,0.029635540041629656,stand
09/07/2020, 21:34:44,-7.9298143,-4.354937,3.4743786,0.0036633336,0.02198,-0.019537779,9.691168089783831,0.029635540041629656,stand
09/07/2020, 21:34:44,-7.9298143,-4.354937,3.4743786,-0.009768889,0.019537779,-0.015874445,9.691168089783831,0.027002851837355294,stand
09/07/2020, 21:34:44,-7.9298143,-4.345366,3.4648073,-0.009768889,0.019537779,-0.015874445,9.683442082316477,0.027002851837355294,stand
09/07/2020, 21:34:44,-7.9298143,-4.345366,3.4648073,-0.02075889,0.015874445,-0.018316668,9.683442082316477,0.031912847339895335,stand
09/07/2020, 21:34:44,-7.9226356,-4.3405805,3.4504502,-0.02075889,0.015874445,-0.018316668,9.67028434737639,0.031912847339895335,stand
09/07/2020, 21:34:44,-7.9226356,-4.3405805,3.4504502,-0.025643334,0.015874445,-0.02075889,9.67028434737639,0.03661297698971494,stand
09/07/2020, 21:34:44,-7.9154572,-4.342973,3.455236,-0.025643334,0.015874445,-0.02075889,9.667188602595573,0.03661297698971494,stand
09/07/2020, 21:34:44,-7.9154572,-4.342973,3.455236,-0.024422223,0.017095556,-0.018316668,9.667188602595573,0.03498861707352641,stand
09/07/2020, 21:34:44,-7.908279,-4.354937,3.4528432,-0.024422223,0.017095556,-0.018316668,9.665840825119188,0.03498861707352641,stand
09/07/2020, 21:34:44,-7.908279,-4.354937,3.4528432,-0.02075889,0.023201112,-0.02198,9.665840825119188,0.038109624917892805,stand
09/07/2020, 21:34:44,-7.9011,-4.3788652,3.4600215,-0.02075889,0.023201112,-0.02198,9.673344472148077,0.038109624917892805,stand
09/07/2020, 21:34:44,-7.9011,-4.3788652,3.4600215,-0.017095556,0.018316668,-0.02075889,9.673344472148077,0.0325375146379599,stand
09/07/2020, 21:34:44,-7.8987074,-4.388437,3.4648073,-0.017095556,0.018316668,-0.02075889,9.67744002096565,0.0325375146379599,stand
09/07/2020, 21:34:44,-7.8987074,-4.388437,3.4648073,-0.0061055557,0.015874445,-0.017095556,9.67744002096565,0.02411501357405362,stand
09/07/2020, 21:34:45,-7.9369926,-4.386044,3.4480574,0.0036633336,0.0061055557,-0.013432222,9.70166657682814,0.01520271102146125,stand
09/07/2020, 21:34:45,-7.944171,-4.3836513,3.4432719,0.0036633336,0.0061055557,-0.013432222,9.704760257680485,0.01520271102146125,stand
09/07/2020, 21:34:45,-7.944171,-4.3836513,3.4432719,0.0048844446,0.0061055557,-0.018316668,9.704760257680485,0.019915720398975656,stand
09/07/2020, 21:34:45,-7.9537425,-4.3788652,3.4360933,0.0048844446,0.0061055557,-0.018316668,9.707894622655413,0.019915720398975656,stand
09/07/2020, 21:34:45,-7.9537425,-4.3788652,3.4360933,0.0036633336,0.0048844446,-0.02198,9.707894622655413,0.022812238853926855,stand
09/07/2020, 21:34:45,-7.958528,-4.3788652,3.4337006,0.0036633336,0.0048844446,-0.02198,9.710969516304118,0.022812238853926855,stand
09/07/2020, 21:34:45,-7.958528,-4.3788652,3.4337006,0.0048844446,0.0012211112,-0.026864445,9.710969516304118,0.027332166184448593,stand
09/07/2020, 21:34:45,-7.948957,-4.3764725,3.4241292,0.0048844446,0.0012211112,-0.026864445,9.698664303221907,0.027332166184448593,stand
09/07/2020, 21:34:45,-7.948957,-4.3764725,3.4241292,0.0024422223,0.009768889,-0.028085556,9.698664303221907,0.029836120674468294,stand
09/07/2020, 21:34:45,-7.948957,-4.3764725,3.4241292,0.0024422223,0.009768889,-0.028085556,9.698664303221907,0.029836120674468294,stand
09/07/2020, 21:34:45,-7.948957,-4.3764725,3.4241292,0.0048844446,0.013432222,-0.029306669,9.698664303221907,0.032606183984473625,stand
09/07/2020, 21:34:45,-7.9393854,-4.3812585,3.4193435,0.0048844446,0.013432222,-0.029306669,9.69129384893102,0.032606183984473625,stand
09/07/2020, 21:34:45,-7.9393854,-4.3812585,3.4193435,0.014653334,0.014653334,-0.03174889,9.69129384893102,0.03791348690948278,stand
09/07/2020, 21:34:45,-7.9393854,-4.398008,3.426522,0.014653334,0.014653334,-0.03174889,9.701410572996744,0.03791348690948278,stand
09/07/2020, 21:34:45,-7.9393854,-4.398008,3.426522,0.019537779,0.018316668,-0.03297,9.701410572996744,0.042476417041036406,stand
09/07/2020, 21:34:45,-7.946564,-4.395615,3.4313076,0.019537779,0.018316668,-0.03297,9.70789298418362,0.042476417041036406,stand
09/07/2020, 21:34:45,-7.946564,-4.395615,3.4313076,0.02198,0.019537779,-0.028085556,9.70789298418362,0.04066501776299179,stand
09/07/2020, 21:34:45,-7.9537425,-4.3812585,3.4360933,0.02198,0.019537779,-0.028085556,9.708974360508085,0.04066501776299179,stand
09/07/2020, 21:34:45,-7.9537425,-4.3812585,3.4360933,0.018316668,0.014653334,-0.03297,9.708974360508085,0.040462840014143395,stand
09/07/2020, 21:34:45,-7.9680996,-4.3764725,3.4313076,0.018316668,0.014653334,-0.03297,9.71689219770218,0.040462840014143395,stand
09/07/2020, 21:34:46,-7.944171,-4.321438,3.4648073,-0.012211111,0.018316668,0.0012211112,9.684501355861398,0.022047736000621463,stand
09/07/2020, 21:34:46,-7.944171,-4.321438,3.4648073,-0.009768889,0.013432222,-0.0012211112,9.684501355861398,0.016653735600197332,stand
09/07/2020, 21:34:46,-7.944171,-4.319045,3.455236,-0.009768889,0.013432222,-0.0012211112,9.680013322697024,0.016653735600197332,stand
09/07/2020, 21:34:46,-7.944171,-4.319045,3.455236,-0.01099,0.017095556,0.0,9.680013322697024,0.020323340244745983,stand
09/07/2020, 21:34:46,-7.946564,-4.3334017,3.4624143,-0.01099,0.017095556,0.0,9.690952750170888,0.020323340244745983,stand
09/07/2020, 21:34:46,-7.946564,-4.3334017,3.4624143,-0.0048844446,0.02075889,0.0061055557,9.690952750170888,0.022182585687583127,stand
09/07/2020, 21:34:46,-7.944171,-4.3334017,3.4695928,-0.0048844446,0.02075889,0.0061055557,9.691558001541177,0.022182585687583127,stand
09/07/2020, 21:34:46,-7.944171,-4.3334017,3.4695928,-0.0036633336,0.02198,-0.0024422223,9.691558001541177,0.02241662088556366,stand
09/07/2020, 21:34:46,-7.946564,-4.3405805,3.4743786,-0.0036633336,0.02198,-0.0024422223,9.698444610479221,0.02241662088556366,stand
09/07/2020, 21:34:46,-7.946564,-4.3405805,3.4743786,0.0024422223,0.025643334,-0.0024422223,9.698444610479221,0.02587488101880824,stand
09/07/2020, 21:34:46,-7.9513497,-4.3405805,3.4767714,0.0024422223,0.025643334,-0.0024422223,9.703223197703002,0.02587488101880824,stand
09/07/2020, 21:34:46,-7.9513497,-4.3405805,3.4767714,0.0024422223,0.024422223,0.0036633336,9.703223197703002,0.024815910760914214,stand
09/07/2020, 21:34:46,-7.9537425,-4.3405805,3.4743786,0.0024422223,0.024422223,0.0036633336,9.70432713477588,0.024815910760914214,stand
09/07/2020, 21:34:46,-7.9537425,-4.3405805,3.4743786,0.0036633336,0.023201112,-0.0012211112,9.70432713477588,0.023520261687054244,stand
09/07/2020, 21:34:46,-7.960921,-4.3405805,3.4648073,0.0036633336,0.023201112,-0.0012211112,9.706790836593123,0.023520261687054244,stand
09/07/2020, 21:34:46,-7.960921,-4.3405805,3.4648073,0.0036633336,0.019537779,0.0036633336,9.706790836593123,0.020212986360438532,stand
09/07/2020, 21:34:46,-7.9537425,-4.342973,3.4624143,0.0036633336,0.019537779,0.0036633336,9.701121010393743,0.020212986360438532,stand
09/07/2020, 21:34:46,-7.9537425,-4.342973,3.4624143,-0.0012211112,0.019537779,-0.0036633336,9.701121010393743,0.019915720349010485,stand
09/07/2020, 21:34:46,-7.9657063,-4.3501515,3.4719856,-0.0012211112,0.019537779,-0.0036633336,9.717560388171707,0.019915720349010485,stand
09/07/2020, 21:34:46,-7.9657063,-4.3501515,3.4719856,-0.0024422223,0.017095556,-0.0024422223,9.717560388171707,0.01744095614313045,stand
09/07/2020, 21:34:47,-7.972885,-4.2831526,3.400201,0.0,0.015874445,-0.019537779,9.668177736825303,0.025173851701227254,stand
09/07/2020, 21:34:47,-8.01117,-4.2927237,3.37388,0.0,0.015874445,-0.019537779,9.694812685239697,0.025173851701227254,stand
09/07/2020, 21:34:47,-8.01117,-4.2927237,3.37388,-0.0012211112,0.018316668,-0.019537779,9.694812685239697,0.02680888310353711,stand
09/07/2020, 21:34:47,-7.9944205,-4.2927237,3.3786657,-0.0012211112,0.018316668,-0.019537779,9.682645185315787,0.02680888310353711,stand
09/07/2020, 21:34:47,-7.9944205,-4.2927237,3.3786657,0.0,0.012211111,-0.012211111,9.682645185315787,0.01726911931704114,stand
09/07/2020, 21:34:47,-7.9800634,-4.2951164,3.3690944,0.0,0.012211111,-0.012211111,9.668517697544498,0.01726911931704114,stand
09/07/2020, 21:34:47,-7.9800634,-4.2951164,3.3690944,-0.007326667,0.008547778,-0.013432222,9.668517697544498,0.017526242157949283,stand
09/07/2020, 21:34:47,-7.972885,-4.28076,3.37388,-0.007326667,0.008547778,-0.013432222,9.657891464092518,0.017526242157949283,stand
09/07/2020, 21:34:47,-7.972885,-4.28076,3.37388,-0.009768889,0.012211111,-0.012211111,9.657891464092518,0.019840707645166877,stand
09/07/2020, 21:34:47,-7.946564,-4.273581,3.3427732,-0.009768889,0.012211111,-0.012211111,9.622136457610448,0.019840707645166877,stand
09/07/2020, 21:34:47,-7.946564,-4.273581,3.3427732,-0.01099,0.01099,-0.014653334,9.622136457610448,0.0213607215086044,stand
09/07/2020, 21:34:47,-7.9537425,-4.3118663,3.333202,-0.01099,0.01099,-0.014653334,9.64180716855331,0.0213607215086044,stand
09/07/2020, 21:34:47,-7.9537425,-4.3118663,3.333202,-0.009768889,0.01099,-0.019537779,9.64180716855331,0.02445273188470685,stand
09/07/2020, 21:34:47,-7.9800634,-4.273581,3.3762727,-0.009768889,0.01099,-0.019537779,9.661476309686293,0.02445273188470685,stand
09/07/2020, 21:34:47,-7.9800634,-4.273581,3.3762727,-0.01099,0.012211111,-0.014653334,9.661476309686293,0.02201389463747378,stand
09/07/2020, 21:34:47,-7.984849,-4.2687955,3.37388,-0.01099,0.012211111,-0.014653334,9.662478654735834,0.02201389463747378,stand
09/07/2020, 21:34:47,-7.984849,-4.2687955,3.37388,-0.009768889,0.013432222,-0.01099,9.662478654735834,0.019915720027805825,stand
09/07/2020, 21:34:47,-7.9537425,-4.2831526,3.3619158,-0.009768889,0.013432222,-0.01099,9.638977843843865,0.019915720027805825,stand
09/07/2020, 21:34:47,-7.9537425,-4.2831526,3.3619158,-0.012211111,0.012211111,-0.019537779,9.638977843843865,0.026075798616443623,stand
09/07/2020, 21:34:47,-7.960921,-4.2759743,3.3523445,-0.012211111,0.012211111,-0.019537779,9.638383156777401,0.026075798616443623,stand
09/07/2020, 21:34:48,-7.9561353,-4.2257247,3.3714871,-0.017095556,-0.0024422223,-0.009768889,9.618927343386524,0.019840708132377885,stand
09/07/2020, 21:34:48,-7.9561353,-4.2257247,3.3714871,-0.018316668,0.0036633336,-0.009768889,9.618927343386524,0.02107964706113605,stand
09/07/2020, 21:34:48,-7.9537425,-4.237689,3.3523445,-0.018316668,0.0036633336,-0.009768889,9.61552087880167,0.02107964706113605,stand
09/07/2020, 21:34:48,-7.9537425,-4.237689,3.3523445,-0.023201112,0.0048844446,-0.017095556,9.61552087880167,0.029230248634378536,stand
09/07/2020, 21:34:48,-7.9274216,-4.24726,3.3164523,-0.023201112,0.0048844446,-0.017095556,9.585514418838445,0.029230248634378536,stand
09/07/2020, 21:34:48,-7.9274216,-4.24726,3.3164523,-0.02198,0.0036633336,-0.009768889,9.585514418838445,0.024330467318460922,stand
09/07/2020, 21:34:48,-7.905886,-4.261617,3.3260236,-0.02198,0.0036633336,-0.009768889,9.577413536562721,0.024330467318460922,stand
09/07/2020, 21:34:48,-7.905886,-4.261617,3.3260236,-0.023201112,0.0024422223,-0.007326667,9.577413536562721,0.024452731675420718,stand
09/07/2020, 21:34:48,-7.941778,-4.2999024,3.3547373,-0.023201112,0.0024422223,-0.007326667,9.634067880367741,0.024452731675420718,stand
09/07/2020, 21:34:48,-7.941778,-4.2999024,3.3547373,-0.018316668,0.0036633336,-0.01099,9.634067880367741,0.021672573211290378,stand
09/07/2020, 21:34:48,-7.972885,-4.290331,3.345166,-0.018316668,0.0036633336,-0.01099,9.652148558590644,0.021672573211290378,stand
09/07/2020, 21:34:48,-7.972885,-4.290331,3.345166,-0.013432222,0.007326667,-0.008547778,9.652148558590644,0.017526242157949283,stand
09/07/2020, 21:34:48,-7.9776707,-4.2927237,3.333202,-0.013432222,0.007326667,-0.008547778,9.653027530456841,0.017526242157949283,stand
09/07/2020, 21:34:48,-7.9776707,-4.2927237,3.333202,-0.0061055557,0.02075889,-0.008547778,9.653027530456841,0.023265292200643772,stand
09/07/2020, 21:34:48,-7.9704924,-4.316652,3.35713,-0.0061055557,0.02075889,-0.008547778,9.666051604984306,0.023265292200643772,stand
09/07/2020, 21:34:48,-7.9704924,-4.316652,3.35713,0.008547778,0.018316668,0.0,9.666051604984306,0.02021298647296504,stand
09/07/2020, 21:34:48,-7.9920278,-4.319045,3.3427732,0.008547778,0.018316668,0.0,9.679916872540053,0.02021298647296504,stand
09/07/2020, 21:34:48,-7.9920278,-4.319045,3.3427732,0.01099,0.018316668,-0.0012211112,9.679916872540053,0.021395596019074987,stand
09/07/2020, 21:34:48,-8.003992,-4.35733,3.3355947,0.01099,0.018316668,-0.0012211112,9.704452808166687,0.021395596019074987,stand
09/07/2020, 21:34:48,-8.003992,-4.35733,3.3355947,0.012211111,0.014653334,-0.0024422223,9.704452808166687,0.019230077995824955,stand
09/07/2020, 21:34:49,-7.9968133,-4.2281175,3.347559,-0.014653334,0.02198,-0.015874445,9.645317584717528,0.03081945255593188,stand
09/07/2020, 21:34:49,-7.9968133,-4.2281175,3.347559,-0.025643334,0.015874445,-0.013432222,9.645317584717528,0.033015196275035304,stand
09/07/2020, 21:34:49,-8.039884,-4.24726,3.37388,-0.025643334,0.015874445,-0.013432222,9.698557236377471,0.033015196275035304,stand
09/07/2020, 21:34:49,-8.039884,-4.24726,3.37388,-0.026864445,0.01099,-0.017095556,9.698557236377471,0.033685850963016184,stand
09/07/2020, 21:34:49,-8.068598,-4.290331,3.3834512,-0.026864445,0.01099,-0.017095556,9.744585761030427,0.033685850963016184,stand
09/07/2020, 21:34:49,-8.068598,-4.290331,3.3834512,-0.015874445,0.007326667,-0.019537779,9.744585761030427,0.026218368783959296,stand
09/07/2020, 21:34:49,-8.042277,-4.3262234,3.4169507,-0.015874445,0.007326667,-0.019537779,9.750383865889741,0.026218368783959296,stand
09/07/2020, 21:34:49,-8.042277,-4.3262234,3.4169507,-0.009768889,0.007326667,-0.02198,9.750383865889741,0.02514421760757186,stand
09/07/2020, 21:34:49,-8.015956,-4.3334017,3.4217365,-0.009768889,0.007326667,-0.02198,9.733560501784472,0.02514421760757186,stand
09/07/2020, 21:34:49,-8.015956,-4.3334017,3.4217365,-0.0024422223,0.007326667,-0.02198,9.733560501784472,0.023297315963203155,stand
09/07/2020, 21:34:49,-7.972885,-4.314259,3.4073794,-0.0024422223,0.007326667,-0.02198,9.68452181549936,0.023297315963203155,stand
09/07/2020, 21:34:49,-7.972885,-4.314259,3.4073794,-0.008547778,0.008547778,-0.025643334,9.68452181549936,0.028349772375263642,stand
09/07/2020, 21:34:49,-7.946564,-4.3262234,3.3882368,-0.008547778,0.008547778,-0.025643334,9.661482265756,0.028349772375263642,stand
09/07/2020, 21:34:49,-7.946564,-4.3262234,3.3882368,-0.017095556,0.0024422223,-0.02198,9.661482265756,0.02795251205751039,stand
09/07/2020, 21:34:49,-7.946564,-4.278367,3.3954153,-0.017095556,0.0024422223,-0.02198,9.642673498422184,0.02795251205751039,stand
09/07/2020, 21:34:49,-7.946564,-4.278367,3.3954153,-0.013432222,0.0012211112,-0.014653334,9.642673498422184,0.01991572043466507,stand
09/07/2020, 21:34:49,-7.932207,-4.24726,3.4025939,-0.013432222,0.0012211112,-0.014653334,9.61960356854093,0.01991572043466507,stand
09/07/2020, 21:34:49,-7.932207,-4.24726,3.4025939,-0.013432222,0.0048844446,-0.02198,9.61960356854093,0.026218368133319046,stand
09/07/2020, 21:34:49,-7.9154572,-4.240082,3.400201,-0.013432222,0.0048844446,-0.02198,9.601777148881109,0.026218368133319046,stand
09/07/2020, 21:34:49,-7.9154572,-4.240082,3.400201,-0.008547778,0.0061055557,-0.019537779,9.601777148881109,0.02218258584138599,stand
09/07/2020, 21:34:50,-7.9346,-3.7543387,3.9768713,0.7204556,0.01099,-0.03297,9.63682725478323,0.7212933201696053,stand
09/07/2020, 21:34:50,-7.9680996,-3.6466618,3.9050865,0.7204556,0.01099,-0.03297,9.593667381661835,0.7212933201696053,stand
09/07/2020, 21:34:50,-7.9680996,-3.6466618,3.9050865,0.6935911,-0.009768889,-0.04396,9.593667381661835,0.6950514741273759,stand
09/07/2020, 21:34:50,-7.987242,-3.5700915,3.8333018,0.6935911,-0.009768889,-0.04396,9.55174298675445,0.6950514741273759,stand
09/07/2020, 21:34:50,-7.987242,-3.5700915,3.8333018,0.6740534,-0.034191113,-0.064718895,9.55174298675445,0.6780158659090908,stand
09/07/2020, 21:34:50,-7.9968133,-3.5796626,3.76391,0.6740534,-0.034191113,-0.064718895,9.535723667785694,0.6780158659090908,stand
09/07/2020, 21:34:50,-7.9968133,-3.5796626,3.76391,0.6581789,-0.034191113,-0.081814446,9.535723667785694,0.6641250888939298,stand
09/07/2020, 21:34:50,-8.008778,-3.6011982,3.76391,0.6581789,-0.034191113,-0.081814446,9.553856095540137,0.6641250888939298,stand
09/07/2020, 21:34:50,-8.008778,-3.6011982,3.76391,0.6557367,-0.012211111,-0.07326667,9.553856095540137,0.6599300841612862,stand
09/07/2020, 21:34:50,-7.9944205,-3.6370904,3.7686956,0.6557367,-0.012211111,-0.07326667,9.557314107992516,0.6599300841612862,stand
09/07/2020, 21:34:50,-7.9944205,-3.6370904,3.7686956,0.6838223,0.0048844446,-0.058613338,9.557314107992516,0.6863470578682536,stand
09/07/2020, 21:34:50,-7.960921,-3.644269,3.859623,0.6838223,0.0048844446,-0.058613338,9.568366944247531,0.6863470578682536,stand
09/07/2020, 21:34:50,-7.960921,-3.644269,3.859623,0.7204556,0.03052778,-0.046402223,9.568366944247531,0.7225934987175824,stand
09/07/2020, 21:34:50,-7.905886,-3.6370904,3.9290147,0.7204556,0.03052778,-0.046402223,9.548225985162045,0.7225934987175824,stand
09/07/2020, 21:34:50,-7.905886,-3.6370904,3.9290147,0.75098336,0.059834447,-0.039075557,9.548225985162045,0.7543759429627425,stand
09/07/2020, 21:34:50,-7.8699937,-3.5581272,3.952943,0.75098336,0.059834447,-0.039075557,9.4985698184299,0.7543759429627425,stand
09/07/2020, 21:34:50,-7.8699937,-3.5581272,3.952943,0.7534256,0.09036223,-0.026864445,9.4985698184299,0.7593004429518426,stand
09/07/2020, 21:34:50,-7.8987074,-3.493521,3.940979,0.7534256,0.09036223,-0.026864445,9.493449464918598,0.7593004429518426,stand
09/07/2020, 21:34:50,-7.8987074,-3.493521,3.940979,0.72411895,0.09524667,-0.007326667,9.493449464918598,0.7303929487112136,stand
09/07/2020, 21:34:50,-7.944171,-3.438486,3.885944,0.72411895,0.09524667,-0.007326667,9.488603621189874,0.7303929487112136,stand
09/07/2020, 21:34:51,-8.078169,-1.4907285,5.015356,-0.0048844446,0.012211111,0.007326667,9.624597663111901,0.015054869400898356,stand
09/07/2020, 21:34:51,-8.078169,-1.4907285,5.015356,0.007326667,0.019537779,0.009768889,9.624597663111901,0.023039879374471744,stand
09/07/2020, 21:34:51,-8.118847,-1.5696917,5.0512486,0.007326667,0.019537779,0.009768889,9.689928725039518,0.023039879374471744,stand
09/07/2020, 21:34:51,-8.118847,-1.5696917,5.0512486,0.029306669,0.026864445,0.013432222,9.689928725039518,0.04196431616218089,stand
09/07/2020, 21:34:51,-8.10449,-1.5960127,5.0943193,0.029306669,0.026864445,0.013432222,9.704746717491245,0.04196431616218089,stand
09/07/2020, 21:34:51,-8.10449,-1.5960127,5.0943193,0.059834447,0.026864445,0.0061055557,9.704746717491245,0.06587212783481985,stand
09/07/2020, 21:34:51,-8.068598,-1.6486548,5.0847483,0.059834447,0.026864445,0.0061055557,9.678584504743075,0.06587212783481985,stand
09/07/2020, 21:34:51,-8.068598,-1.6486548,5.0847483,0.09768889,0.03297,0.01099,9.678584504743075,0.1036866454017184,stand
09/07/2020, 21:34:51,-8.025527,-1.6247265,5.0943193,0.09768889,0.03297,0.01099,9.643697917228227,0.1036866454017184,stand
09/07/2020, 21:34:51,-8.025527,-1.6247265,5.0943193,0.13188,0.046402223,0.007326667,9.643697917228227,0.1399970744375412,stand
09/07/2020, 21:34:51,-7.989635,-1.5744773,5.089534,0.13188,0.046402223,0.007326667,9.602947488174786,0.1399970744375412,stand
09/07/2020, 21:34:51,-7.989635,-1.5744773,5.089534,0.13554333,0.06105556,0.0061055557,9.602947488174786,0.1487852610019481,stand
09/07/2020, 21:34:51,-7.999206,-1.4739788,5.0344987,0.13554333,0.06105556,0.0061055557,9.565881461860247,0.1487852610019481,stand
09/07/2020, 21:34:51,-7.999206,-1.4739788,5.0344987,0.10867889,0.064718895,0.0036633336,9.565881461860247,0.12654270805093545,stand
09/07/2020, 21:34:51,-8.04467,-1.375873,5.015356,0.10867889,0.064718895,0.0036633336,9.579328785131148,0.12654270805093545,stand
09/07/2020, 21:34:51,-8.04467,-1.375873,5.015356,0.058613338,0.05372889,-0.0048844446,9.579328785131148,0.07966288173866028,stand
09/07/2020, 21:34:51,-8.059027,-1.3208381,5.0512486,0.058613338,0.05372889,-0.0048844446,9.602480764452487,0.07966288173866028,stand
09/07/2020, 21:34:51,-8.059027,-1.3208381,5.0512486,0.014653334,0.04151778,-0.0048844446,9.602480764452487,0.04429790063438582,stand
09/07/2020, 21:34:51,-8.078169,-1.3208381,5.1086764,0.014653334,0.04151778,-0.0048844446,9.64883414973779,0.04429790063438582,stand
09/07/2020, 21:34:51,-8.078169,-1.3208381,5.1086764,0.018316668,0.029306669,-0.0061055557,9.64883414973779,0.03509499900274144,stand
09/07/2020, 21:34:52,-8.070991,-1.0504491,5.1469617,-0.02198,-0.02075889,-0.0061055557,9.629929733275096,0.030843633659543273,stand
09/07/2020, 21:34:52,-8.070991,-1.0504491,5.1469617,0.0024422223,-0.008547778,-0.007326667,9.629929733275096,0.011519939884675864,stand
09/07/2020, 21:34:52,-8.063812,-1.1413764,5.204389,0.0024422223,-0.008547778,-0.007326667,9.665064613603468,0.011519939884675864,stand
09/07/2020, 21:34:52,-8.063812,-1.1413764,5.204389,0.035412222,-0.0048844446,-0.0024422223,9.665064613603468,0.035830820904962396,stand
09/07/2020, 21:34:52,-8.013563,-1.2083755,5.1828537,0.035412222,-0.0048844446,-0.0024422223,9.619736906870246,0.035830820904962396,stand
09/07/2020, 21:34:52,-8.013563,-1.2083755,5.1828537,0.06227667,0.0024422223,-0.0036633336,9.619736906870246,0.06243210668839574,stand
09/07/2020, 21:34:52,-7.9968133,-1.1988041,5.17089,0.06227667,0.0024422223,-0.0036633336,9.598138161350885,0.06243210668839574,stand
09/07/2020, 21:34:52,-7.9968133,-1.1988041,5.17089,0.06227667,0.007326667,-0.0012211112,9.598138161350885,0.0627180567884009,stand
09/07/2020, 21:34:52,-8.018349,-1.1485549,5.1661043,0.06227667,0.007326667,-0.0012211112,9.607378830574508,0.0627180567884009,stand
09/07/2020, 21:34:52,-8.018349,-1.1485549,5.1661043,0.05006556,0.0036633336,-0.0024422223,9.607378830574508,0.05025877635994125,stand
09/07/2020, 21:34:52,-8.020741,-1.052842,5.13739,0.05006556,0.0036633336,-0.0024422223,9.582982174125638,0.05025877635994125,stand
09/07/2020, 21:34:52,-8.020741,-1.052842,5.13739,0.028085556,0.0,-0.0012211112,9.582982174125638,0.028112089243353545,stand
09/07/2020, 21:34:52,-8.030313,-0.99302137,5.1469617,0.028085556,0.0,-0.0012211112,9.589745853126567,0.028112089243353545,stand
09/07/2020, 21:34:52,-8.030313,-0.99302137,5.1469617,0.0012211112,-0.0024422223,-0.0012211112,9.589745853126567,0.002991099262940068,stand
09/07/2020, 21:34:52,-8.006385,-0.99302137,5.168497,0.0012211112,-0.0024422223,-0.0012211112,9.581317859349403,0.002991099262940068,stand
09/07/2020, 21:34:52,-8.006385,-0.99302137,5.168497,-0.015874445,-0.0036633336,0.0,9.581317859349403,0.016291655257534142,stand
09/07/2020, 21:34:52,-8.003992,-1.0193424,5.144569,-0.015874445,-0.0036633336,0.0,9.569197331857374,0.016291655257534142,stand
09/07/2020, 21:34:52,-8.003992,-1.0193424,5.144569,-0.019537779,0.0,-0.0061055557,9.569197331857374,0.02046955304219892,stand
09/07/2020, 21:34:52,-8.020741,-1.079163,5.1876397,-0.019537779,0.0,-0.0061055557,9.612933584006976,0.02046955304219892,stand
09/07/2020, 21:34:52,-8.020741,-1.079163,5.1876397,-0.017095556,0.007326667,-0.013432222,9.612933584006976,0.022942595815824064,stand
09/07/2020, 21:34:53,-8.1020975,-4.1467614,4.1587257,-0.21003112,0.091583334,0.05372889,10.00672844157844,0.23534522054043722,stand
09/07/2020, 21:34:53,-8.1020975,-4.1467614,4.1587257,-0.10379445,0.09524667,0.059834447,10.00672844157844,0.15305351063512113,stand
09/07/2020, 21:34:53,-8.106883,-4.065406,4.132405,-0.10379445,0.09524667,0.059834447,9.966235343706645,0.15305351063512113,stand
09/07/2020, 21:34:53,-8.106883,-4.065406,4.132405,-0.04151778,0.10013112,0.06960334,9.966235343706645,0.12881999581871748,stand
09/07/2020, 21:34:53,-8.116454,-3.9146578,4.141976,-0.04151778,0.10013112,0.06960334,9.917526792370507,0.12881999581871748,stand
09/07/2020, 21:34:53,-8.116454,-3.9146578,4.141976,-0.01099,0.098910004,0.064718895,9.917526792370507,0.11871185410449665,stand
09/07/2020, 21:34:53,-8.114061,-3.749553,4.17069,-0.01099,0.098910004,0.064718895,9.863660309166479,0.11871185410449665,stand
09/07/2020, 21:34:53,-8.114061,-3.749553,4.17069,-0.0012211112,0.08792,0.06349778,9.863660309166479,0.10845914559953164,stand
09/07/2020, 21:34:53,-8.090134,-3.6179478,4.197011,-0.0012211112,0.08792,0.06349778,9.805850826860533,0.10845914559953164,stand
09/07/2020, 21:34:53,-8.090134,-3.6179478,4.197011,0.0036633336,0.085477784,0.07326667,9.805850826860533,0.11264047481470067,stand
09/07/2020, 21:34:53,-8.094919,-3.5126636,4.220939,0.0036633336,0.085477784,0.07326667,9.781761084015145,0.11264047481470067,stand
09/07/2020, 21:34:53,-8.094919,-3.5126636,4.220939,-0.0061055557,0.078151114,0.078151114,9.781761084015145,0.11069088100751617,stand
09/07/2020, 21:34:53,-8.080562,-3.4193435,4.2257247,-0.0061055557,0.078151114,0.078151114,9.738795376000997,0.11069088100751617,stand
09/07/2020, 21:34:53,-8.080562,-3.4193435,4.2257247,-0.034191113,0.070824444,0.08059334,9.738795376000997,0.11260737357584391,stand
09/07/2020, 21:34:53,-8.097312,-3.3260236,4.223332,-0.034191113,0.070824444,0.08059334,9.71933262211177,0.11260737357584391,stand
09/07/2020, 21:34:53,-8.097312,-3.3260236,4.223332,-0.078151114,0.064718895,0.09036223,9.71933262211177,0.13587297126757866,stand
09/07/2020, 21:34:53,-8.116454,-3.2638102,4.2329035,-0.078151114,0.064718895,0.09036223,9.718372094944435,0.13587297126757866,stand
09/07/2020, 21:34:53,-8.116454,-3.2638102,4.2329035,-0.13920668,0.047623336,0.091583334,9.718372094944435,0.17330316881450153,stand
09/07/2020, 21:34:53,-8.1020975,-3.2207394,4.2257247,-0.13920668,0.047623336,0.091583334,9.688854181641181,0.17330316881450153,stand
09/07/2020, 21:34:53,-8.1020975,-3.2207394,4.2257247,-0.21003112,0.026864445,0.10501556,9.688854181641181,0.23635363047975827,stand
09/07/2020, 21:34:54,-8.123632,-3.4528432,3.9984066,0.0,0.02198,-0.014653334,9.690344972797405,0.026416673482311765,stand
09/07/2020, 21:34:54,-8.123632,-3.4528432,3.9984066,0.007326667,0.025643334,-0.015874445,9.690344972797405,0.031036408268285604,stand
09/07/2020, 21:34:54,-8.116454,-3.4624143,4.019942,0.007326667,0.025643334,-0.015874445,9.696652629880514,0.031036408268285604,stand
09/07/2020, 21:34:54,-8.116454,-3.4624143,4.019942,0.012211111,0.03052778,-0.008547778,9.696652629880514,0.0339723578127377,stand
09/07/2020, 21:34:54,-8.090134,-3.4695928,4.005585,0.012211111,0.03052778,-0.008547778,9.67124861422887,0.0339723578127377,stand
09/07/2020, 21:34:54,-8.090134,-3.4695928,4.005585,0.01099,0.029306669,-0.0061055557,9.67124861422887,0.03188947715094554,stand
09/07/2020, 21:34:54,-8.078169,-3.4504502,3.9984066,0.01099,0.029306669,-0.0061055557,9.651407900530943,0.03188947715094554,stand
09/07/2020, 21:34:54,-8.078169,-3.4504502,3.9984066,0.01099,0.03052778,-0.0024422223,9.651407900530943,0.03253751524961838,stand
09/07/2020, 21:34:54,-8.085348,-3.438486,4.0103707,0.01099,0.03052778,-0.0024422223,9.65811132826274,0.03253751524961838,stand
09/07/2020, 21:34:54,-8.085348,-3.438486,4.0103707,0.0061055557,0.036633335,0.0,9.65811132826274,0.037138646278790155,stand
09/07/2020, 21:34:54,-8.082955,-3.4289148,3.9888353,0.0061055557,0.036633335,0.0,9.64377681677815,0.037138646278790155,stand
09/07/2020, 21:34:54,-8.082955,-3.4289148,3.9888353,0.0048844446,0.035412222,0.0061055557,9.64377681677815,0.03626514975985336,stand
09/07/2020, 21:34:54,-8.085348,-3.4408789,4.0271206,0.0048844446,0.035412222,0.0061055557,9.665929960670141,0.03626514975985336,stand
09/07/2020, 21:34:54,-8.085348,-3.4408789,4.0271206,0.0048844446,0.035412222,0.0024422223,9.665929960670141,0.035830820904962396,stand
09/07/2020, 21:34:54,-8.068598,-3.4648073,4.0438704,0.0048844446,0.035412222,0.0024422223,9.667473713188414,0.035830820904962396,stand
09/07/2020, 21:34:54,-8.068598,-3.4648073,4.0438704,0.014653334,0.045181114,0.0024422223,9.667473713188414,0.04756067431699901,stand
09/07/2020, 21:34:54,-8.047063,-3.5006995,4.0390844,0.014653334,0.045181114,0.0024422223,9.660451391872977,0.04756067431699901,stand
09/07/2020, 21:34:54,-8.047063,-3.5006995,4.0390844,0.019537779,0.04151778,0.007326667,9.660451391872977,0.04646644849776469,stand
09/07/2020, 21:34:54,-8.056634,-3.493521,4.0558343,0.019537779,0.04151778,0.007326667,9.672839873143818,0.04646644849776469,stand
09/07/2020, 21:34:54,-8.056634,-3.493521,4.0558343,0.024422223,0.046402223,0.012211111,9.672839873143818,0.0538397858668854,stand
09/07/2020, 21:34:55,-8.118847,-3.3714871,3.9338005,0.025643334,0.035412222,-0.0036633336,9.631063620760132,0.04387511889949512,stand
09/07/2020, 21:34:55,-8.126026,-3.35713,3.938586,0.025643334,0.035412222,-0.0036633336,9.63405848426742,0.04387511889949512,stand
09/07/2020, 21:34:55,-8.126026,-3.35713,3.938586,0.023201112,0.036633335,0.0,9.63405848426742,0.04336234335779675,stand
09/07/2020, 21:34:55,-8.149954,-3.3762727,3.926622,0.023201112,0.036633335,0.0,9.656051184771627,0.04336234335779675,stand
09/07/2020, 21:34:55,-8.149954,-3.3762727,3.926622,0.012211111,0.03174889,-0.0012211112,9.656051184771627,0.034038131931187786,stand
09/07/2020, 21:34:55,-8.140383,-3.3427732,3.9074793,0.012211111,0.03174889,-0.0012211112,9.62851798675695,0.034038131931187786,stand
09/07/2020, 21:34:55,-8.140383,-3.3427732,3.9074793,0.0024422223,0.036633335,0.0012211112,9.62851798675695,0.0367349533755902,stand
09/07/2020, 21:34:55,-8.118847,-3.3284163,3.9146578,0.0024422223,0.036633335,0.0012211112,9.60825562704599,0.0367349533755902,stand
09/07/2020, 21:34:55,-8.118847,-3.3284163,3.9146578,-0.0036633336,0.036633335,0.0048844446,9.60825562704599,0.037138646309411855,stand
09/07/2020, 21:34:55,-8.111669,-3.3140593,3.9050865,-0.0036633336,0.036633335,0.0048844446,9.593323549797091,0.037138646309411855,stand
09/07/2020, 21:34:55,-8.111669,-3.3140593,3.9050865,-0.0024422223,0.034191113,0.0012211112,9.593323549797091,0.03429996746562562,stand
09/07/2020, 21:34:55,-8.082955,-3.3643086,3.9050865,-0.0024422223,0.034191113,0.0012211112,9.586576051599462,0.03429996746562562,stand
09/07/2020, 21:34:55,-8.082955,-3.3643086,3.9050865,0.0061055557,0.04029667,-0.0024422223,9.586576051599462,0.04082969357205602,stand
09/07/2020, 21:34:55,-8.094919,-3.3882368,3.9146578,0.0061055557,0.04029667,-0.0024422223,9.608975554935588,0.04082969357205602,stand
09/07/2020, 21:34:55,-8.094919,-3.3882368,3.9146578,0.015874445,0.05006556,-0.0061055557,9.608975554935588,0.05287566516368259,stand
09/07/2020, 21:34:55,-8.078169,-3.4025939,3.9242291,0.015874445,0.05006556,-0.0061055557,9.603855037156313,0.05287566516368259,stand
09/07/2020, 21:34:55,-8.078169,-3.4025939,3.9242291,0.02198,0.057392225,-0.0036633336,9.603855037156313,0.06156628862104069,stand
09/07/2020, 21:34:55,-8.1020975,-3.4049866,3.9314077,0.02198,0.057392225,-0.0036633336,9.627766324017232,0.06156628862104069,stand
09/07/2020, 21:34:55,-8.1020975,-3.4049866,3.9314077,0.03052778,0.064718895,0.0012211112,9.627766324017232,0.07156795218560255,stand
09/07/2020, 21:34:55,-8.078169,-3.3882368,3.979264,0.03052778,0.064718895,0.0012211112,9.621408564955043,0.07156795218560255,stand
09/07/2020, 21:34:56,-8.085348,-3.3786657,3.9984066,0.008547778,0.01099,-0.009768889,9.63200352547687,0.01700811035915814,stand
09/07/2020, 21:34:56,-8.099705,-3.35713,4.0007997,0.008547778,0.01099,-0.009768889,9.637527534506583,0.01700811035915814,stand
09/07/2020, 21:34:56,-8.099705,-3.35713,4.0007997,0.0048844446,0.0061055557,-0.01099,9.637527534506583,0.01348761346452477,stand
09/07/2020, 21:34:56,-8.116454,-3.3667014,3.9888353,0.0048844446,0.0061055557,-0.01099,9.649990308809992,0.01348761346452477,stand
09/07/2020, 21:34:56,-8.116454,-3.3667014,3.9888353,0.0024422223,0.0012211112,-0.012211111,9.649990308809992,0.012512665716268013,stand
09/07/2020, 21:34:56,-8.109276,-3.3547373,4.0007997,0.0024422223,0.0012211112,-0.012211111,9.644740245696989,0.012512665716268013,stand
09/07/2020, 21:34:56,-8.109276,-3.3547373,4.0007997,-0.0012211112,0.0061055557,-0.013432222,9.644740245696989,0.014805185639321634,stand
09/07/2020, 21:34:56,-8.10449,-3.3786657,3.9816568,-0.0012211112,0.0061055557,-0.013432222,9.641148028532712,0.014805185639321634,stand
09/07/2020, 21:34:56,-8.10449,-3.3786657,3.9816568,-0.0024422223,0.0,-0.013432222,9.641148028532712,0.013652437473465331,stand
09/07/2020, 21:34:56,-8.106883,-3.3667014,4.0007997,-0.0024422223,0.0,-0.013432222,9.6468973631397,0.013652437473465331,stand
09/07/2020, 21:34:56,-8.106883,-3.3667014,4.0007997,-0.0024422223,-0.0024422223,-0.012211111,9.6468973631397,0.012690159208120645,stand
09/07/2020, 21:34:56,-8.094919,-3.3523445,4.019942,-0.0024422223,-0.0024422223,-0.012211111,9.639806159578775,0.012690159208120645,stand
09/07/2020, 21:34:56,-8.094919,-3.3523445,4.019942,-0.007326667,0.0024422223,-0.018316668,9.639806159578775,0.019878249706065353,stand
09/07/2020, 21:34:56,-8.082955,-3.3762727,4.007978,-0.007326667,0.0024422223,-0.018316668,9.633134064519325,0.019878249706065353,stand
09/07/2020, 21:34:56,-8.082955,-3.3762727,4.007978,-0.0061055557,0.0012211112,-0.013432222,9.633134064519325,0.014805185639321634,stand
09/07/2020, 21:34:56,-8.106883,-3.3643086,4.0151563,-0.0061055557,0.0012211112,-0.013432222,9.652025951179352,0.014805185639321634,stand
09/07/2020, 21:34:56,-8.106883,-3.3643086,4.0151563,-0.0061055557,0.0012211112,-0.019537779,9.652025951179352,0.02050594338756909,stand
09/07/2020, 21:34:56,-8.080562,-3.3786657,3.9888353,-0.0061055557,0.0012211112,-0.019537779,9.62401504191147,0.02050594338756909,stand
09/07/2020, 21:34:56,-8.080562,-3.3786657,3.9888353,-0.0012211112,0.0024422223,-0.018316668,9.62401504191147,0.018519067785047166,stand
09/07/2020, 21:34:56,-8.0614195,-3.37388,3.9673,-0.0012211112,0.0024422223,-0.018316668,9.59734435085372,0.018519067785047166,stand
09/07/2020, 21:34:57,-8.114061,-3.4648073,3.926622,-0.0024422223,0.017095556,-0.015874445,9.65718596532648,0.023456779815134228,stand
09/07/2020, 21:34:57,-8.16431,-3.4719856,3.9625144,-0.0024422223,0.017095556,-0.015874445,9.716592481033766,0.023456779815134228,stand
09/07/2020, 21:34:57,-8.16431,-3.4719856,3.9625144,-0.0036633336,0.023201112,-0.015874445,9.716592481033766,0.028349772756355224,stand
09/07/2020, 21:34:57,-8.130812,-3.4743786,3.9601214,-0.0036633336,0.023201112,-0.015874445,9.688341796489542,0.028349772756355224,stand
09/07/2020, 21:34:57,-8.130812,-3.4743786,3.9601214,-0.0036633336,0.023201112,-0.015874445,9.688341796489542,0.028349772756355224,stand
09/07/2020, 21:34:57,-8.126026,-3.4863427,3.9696927,-0.0036633336,0.023201112,-0.015874445,9.692540762841752,0.028349772756355224,stand
09/07/2020, 21:34:57,-8.126026,-3.4863427,3.9696927,-0.0061055557,0.024422223,-0.017095556,9.692540762841752,0.030429933054033072,stand
09/07/2020, 21:34:57,-8.116454,-3.493521,3.9768713,-0.0061055557,0.024422223,-0.017095556,9.690047539270752,0.030429933054033072,stand
09/07/2020, 21:34:57,-8.116454,-3.493521,3.9768713,-0.009768889,0.019537779,-0.018316668,9.690047539270752,0.028507127155627313,stand
09/07/2020, 21:34:57,-8.114061,-3.4408789,3.9816568,-0.009768889,0.019537779,-0.018316668,9.671154525642159,0.028507127155627313,stand
09/07/2020, 21:34:57,-8.114061,-3.4408789,3.9816568,-0.014653334,0.019537779,-0.019537779,9.671154525642159,0.03127570609696086,stand
09/07/2020, 21:34:57,-8.118847,-3.4360933,3.9601214,-0.014653334,0.019537779,-0.019537779,9.664624860853774,0.03127570609696086,stand
09/07/2020, 21:34:57,-8.118847,-3.4360933,3.9601214,-0.024422223,0.019537779,-0.026864445,9.664624860853774,0.041229457331747085,stand
09/07/2020, 21:34:57,-8.097312,-3.4456646,3.9553359,-0.024422223,0.019537779,-0.026864445,9.647991903375596,0.041229457331747085,stand
09/07/2020, 21:34:57,-8.097312,-3.4456646,3.9553359,-0.02198,0.015874445,-0.03052778,9.647991903375596,0.04082969248577089,stand
09/07/2020, 21:34:57,-8.078169,-3.4648073,3.9720855,-0.02198,0.015874445,-0.03052778,9.645681144233254,0.04082969248577089,stand
09/07/2020, 21:34:57,-8.078169,-3.4648073,3.9720855,-0.017095556,0.015874445,-0.024422223,9.645681144233254,0.03377426584547652,stand
09/07/2020, 21:34:57,-8.087741,-3.4480574,3.9960139,-0.017095556,0.015874445,-0.024422223,9.657576284282037,0.03377426584547652,stand
09/07/2020, 21:34:57,-8.087741,-3.4480574,3.9960139,-0.0061055557,0.02198,-0.029306669,9.657576284282037,0.03713864664625054,stand
09/07/2020, 21:34:57,-8.092526,-3.455236,3.9577286,-0.0061055557,0.02198,-0.029306669,9.64838097843664,0.03713864664625054,stand
09/07/2020, 21:34:58,-8.142776,-3.400201,3.912265,-0.026864445,0.012211111,-0.01099,9.652563324860258,0.03148951801224319,stand
09/07/2020, 21:34:58,-8.142776,-3.400201,3.912265,-0.02198,0.009768889,-0.01099,9.652563324860258,0.026444881057249573,stand
09/07/2020, 21:34:58,-8.135597,-3.4337006,3.8955152,-0.02198,0.009768889,-0.01099,9.651594713791846,0.026444881057249573,stand
09/07/2020, 21:34:58,-8.135597,-3.4337006,3.8955152,-0.018316668,0.009768889,-0.014653334,9.651594713791846,0.02540967760584971,stand
09/07/2020, 21:34:58,-8.12124,-3.4504502,3.9242291,-0.018316668,0.009768889,-0.014653334,9.657106942116004,0.02540967760584971,stand
09/07/2020, 21:34:58,-8.12124,-3.4504502,3.9242291,-0.007326667,0.013432222,-0.02075889,9.657106942116004,0.02578829481346165,stand
09/07/2020, 21:34:58,-8.109276,-3.4360933,3.9170506,-0.007326667,0.013432222,-0.02075889,9.639002908433024,0.02578829481346165,stand
09/07/2020, 21:34:58,-8.109276,-3.4360933,3.9170506,-0.007326667,0.015874445,-0.02075889,9.639002908433024,0.0271405520994428,stand
09/07/2020, 21:34:58,-8.106883,-3.4193435,3.9242291,-0.007326667,0.015874445,-0.02075889,9.633952300560807,0.0271405520994428,stand
09/07/2020, 21:34:58,-8.106883,-3.4193435,3.9242291,-0.01099,0.009768889,-0.018316668,9.633952300560807,0.023488542194428415,stand
09/07/2020, 21:34:58,-8.161918,-3.400201,3.912265,-0.01099,0.009768889,-0.018316668,9.6687168558257,0.023488542194428415,stand
09/07/2020, 21:34:58,-8.161918,-3.400201,3.912265,-0.017095556,0.0024422223,-0.02075889,9.6687168558257,0.027002851689949776,stand
09/07/2020, 21:34:58,-8.140383,-3.3906298,3.888337,-0.017095556,0.0024422223,-0.02075889,9.637497893058358,0.027002851689949776,stand
09/07/2020, 21:34:58,-8.140383,-3.3906298,3.888337,-0.023201112,0.007326667,-0.018316668,9.637497893058358,0.030454424076251294,stand
09/07/2020, 21:34:58,-8.128419,-3.4121652,3.912265,-0.023201112,0.007326667,-0.018316668,9.644681602274476,0.030454424076251294,stand
09/07/2020, 21:34:58,-8.128419,-3.4121652,3.912265,-0.023201112,0.009768889,-0.019537779,9.644681602274476,0.03186608814524526,stand
09/07/2020, 21:34:58,-8.092526,-3.4025939,3.9170506,-0.023201112,0.009768889,-0.019537779,9.61300756443076,0.03186608814524526,stand
09/07/2020, 21:34:58,-8.092526,-3.4025939,3.9170506,-0.02075889,0.01099,-0.017095556,9.61300756443076,0.029051155859512873,stand
09/07/2020, 21:34:58,-8.111669,-3.4121652,3.9338005,-0.02075889,0.01099,-0.017095556,9.639337343632315,0.029051155859512873,stand
09/07/2020, 21:34:58,-8.111669,-3.4121652,3.9338005,-0.01099,0.012211111,-0.017095556,9.639337343632315,0.02370968999579736,stand
09/07/2020, 21:34:59,-8.109276,-3.4576287,3.897908,-0.0048844446,0.012211111,-0.024422223,9.63894378366228,0.027738312934174704,stand
09/07/2020, 21:34:59,-8.109276,-3.4576287,3.897908,-0.009768889,0.017095556,-0.025643334,9.63894378366228,0.032330632801264,stand
09/07/2020, 21:34:59,-8.066205,-3.4121652,3.897908,-0.009768889,0.017095556,-0.025643334,9.586460304746808,0.032330632801264,stand
09/07/2020, 21:34:59,-8.066205,-3.4121652,3.897908,-0.01099,0.019537779,-0.024422223,9.586460304746808,0.03315041270818489,stand
09/07/2020, 21:34:59,-8.10449,-3.4025939,3.8380876,-0.01099,0.019537779,-0.024422223,9.591210753869573,0.03315041270818489,stand
09/07/2020, 21:34:59,-8.10449,-3.4025939,3.8380876,-0.0036633336,0.024422223,-0.02198,9.591210753869573,0.03306032979315727,stand
09/07/2020, 21:34:59,-8.128419,-3.4504502,3.8644085,-0.0036633336,0.024422223,-0.02198,9.639006880260844,0.03306032979315727,stand
09/07/2020, 21:34:59,-8.128419,-3.4504502,3.8644085,-0.0012211112,0.02198,-0.024422223,9.639006880260844,0.03287942373955234,stand
09/07/2020, 21:34:59,-8.13799,-3.4576287,3.8739798,-0.0012211112,0.02198,-0.024422223,9.653486269897192,0.03287942373955234,stand
09/07/2020, 21:34:59,-8.13799,-3.4576287,3.8739798,0.0048844446,0.024422223,-0.026864445,9.653486269897192,0.03663333399842183,stand
09/07/2020, 21:34:59,-8.149954,-3.4432719,3.912265,0.0048844446,0.024422223,-0.026864445,9.673866174137757,0.03663333399842183,stand
09/07/2020, 21:34:59,-8.149954,-3.4432719,3.912265,0.012211111,0.028085556,-0.02075889,9.673866174137757,0.036997853832656025,stand
09/07/2020, 21:34:59,-8.145168,-3.4480574,3.9170506,0.012211111,0.028085556,-0.02075889,9.67347672944519,0.036997853832656025,stand
09/07/2020, 21:34:59,-8.145168,-3.4480574,3.9170506,0.015874445,0.025643334,-0.02075889,9.67347672944519,0.03661297698971494,stand
09/07/2020, 21:34:59,-8.140383,-3.4408789,3.9218364,0.015874445,0.025643334,-0.02075889,9.668830308539789,0.03661297698971494,stand
09/07/2020, 21:34:59,-8.140383,-3.4408789,3.9218364,0.01099,0.026864445,-0.024422223,9.668830308539789,0.037933144710433554,stand
09/07/2020, 21:34:59,-8.142776,-3.4480574,3.9577286,0.01099,0.026864445,-0.024422223,9.688008526569845,0.037933144710433554,stand
09/07/2020, 21:34:59,-8.142776,-3.4480574,3.9577286,0.0061055557,0.02198,-0.019537779,9.688008526569845,0.03003536300352025,stand
09/07/2020, 21:34:59,-8.116454,-3.4672,3.952943,0.0061055557,0.02198,-0.019537779,9.670783976671455,0.03003536300352025,stand
09/07/2020, 21:34:59,-8.116454,-3.4672,3.952943,-0.0024422223,0.02198,-0.02198,9.670783976671455,0.03118020698903151,stand
09/07/2020, 21:35:00,-8.1020975,-3.4289148,3.8907297,-0.039075557,0.0012211112,-0.02198,9.619730662544784,0.044849868533465176,stand
09/07/2020, 21:35:00,-8.116454,-3.455236,3.900301,-0.039075557,0.0012211112,-0.02198,9.645093613440737,0.044849868533465176,stand
09/07/2020, 21:35:00,-8.116454,-3.455236,3.900301,-0.03174889,0.008547778,-0.015874445,9.645093613440737,0.03651102029174721,stand
09/07/2020, 21:35:00,-8.114061,-3.4672,3.8931224,-0.03174889,0.008547778,-0.015874445,9.644473552052837,0.03651102029174721,stand
09/07/2020, 21:35:00,-8.114061,-3.4672,3.8931224,-0.017095556,0.013432222,-0.019537779,9.644473552052837,0.029230248751098212,stand
09/07/2020, 21:35:00,-8.109276,-3.4528432,3.8907297,-0.017095556,0.013432222,-0.019537779,9.634327050281305,0.029230248751098212,stand
09/07/2020, 21:35:00,-8.109276,-3.4528432,3.8907297,-0.013432222,0.02198,-0.014653334,9.634327050281305,0.02963554009919138,stand
09/07/2020, 21:35:00,-8.130812,-3.4504502,3.871587,-0.013432222,0.02198,-0.014653334,9.643904365475594,0.02963554009919138,stand
09/07/2020, 21:35:00,-8.130812,-3.4504502,3.871587,-0.009768889,0.019537779,-0.009768889,9.643904365475594,0.023928794103520543,stand
09/07/2020, 21:35:00,-8.157132,-3.4193435,3.8644085,-0.009768889,0.019537779,-0.009768889,9.652169065522079,0.023928794103520543,stand
09/07/2020, 21:35:00,-8.157132,-3.4193435,3.8644085,-0.008547778,0.018316668,-0.014653334,9.652169065522079,0.024965677059144688,stand
09/07/2020, 21:35:00,-8.147561,-3.400201,3.8620157,-0.008547778,0.018316668,-0.014653334,9.636352229792735,0.024965677059144688,stand
09/07/2020, 21:35:00,-8.147561,-3.400201,3.8620157,-0.01099,0.015874445,-0.007326667,9.636352229792735,0.020650863842561915,stand
09/07/2020, 21:35:00,-8.126026,-3.3930225,3.8500516,-0.01099,0.015874445,-0.007326667,9.610816855424696,0.020650863842561915,stand
09/07/2020, 21:35:00,-8.126026,-3.3930225,3.8500516,-0.012211111,0.01099,-0.0048844446,9.610816855424696,0.017139111637224848,stand
09/07/2020, 21:35:00,-8.111669,-3.400201,3.859623,-0.012211111,0.01099,-0.0048844446,9.605062416132641,0.017139111637224848,stand
09/07/2020, 21:35:00,-8.111669,-3.400201,3.859623,-0.008547778,0.015874445,-0.0048844446,9.605062416132641,0.0186794092601458,stand
09/07/2020, 21:35:00,-8.118847,-3.4289148,3.859623,-0.008547778,0.015874445,-0.0048844446,9.621321158744347,0.0186794092601458,stand
09/07/2020, 21:35:00,-8.118847,-3.4289148,3.859623,-0.007326667,0.017095556,-0.0036633336,9.621321158744347,0.018956743304761988,stand
09/07/2020, 21:35:00,-8.10449,-3.4480574,3.8261235,-0.007326667,0.017095556,-0.0036633336,9.602660229276369,0.018956743304761988,stand
09/07/2020, 21:35:01,-8.157132,-3.345166,3.842873,0.015874445,0.03174889,-0.034191113,9.617515993262842,0.04928511231285085,stand
09/07/2020, 21:35:01,-8.157132,-3.345166,3.842873,0.012211111,0.03052778,-0.029306669,9.617515993262842,0.04404472065928628,stand
09/07/2020, 21:35:01,-8.166703,-3.3882368,3.8739798,0.012211111,0.03052778,-0.029306669,9.653129515621286,0.04404472065928628,stand
09/07/2020, 21:35:01,-8.166703,-3.3882368,3.8739798,0.009768889,0.026864445,-0.02075889,9.653129515621286,0.03532790812295011,stand
09/07/2020, 21:35:01,-8.176275,-3.385844,3.8739798,0.009768889,0.026864445,-0.02075889,9.660390059499163,0.03532790812295011,stand
09/07/2020, 21:35:01,-8.176275,-3.385844,3.8739798,0.0061055557,0.02075889,-0.02075889,9.660390059499163,0.029985676687183004,stand
09/07/2020, 21:35:01,-8.181061,-3.3523445,3.8691943,0.0061055557,0.02075889,-0.02075889,9.65083590640656,0.029985676687183004,stand
09/07/2020, 21:35:01,-8.181061,-3.3523445,3.8691943,0.0036633336,0.02075889,-0.024422223,9.65083590640656,0.032261377451939056,stand
09/07/2020, 21:35:01,-8.169097,-3.3499517,3.8476589,0.0036633336,0.02075889,-0.024422223,9.63124085528146,0.032261377451939056,stand
09/07/2020, 21:35:01,-8.169097,-3.3499517,3.8476589,0.0036633336,0.017095556,-0.018316668,9.63124085528146,0.025321500228057858,stand
09/07/2020, 21:35:01,-8.181061,-3.3619158,3.8644085,0.0036633336,0.017095556,-0.018316668,9.652247753443739,0.025321500228057858,stand
09/07/2020, 21:35:01,-8.181061,-3.3619158,3.8644085,0.013432222,0.018316668,-0.018316668,9.652247753443739,0.029179191518719567,stand
09/07/2020, 21:35:01,-8.183454,-3.3786657,3.871587,0.013432222,0.018316668,-0.018316668,9.662995403867948,0.029179191518719567,stand
09/07/2020, 21:35:01,-8.183454,-3.3786657,3.871587,0.023201112,0.019537779,-0.012211111,9.662995403867948,0.032697516982163374,stand
09/07/2020, 21:35:01,-8.190632,-3.3954153,3.8763726,0.023201112,0.019537779,-0.012211111,9.676856918376538,0.032697516982163374,stand
09/07/2020, 21:35:01,-8.190632,-3.3954153,3.8763726,0.026864445,0.018316668,-0.012211111,9.676856918376538,0.03473197297426585,stand
09/07/2020, 21:35:01,-8.219346,-3.3690944,3.8620157,0.026864445,0.018316668,-0.012211111,9.686258915141154,0.03473197297426585,stand
09/07/2020, 21:35:01,-8.219346,-3.3690944,3.8620157,0.028085556,0.012211111,-0.009768889,9.686258915141154,0.03214562004422006,stand
09/07/2020, 21:35:01,-8.216953,-3.3762727,3.8476589,0.028085556,0.012211111,-0.009768889,9.681013230273816,0.03214562004422006,stand
09/07/2020, 21:35:01,-8.216953,-3.3762727,3.8476589,0.025643334,0.007326667,-0.015874445,9.681013230273816,0.031036408268285604,stand
09/07/2020, 21:35:02,-8.228917,-3.385844,3.802195,-0.015874445,0.009768889,0.0024422223,9.676554340543715,0.018798767664882088,stand
09/07/2020, 21:35:02,-8.228917,-3.385844,3.802195,-0.018316668,0.01099,-0.0012211112,9.676554340543715,0.021395596019074987,stand
09/07/2020, 21:35:02,-8.23131,-3.4169507,3.7950168,-0.018316668,0.01099,-0.0012211112,9.686700515299927,0.021395596019074987,stand
09/07/2020, 21:35:02,-8.23131,-3.4169507,3.7950168,-0.015874445,0.01099,-0.0024422223,9.686700515299927,0.019461309696289605,stand
09/07/2020, 21:35:02,-8.207381,-3.4169507,3.8069808,-0.015874445,0.01099,-0.0024422223,9.67107864933793,0.019461309696289605,stand
09/07/2020, 21:35:02,-8.207381,-3.4169507,3.8069808,-0.01099,0.008547778,-0.0036633336,9.67107864933793,0.01439668827086979,stand
09/07/2020, 21:35:02,-8.200203,-3.4241292,3.802195,-0.01099,0.008547778,-0.0036633336,9.665644146141434,0.01439668827086979,stand
09/07/2020, 21:35:02,-8.200203,-3.4241292,3.802195,-0.009768889,0.0061055557,-0.0036633336,9.665644146141434,0.01208838372889993,stand
09/07/2020, 21:35:02,-8.188239,-3.4049866,3.7830527,-0.009768889,0.0061055557,-0.0036633336,9.641197073125342,0.01208838372889993,stand
09/07/2020, 21:35:02,-8.188239,-3.4049866,3.7830527,-0.01099,0.008547778,-0.008547778,9.641197073125342,0.016337353916028925,stand
09/07/2020, 21:35:02,-8.188239,-3.3954153,3.792624,-0.01099,0.008547778,-0.008547778,9.64158189307301,0.016337353916028925,stand
09/07/2020, 21:35:02,-8.188239,-3.3954153,3.792624,-0.007326667,0.0048844446,-0.0024422223,9.64158189307301,0.009137959375712811,stand
09/07/2020, 21:35:02,-8.190632,-3.3810585,3.778267,-0.007326667,0.0048844446,-0.0024422223,9.632928291188543,0.009137959375712811,stand
09/07/2020, 21:35:02,-8.190632,-3.3810585,3.778267,-0.017095556,0.0,-0.01099,9.632928291188543,0.020323340244745983,stand
09/07/2020, 21:35:02,-8.1738825,-3.3810585,3.76391,-0.017095556,0.0,-0.01099,9.61306038915528,0.020323340244745983,stand
09/07/2020, 21:35:02,-8.1738825,-3.3810585,3.76391,-0.017095556,0.0012211112,-0.013432222,9.61306038915528,0.021775531291308426,stand
09/07/2020, 21:35:02,-8.1738825,-3.3834512,3.7878382,-0.017095556,0.0012211112,-0.013432222,9.623295456117281,0.021775531291308426,stand
09/07/2020, 21:35:02,-8.1738825,-3.3834512,3.7878382,-0.014653334,0.0024422223,-0.007326667,9.623295456117281,0.016563958190864838,stand
09/07/2020, 21:35:02,-8.169097,-3.3523445,3.7974095,-0.014653334,0.0024422223,-0.007326667,9.612110997624287,0.016563958190864838,stand
09/07/2020, 21:35:02,-8.169097,-3.3523445,3.7974095,-0.013432222,0.0036633336,-0.012211111,9.612110997624287,0.018519067286094235,stand
09/07/2020, 21:35:03,-8.240881,-3.249453,3.8524444,-0.023201112,0.023201112,-0.028085556,9.659833967164994,0.043190063877849995,stand
09/07/2020, 21:35:03,-8.2456665,-3.2805598,3.8356948,-0.023201112,0.023201112,-0.028085556,9.667763085286895,0.043190063877849995,stand
09/07/2020, 21:35:03,-8.2456665,-3.2805598,3.8356948,-0.015874445,0.023201112,-0.023201112,9.667763085286895,0.03644970763380064,stand
09/07/2020, 21:35:03,-8.228917,-3.2638102,3.8333018,-0.015874445,0.023201112,-0.023201112,9.646851108078499,0.03644970763380064,stand
09/07/2020, 21:35:03,-8.228917,-3.2638102,3.8333018,-0.013432222,0.019537779,-0.023201112,9.646851108078499,0.033172895184253474,stand
09/07/2020, 21:35:03,-8.2049885,-3.2350962,3.8141594,-0.013432222,0.019537779,-0.023201112,9.609136035891305,0.033172895184253474,stand
09/07/2020, 21:35:03,-8.2049885,-3.2350962,3.8141594,-0.014653334,0.014653334,-0.019537779,9.609136035891305,0.028480962224433203,stand
09/07/2020, 21:35:03,-8.226524,-3.2303107,3.802195,-0.014653334,0.014653334,-0.019537779,9.621190018772728,0.028480962224433203,stand
09/07/2020, 21:35:03,-8.226524,-3.2303107,3.802195,-0.015874445,0.008547778,-0.014653334,9.621190018772728,0.02323322490969692,stand
09/07/2020, 21:35:03,-8.221739,-3.2566316,3.8069808,-0.015874445,0.008547778,-0.014653334,9.627862784018905,0.02323322490969692,stand
09/07/2020, 21:35:03,-8.221739,-3.2566316,3.8069808,-0.012211111,0.007326667,-0.008547778,9.627862784018905,0.016608907431630588,stand
09/07/2020, 21:35:03,-8.200203,-3.278167,3.7758741,-0.012211111,0.007326667,-0.008547778,9.604526679361632,0.016608907431630588,stand
09/07/2020, 21:35:03,-8.200203,-3.278167,3.7758741,-0.007326667,0.0012211112,-0.0036633336,9.604526679361632,0.008281979095432419,stand
09/07/2020, 21:35:03,-8.188239,-3.2566316,3.7423747,-0.007326667,0.0012211112,-0.0036633336,9.573832934929783,0.008281979095432419,stand
09/07/2020, 21:35:03,-8.188239,-3.2566316,3.7423747,-0.0048844446,0.0036633336,-0.0024422223,9.573832934929783,0.006575884913070328,stand
09/07/2020, 21:35:03,-8.2145605,-3.2685957,3.76391,-0.0048844446,0.0036633336,-0.0024422223,9.608836614049848,0.006575884913070328,stand
09/07/2020, 21:35:03,-8.2145605,-3.2685957,3.76391,0.0012211112,0.0012211112,0.0048844446,9.608836614049848,0.005180735893894018,stand
09/07/2020, 21:35:03,-8.200203,-3.2614172,3.7567315,0.0012211112,0.0012211112,0.0048844446,9.591308657178189,0.005180735893894018,stand
09/07/2020, 21:35:03,-8.200203,-3.2614172,3.7567315,0.007326667,-0.0012211112,0.01099,9.591308657178189,0.013264662526222135,stand
09/07/2020, 21:35:03,-8.2145605,-3.2685957,3.7806597,0.007326667,-0.0012211112,0.01099,9.615410014911498,0.013264662526222135,stand
09/07/2020, 21:35:04,-8.212168,-3.2709885,3.7208393,0.02075889,-0.013432222,-0.025643334,9.59081379943241,0.035622137290915595,stand
09/07/2020, 21:35:04,-8.212168,-3.2709885,3.7208393,0.024422223,-0.008547778,-0.029306669,9.59081379943241,0.03909463278119406,stand
09/07/2020, 21:35:04,-8.207381,-3.2877383,3.737589,0.024422223,-0.008547778,-0.029306669,9.598953114475838,0.03909463278119406,stand
09/07/2020, 21:35:04,-8.207381,-3.2877383,3.737589,0.034191113,-0.0061055557,-0.024422223,9.598953114475838,0.04245886220837402,stand
09/07/2020, 21:35:04,-8.2145605,-3.3212378,3.735196,0.034191113,-0.0061055557,-0.024422223,9.61568067789778,0.04245886220837402,stand
09/07/2020, 21:35:04,-8.2145605,-3.3212378,3.735196,0.035412222,-0.0012211112,-0.03052778,9.61568067789778,0.04677031036196927,stand
09/07/2020, 21:35:04,-8.240881,-3.3403804,3.7734814,0.035412222,-0.0012211112,-0.03052778,9.659680230721545,0.04677031036196927,stand
09/07/2020, 21:35:04,-8.240881,-3.3403804,3.7734814,0.039075557,-0.0012211112,-0.024422223,9.659680230721545,0.04609593520513147,stand
09/07/2020, 21:35:04,-8.262417,-3.330809,3.7663028,0.039075557,-0.0012211112,-0.024422223,9.671962487684363,0.04609593520513147,stand
09/07/2020, 21:35:04,-8.262417,-3.330809,3.7663028,0.036633335,-0.009768889,-0.035412222,9.671962487684363,0.051879262836274184,stand
09/07/2020, 21:35:04,-8.283952,-3.333202,3.7471602,0.036633335,-0.009768889,-0.035412222,9.683764820330449,0.051879262836274184,stand
09/07/2020, 21:35:04,-8.283952,-3.333202,3.7471602,0.023201112,-0.01099,-0.042738892,9.683764820330449,0.0498566404076936,stand
09/07/2020, 21:35:04,-8.286345,-3.306881,3.792624,0.023201112,-0.01099,-0.042738892,9.694481112685555,0.0498566404076936,stand
09/07/2020, 21:35:04,-8.286345,-3.306881,3.792624,0.013432222,-0.014653334,-0.039075557,9.694481112685555,0.04384112195144441,stand
09/07/2020, 21:35:04,-8.303095,-3.2829528,3.7734814,0.013432222,-0.014653334,-0.039075557,9.69321025011232,0.04384112195144441,stand
09/07/2020, 21:35:04,-8.303095,-3.2829528,3.7734814,0.007326667,-0.02198,-0.04029667,9.69321025011232,0.04648249238471072,stand
09/07/2020, 21:35:04,-8.303095,-3.251846,3.7567315,0.007326667,-0.02198,-0.04029667,9.676203741865908,0.04648249238471072,stand
09/07/2020, 21:35:04,-8.303095,-3.251846,3.7567315,0.0012211112,-0.028085556,-0.05250778,9.676203741865908,0.059559689168551234,stand
09/07/2020, 21:35:04,-8.286345,-3.2422748,3.7591243,0.0012211112,-0.028085556,-0.05250778,9.659547950719508,0.059559689168551234,stand
09/07/2020, 21:35:04,-8.286345,-3.2422748,3.7591243,-0.009768889,-0.03297,-0.05617111,9.659547950719508,0.06586080699751884,stand
09/07/2020, 21:35:05,-8.116454,-3.3954153,3.9242291,0.013432222,0.018316668,-0.034191113,9.63354799842778,0.0410482291238236,stand
09/07/2020, 21:35:05,-8.116454,-3.3954153,3.9242291,0.01099,0.013432222,-0.034191113,9.63354799842778,0.03834366847551464,stand
09/07/2020, 21:35:05,-8.106883,-3.3643086,3.9338005,0.01099,0.013432222,-0.034191113,9.618467193251998,0.03834366847551464,stand
09/07/2020, 21:35:05,-8.106883,-3.3643086,3.9338005,0.0061055557,0.015874445,-0.04029667,9.618467193251998,0.04373896941283689,stand
09/07/2020, 21:35:05,-8.111669,-3.3619158,3.9457645,0.0061055557,0.015874445,-0.04029667,9.626562372175338,0.04373896941283689,stand
09/07/2020, 21:35:05,-8.111669,-3.3619158,3.9457645,0.009768889,0.013432222,-0.03052778,9.626562372175338,0.034753433477499776,stand
09/07/2020, 21:35:05,-8.092526,-3.3523445,3.9553359,0.009768889,0.013432222,-0.03052778,9.611029059267118,0.034753433477499776,stand
09/07/2020, 21:35:05,-8.092526,-3.3523445,3.9553359,0.0061055557,0.015874445,-0.029306669,9.611029059267118,0.03388446050456582,stand
09/07/2020, 21:35:05,-8.118847,-3.3786657,3.940979,0.0061055557,0.015874445,-0.029306669,9.636512450137856,0.03388446050456582,stand
09/07/2020, 21:35:05,-8.118847,-3.3786657,3.940979,0.008547778,0.015874445,-0.028085556,9.636512450137856,0.03337455587717695,stand
09/07/2020, 21:35:05,-8.123632,-3.4025939,3.9481573,0.008547778,0.015874445,-0.028085556,9.651890744216987,0.03337455587717695,stand
09/07/2020, 21:35:05,-8.123632,-3.4025939,3.9481573,0.0061055557,0.018316668,-0.025643334,9.651890744216987,0.03209920073061969,stand
09/07/2020, 21:35:05,-8.140383,-3.4121652,3.926622,0.0061055557,0.018316668,-0.025643334,9.66059327145336,0.03209920073061969,stand
09/07/2020, 21:35:05,-8.140383,-3.4121652,3.926622,0.012211111,0.017095556,-0.025643334,9.66059327145336,0.03315041267387918,stand
09/07/2020, 21:35:05,-8.140383,-3.3930225,3.9433718,0.012211111,0.017095556,-0.025643334,9.660673603076557,0.03315041267387918,stand
09/07/2020, 21:35:05,-8.140383,-3.3930225,3.9433718,0.014653334,0.018316668,-0.024422223,9.660673603076557,0.03386244944080164,stand
09/07/2020, 21:35:05,-8.135597,-3.4217365,3.9601214,0.014653334,0.018316668,-0.024422223,9.673612781782952,0.03386244944080164,stand
09/07/2020, 21:35:05,-8.135597,-3.4217365,3.9601214,0.019537779,0.02075889,-0.023201112,9.673612781782952,0.036755242808009826,stand
09/07/2020, 21:35:05,-8.118847,-3.4241292,3.9720855,0.019537779,0.02075889,-0.023201112,9.665288356265608,0.036755242808009826,stand
09/07/2020, 21:35:05,-8.118847,-3.4241292,3.9720855,0.017095556,0.015874445,-0.02075889,9.665288356265608,0.031227993331280707,stand
09/07/2020, 21:35:06,-8.114061,-3.3786657,3.9026937,-0.025643334,0.009768889,-0.04029667,9.616880574910194,0.04875277820750792,stand
09/07/2020, 21:35:06,-8.114061,-3.3786657,3.9026937,-0.029306669,0.0024422223,-0.04151778,9.616880574910194,0.050878003868156094,stand
09/07/2020, 21:35:06,-8.087741,-3.385844,3.8907297,-0.029306669,0.0024422223,-0.04151778,9.592354752982189,0.050878003868156094,stand
09/07/2020, 21:35:06,-8.087741,-3.385844,3.8907297,-0.028085556,0.009768889,-0.039075557,9.592354752982189,0.049103246461214146,stand
09/07/2020, 21:35:06,-8.087741,-3.3762727,3.912265,-0.028085556,0.009768889,-0.039075557,9.59773868950443,0.049103246461214146,stand
09/07/2020, 21:35:06,-8.087741,-3.3762727,3.912265,-0.023201112,0.013432222,-0.037854444,9.59773868950443,0.04638615237104407,stand
09/07/2020, 21:35:06,-8.073383,-3.3619158,3.9481573,-0.023201112,0.013432222,-0.037854444,9.595308363409066,0.04638615237104407,stand
09/07/2020, 21:35:06,-8.073383,-3.3619158,3.9481573,-0.015874445,0.014653334,-0.03297,9.595308363409066,0.03941749777311115,stand
09/07/2020, 21:35:06,-8.094919,-3.3619158,3.9361932,-0.015874445,0.014653334,-0.03297,9.608528091420215,0.03941749777311115,stand
09/07/2020, 21:35:06,-8.094919,-3.3619158,3.9361932,-0.012211111,0.013432222,-0.029306669,9.608528091420215,0.03447341984128861,stand
09/07/2020, 21:35:06,-8.161918,-3.359523,3.9218364,-0.012211111,0.013432222,-0.029306669,9.658369223580703,0.03447341984128861,stand
09/07/2020, 21:35:06,-8.161918,-3.359523,3.9218364,-0.01099,0.012211111,-0.025643334,9.658369223580703,0.030454423590797062,stand
09/07/2020, 21:35:06,-8.154739,-3.3379877,3.9098723,-0.01099,0.012211111,-0.025643334,9.639970815955653,0.030454423590797062,stand
09/07/2020, 21:35:06,-8.154739,-3.3379877,3.9098723,-0.014653334,0.019537779,-0.014653334,9.639970815955653,0.028480962224433203,stand
09/07/2020, 21:35:06,-8.149954,-3.345166,3.926622,-0.014653334,0.019537779,-0.014653334,9.645218641236648,0.028480962224433203,stand
09/07/2020, 21:35:06,-8.149954,-3.345166,3.926622,-0.014653334,0.02075889,-0.008547778,9.645218641236648,0.026808883225496287,stand
09/07/2020, 21:35:06,-8.159525,-3.359523,3.9170506,-0.014653334,0.02075889,-0.008547778,9.654404562745341,0.026808883225496287,stand
09/07/2020, 21:35:06,-8.159525,-3.359523,3.9170506,-0.0061055557,0.019537779,-0.008547778,9.654404562745341,0.02218258584138599,stand
09/07/2020, 21:35:06,-8.17149,-3.3403804,3.9074793,-0.0061055557,0.019537779,-0.008547778,9.654003312740693,0.02218258584138599,stand
09/07/2020, 21:35:06,-8.17149,-3.3403804,3.9074793,-0.0048844446,0.023201112,-0.007326667,9.654003312740693,0.02481591094422377,stand
09/07/2020, 21:35:07,-8.176275,-3.4528432,3.8835511,0.008547778,0.02075889,-0.019537779,9.687908567625815,0.029761061849876595,stand
09/07/2020, 21:35:07,-8.159525,-3.414558,3.888337,0.008547778,0.02075889,-0.019537779,9.662102079157995,0.029761061849876595,stand
09/07/2020, 21:35:07,-8.159525,-3.414558,3.888337,-0.0012211112,0.023201112,-0.015874445,9.662102079157995,0.028138598308190425,stand
09/07/2020, 21:35:07,-8.161918,-3.3810585,3.900301,-0.0012211112,0.023201112,-0.015874445,9.657163368453764,0.028138598308190425,stand
09/07/2020, 21:35:07,-8.161918,-3.3810585,3.900301,-0.008547778,0.017095556,-0.018316668,9.657163368453764,0.02647305939268297,stand
09/07/2020, 21:35:07,-8.190632,-3.400201,3.8620157,-0.008547778,0.017095556,-0.018316668,9.67279603967823,0.02647305939268297,stand
09/07/2020, 21:35:07,-8.190632,-3.400201,3.8620157,-0.009768889,0.009768889,-0.017095556,9.67279603967823,0.02198000107374456,stand
09/07/2020, 21:35:07,-8.219346,-3.4313076,3.8548372,-0.009768889,0.009768889,-0.017095556,9.705219762637734,0.02198000107374456,stand
09/07/2020, 21:35:07,-8.219346,-3.4313076,3.8548372,-0.013432222,0.007326667,-0.02198,9.705219762637734,0.02678105823752776,stand
09/07/2020, 21:35:07,-8.248059,-3.4528432,3.8620157,-0.013432222,0.007326667,-0.02198,9.740008896832215,0.02678105823752776,stand
09/07/2020, 21:35:07,-8.248059,-3.4528432,3.8620157,-0.0036633336,0.008547778,-0.034191113,9.740008896832215,0.03543327153574941,stand
09/07/2020, 21:35:07,-8.238488,-3.4432719,3.900301,-0.0036633336,0.008547778,-0.034191113,9.743775280499014,0.03543327153574941,stand
09/07/2020, 21:35:07,-8.238488,-3.4432719,3.900301,0.0061055557,0.019537779,-0.034191113,9.743775280499014,0.03985015442324414,stand
09/07/2020, 21:35:07,-8.2145605,-3.438486,3.9242291,0.0061055557,0.019537779,-0.034191113,9.731483206022748,0.03985015442324414,stand
09/07/2020, 21:35:07,-8.2145605,-3.438486,3.9242291,0.0036633336,0.01099,-0.04029667,9.731483206022748,0.041928769805207496,stand
09/07/2020, 21:35:07,-8.188239,-3.4025939,3.912265,0.0036633336,0.01099,-0.04029667,9.691786334458866,0.041928769805207496,stand
09/07/2020, 21:35:07,-8.188239,-3.4025939,3.912265,0.0048844446,0.0036633336,-0.039075557,9.691786334458866,0.03954967735038114,stand
09/07/2020, 21:35:07,-8.147561,-3.400201,3.8955152,0.0048844446,0.0036633336,-0.039075557,9.649826814161676,0.03954967735038114,stand
09/07/2020, 21:35:07,-8.147561,-3.400201,3.8955152,-0.0024422223,0.0012211112,-0.035412222,9.649826814161676,0.035517334355517,stand
09/07/2020, 21:35:07,-8.111669,-3.35713,3.926622,-0.0024422223,0.0012211112,-0.035412222,9.617060314503297,0.035517334355517,stand
09/07/2020, 21:35:08,-8.188239,-3.4528432,3.8548372,-0.0061055557,0.035412222,-0.015874445,9.686545064515183,0.039284873750747365,stand
09/07/2020, 21:35:08,-8.188239,-3.4528432,3.8548372,-0.0036633336,0.036633335,-0.02198,9.686545064515183,0.04287821917049184,stand
09/07/2020, 21:35:08,-8.188239,-3.4456646,3.8907297,-0.0036633336,0.036633335,-0.02198,9.698331902546808,0.04287821917049184,stand
09/07/2020, 21:35:08,-8.188239,-3.4456646,3.8907297,-0.009768889,0.03297,-0.02198,9.698331902546808,0.04081142647264785,stand
09/07/2020, 21:35:08,-8.17149,-3.426522,3.9050865,-0.009768889,0.03297,-0.02198,9.683181192633091,0.04081142647264785,stand
09/07/2020, 21:35:08,-8.17149,-3.426522,3.9050865,-0.015874445,0.03174889,-0.03174889,9.683181192633091,0.04762333631515503,stand
09/07/2020, 21:35:08,-8.154739,-3.3834512,3.9457645,-0.015874445,0.03174889,-0.03174889,9.670396804304952,0.04762333631515503,stand
09/07/2020, 21:35:08,-8.154739,-3.3834512,3.9457645,-0.025643334,0.024422223,-0.03297,9.670396804304952,0.04838436147999957,stand
09/07/2020, 21:35:08,-8.142776,-3.385844,3.9314077,-0.025643334,0.024422223,-0.03297,9.655293853011907,0.04838436147999957,stand
09/07/2020, 21:35:08,-8.142776,-3.385844,3.9314077,-0.03297,0.019537779,-0.03174889,9.655293853011907,0.04976683400876425,stand
09/07/2020, 21:35:08,-8.145168,-3.385844,3.9146578,-0.03297,0.019537779,-0.03174889,9.650505281215272,0.04976683400876425,stand
09/07/2020, 21:35:08,-8.145168,-3.385844,3.9146578,-0.037854444,0.012211111,-0.03174889,9.650505281215272,0.050892654295895415,stand
09/07/2020, 21:35:08,-8.17149,-3.3906298,3.9026937,-0.037854444,0.012211111,-0.03174889,9.669572528933926,0.050892654295895415,stand
09/07/2020, 21:35:08,-8.17149,-3.3906298,3.9026937,-0.037854444,0.0012211112,-0.034191113,9.669572528933926,0.05102433014414959,stand
09/07/2020, 21:35:08,-8.1738825,-3.3906298,3.9290147,-0.037854444,0.0012211112,-0.034191113,9.682245683360767,0.05102433014414959,stand
09/07/2020, 21:35:08,-8.1738825,-3.3906298,3.9290147,-0.028085556,0.0036633336,-0.03174889,9.682245683360767,0.04254656900525128,stand
09/07/2020, 21:35:08,-8.157132,-3.3954153,3.9481573,-0.028085556,0.0036633336,-0.03174889,9.677582143347232,0.04254656900525128,stand
09/07/2020, 21:35:08,-8.157132,-3.3954153,3.9481573,-0.028085556,0.0036633336,-0.028085556,9.677582143347232,0.03988755333901841,stand
09/07/2020, 21:35:08,-8.128419,-3.37388,3.9601214,-0.028085556,0.0036633336,-0.028085556,9.650742006248384,0.03988755333901841,stand
09/07/2020, 21:35:08,-8.128419,-3.37388,3.9601214,-0.026864445,0.0048844446,-0.026864445,9.650742006248384,0.03830475939444534,stand
09/07/2020, 21:35:09,-8.250452,-3.505485,3.739982,0.008547778,0.04396,-0.018316668,9.713179135448614,0.04838436253770033,stand
09/07/2020, 21:35:09,-8.2145605,-3.4983068,3.804588,0.008547778,0.04396,-0.018316668,9.705258622608472,0.04838436253770033,stand
09/07/2020, 21:35:09,-8.2145605,-3.4983068,3.804588,0.023201112,0.05372889,-0.023201112,9.705258622608472,0.06295535524646485,stand
09/07/2020, 21:35:09,-8.154739,-3.4983068,3.818945,0.023201112,0.05372889,-0.023201112,9.660344966195732,0.06295535524646485,stand
09/07/2020, 21:35:09,-8.154739,-3.4983068,3.818945,0.036633335,0.064718895,-0.03052778,9.660344966195732,0.08038956340686718,stand
09/07/2020, 21:35:09,-8.135597,-3.4719856,3.8333018,0.036633335,0.064718895,-0.03052778,9.640374924591407,0.08038956340686718,stand
09/07/2020, 21:35:09,-8.135597,-3.4719856,3.8333018,0.047623336,0.06960334,-0.02075889,9.640374924591407,0.08685354591035073,stand
09/07/2020, 21:35:09,-8.114061,-3.4576287,3.8572302,0.047623336,0.06960334,-0.02075889,9.626599233745155,0.08685354591035073,stand
09/07/2020, 21:35:09,-8.114061,-3.4576287,3.8572302,0.045181114,0.068382226,-0.025643334,9.626599233745155,0.08587806747938855,stand
09/07/2020, 21:35:09,-8.087741,-3.4241292,3.8548372,0.045181114,0.068382226,-0.025643334,9.591453675958554,0.08587806747938855,stand
09/07/2020, 21:35:09,-8.087741,-3.4241292,3.8548372,0.037854444,0.06349778,-0.028085556,9.591453675958554,0.07908050129559785,stand
09/07/2020, 21:35:09,-8.090134,-3.3762727,3.842873,0.037854444,0.06349778,-0.028085556,9.571684991895955,0.07908050129559785,stand
09/07/2020, 21:35:09,-8.090134,-3.3762727,3.842873,0.03174889,0.05372889,-0.025643334,9.571684991895955,0.067471225166759,stand
09/07/2020, 21:35:09,-8.126026,-3.3810585,3.8500516,0.03174889,0.05372889,-0.025643334,9.606599552557215,0.067471225166759,stand
09/07/2020, 21:35:09,-8.126026,-3.3810585,3.8500516,0.02075889,0.051286668,-0.03052778,9.606599552557215,0.06319176458671695,stand
09/07/2020, 21:35:09,-8.181061,-3.359523,3.8237305,0.02075889,0.051286668,-0.03052778,9.635199299482853,0.06319176458671695,stand
09/07/2020, 21:35:09,-8.181061,-3.359523,3.8237305,0.012211111,0.036633335,-0.026864445,9.635199299482853,0.0470405237488354,stand
09/07/2020, 21:35:09,-8.226524,-3.3762727,3.8333018,0.012211111,0.036633335,-0.026864445,9.683445806438998,0.0470405237488354,stand
09/07/2020, 21:35:09,-8.226524,-3.3762727,3.8333018,0.012211111,0.025643334,-0.02075889,9.683445806438998,0.03517987076534299,stand
09/07/2020, 21:35:09,-8.228917,-3.397808,3.804588,0.012211111,0.025643334,-0.02075889,9.681687206649675,0.03517987076534299,stand
09/07/2020, 21:35:10,-7.958528,-1.4333007,5.5800624,0.40540892,-0.2955089,-0.5030978,9.824948643880674,0.7104852321800968,stand
09/07/2020, 21:35:10,-7.9226356,-1.4069797,5.6063833,0.40540892,-0.2955089,-0.5030978,9.807103544554344,0.7104852321800968,stand
09/07/2020, 21:35:10,-7.9226356,-1.4069797,5.6063833,0.39564002,-0.28818223,-0.48844448,9.807103544554344,0.6914897153016824,stand
09/07/2020, 21:35:10,-7.874779,-1.2993027,5.575277,0.39564002,-0.28818223,-0.48844448,9.735709902439993,0.6914897153016824,stand
09/07/2020, 21:35:10,-7.874779,-1.2993027,5.575277,0.3382478,-0.30039334,-0.4798967,9.735709902439993,0.6595063123049739,stand
09/07/2020, 21:35:10,-7.8891363,-1.227518,5.534599,0.3382478,-0.30039334,-0.4798967,9.714785448739926,0.6595063123049739,stand
09/07/2020, 21:35:10,-7.8891363,-1.227518,5.534599,0.27475002,-0.30894113,-0.4713489,9.714785448739926,0.6269784616559573,stand
09/07/2020, 21:35:10,-7.908279,-1.160519,5.611169,0.27475002,-0.30894113,-0.4713489,9.765904780180565,0.6269784616559573,stand
09/07/2020, 21:35:10,-7.908279,-1.160519,5.611169,0.2295689,-0.3174889,-0.47379112,9.765904780180565,0.6148000602881523,stand
09/07/2020, 21:35:10,-7.9513497,-1.2394822,5.642276,0.2295689,-0.3174889,-0.47379112,9.828303768559529,0.6148000602881523,stand
09/07/2020, 21:35:10,-7.9513497,-1.2394822,5.642276,0.20026223,-0.31382558,-0.46280113,9.828303768559529,0.5939497789893052,stand
09/07/2020, 21:35:10,-7.9154572,-1.3304094,5.692525,0.20026223,-0.31382558,-0.46280113,9.840187625159409,0.5939497789893052,stand
09/07/2020, 21:35:10,-7.9154572,-1.3304094,5.692525,0.15508112,-0.31016225,-0.45425335,9.840187625159409,0.5714865491294939,stand
09/07/2020, 21:35:10,-7.8723865,-1.3328022,5.7188463,0.15508112,-0.31016225,-0.45425335,9.82120325578032,0.5714865491294939,stand
09/07/2020, 21:35:10,-7.8723865,-1.3328022,5.7188463,0.09646778,-0.31993112,-0.4371578,9.82120325578032,0.5502444040248518,stand
09/07/2020, 21:35:10,-7.8604226,-1.2873386,5.697311,0.09646778,-0.31993112,-0.4371578,9.792999341687816,0.5502444040248518,stand
09/07/2020, 21:35:10,-7.8604226,-1.2873386,5.697311,0.064718895,-0.33580557,-0.4261678,9.792999341687816,0.5464182416596388,stand
09/07/2020, 21:35:10,-7.810173,-1.375873,5.706882,0.064718895,-0.33580557,-0.4261678,9.770380311000263,0.5464182416596388,stand
09/07/2020, 21:35:10,-7.810173,-1.375873,5.706882,0.078151114,-0.3309211,-0.4249467,9.770380311000263,0.5442389861915088,stand
09/07/2020, 21:35:10,-7.745567,-1.5601203,5.6039906,0.078151114,-0.3309211,-0.4249467,9.68671726520908,0.5442389861915088,stand
09/07/2020, 21:35:11,-7.652247,-1.1892328,5.6877394,0.024422223,0.07326667,-0.026864445,9.608409717374437,0.08176887127178965,stand
09/07/2020, 21:35:11,-7.6546397,-1.1940185,5.6781683,0.024422223,0.07326667,-0.026864445,9.605247763702502,0.08176887127178965,stand
09/07/2020, 21:35:11,-7.6546397,-1.1940185,5.6781683,0.034191113,0.07204556,-0.02198,9.605247763702502,0.08272070446511108,stand
09/07/2020, 21:35:11,-7.6426754,-1.282553,5.65424,0.034191113,0.07204556,-0.02198,9.593011040261304,0.08272070446511108,stand
09/07/2020, 21:35:11,-7.6426754,-1.282553,5.65424,0.042738892,0.081814446,-0.025643334,9.593011040261304,0.09580081925898934,stand
09/07/2020, 21:35:11,-7.6331043,-1.3016955,5.6614184,0.042738892,0.081814446,-0.025643334,9.592202637675657,0.09580081925898934,stand
09/07/2020, 21:35:11,-7.6331043,-1.3016955,5.6614184,0.05617111,0.091583334,-0.025643334,9.592202637675657,0.11045488406866466,stand
09/07/2020, 21:35:11,-7.6570325,-1.294517,5.690132,0.05617111,0.091583334,-0.025643334,9.627228297923011,0.11045488406866466,stand
09/07/2020, 21:35:11,-7.6570325,-1.294517,5.690132,0.059834447,0.091583334,-0.024422223,9.627228297923011,0.11208975436137437,stand
09/07/2020, 21:35:11,-7.6331043,-1.2179468,5.6949177,0.059834447,0.091583334,-0.024422223,9.601029284621873,0.11208975436137437,stand
09/07/2020, 21:35:11,-7.6331043,-1.2179468,5.6949177,0.05372889,0.08792,-0.019537779,9.601029284621873,0.10487347253327618,stand
09/07/2020, 21:35:11,-7.63789,-1.1892328,5.6709895,0.05372889,0.08792,-0.019537779,9.58706202759836,0.10487347253327618,stand
09/07/2020, 21:35:11,-7.63789,-1.1892328,5.6709895,0.04396,0.08059334,-0.014653334,9.58706202759836,0.09296498476942144,stand
09/07/2020, 21:35:11,-7.6402826,-1.1653047,5.697311,0.04396,0.08059334,-0.014653334,9.601625143880009,0.09296498476942144,stand
09/07/2020, 21:35:11,-7.6402826,-1.1653047,5.697311,0.035412222,0.08303556,-0.015874445,9.601625143880009,0.09165657349303345,stand
09/07/2020, 21:35:11,-7.6259255,-1.134198,5.6781683,0.035412222,0.08303556,-0.015874445,9.575110472118288,0.09165657349303345,stand
09/07/2020, 21:35:11,-7.6259255,-1.134198,5.6781683,0.026864445,0.081814446,-0.007326667,9.575110472118288,0.08642327204012572,stand
09/07/2020, 21:35:11,-7.6139617,-1.146162,5.690132,0.026864445,0.081814446,-0.007326667,9.574116351239724,0.08642327204012572,stand
09/07/2020, 21:35:11,-7.6139617,-1.146162,5.690132,0.017095556,0.08059334,-0.0061055557,9.574116351239724,0.0826124828944797,stand
09/07/2020, 21:35:11,-7.6163545,-1.1413764,5.7116675,0.017095556,0.08059334,-0.0061055557,9.58826060539857,0.0826124828944797,stand
09/07/2020, 21:35:12,-8.322237,-3.2135608,3.912265,-0.10013112,-0.091583334,-0.07326667,9.74127404343988,0.154213334545952,stand
09/07/2020, 21:35:12,-8.322237,-3.2135608,3.912265,-0.09524667,-0.09280445,-0.08303556,9.74127404343988,0.15677849969039656,stand
09/07/2020, 21:35:12,-8.353344,-3.211168,3.8476589,-0.09524667,-0.09280445,-0.08303556,9.74137743980742,0.15677849969039656,stand
09/07/2020, 21:35:12,-8.353344,-3.211168,3.8476589,-0.07693,-0.09036223,-0.09524667,9.74137743980742,0.15216926789005272,stand
09/07/2020, 21:35:12,-8.346166,-3.199204,3.8380876,-0.07693,-0.09036223,-0.09524667,9.72750241904826,0.15216926789005272,stand
09/07/2020, 21:35:12,-8.346166,-3.199204,3.8380876,-0.070824444,-0.081814446,-0.109900005,9.72750241904826,0.15423267016301148,stand
09/07/2020, 21:35:12,-8.355737,-3.2063823,3.830909,-0.070824444,-0.081814446,-0.109900005,9.735249740259762,0.15423267016301148,stand
09/07/2020, 21:35:12,-8.355737,-3.2063823,3.830909,-0.06349778,-0.07693,-0.12089001,9.735249740259762,0.1567309384027307,stand
09/07/2020, 21:35:12,-8.310273,-3.2087753,3.8500516,-0.06349778,-0.07693,-0.12089001,9.704626557450137,0.1567309384027307,stand
09/07/2020, 21:35:12,-8.310273,-3.2087753,3.8500516,-0.05372889,-0.06594,-0.13554333,9.704626557450137,0.160021473297085,stand
09/07/2020, 21:35:12,-8.260024,-3.2159536,3.8691943,-0.05372889,-0.06594,-0.13554333,9.671660634304319,0.160021473297085,stand
09/07/2020, 21:35:12,-8.260024,-3.2159536,3.8691943,-0.039075557,-0.06227667,-0.14287001,9.671660634304319,0.16067707398600378,stand
09/07/2020, 21:35:12,-8.219346,-3.2039895,3.8739798,-0.039075557,-0.06227667,-0.14287001,9.634880265400074,0.16067707398600378,stand
09/07/2020, 21:35:12,-8.219346,-3.2039895,3.8739798,-0.02075889,-0.05372889,-0.14531223,9.634880265400074,0.15631177388289136,stand
09/07/2020, 21:35:12,-8.2145605,-3.1872396,3.859623,-0.02075889,-0.05372889,-0.14531223,9.619469334409771,0.15631177388289136,stand
09/07/2020, 21:35:12,-8.2145605,-3.1872396,3.859623,-0.0048844446,-0.04029667,-0.14775445,9.619469334409771,0.1532287689449721,stand
09/07/2020, 21:35:12,-8.2145605,-3.2039895,3.8620157,-0.0048844446,-0.04029667,-0.14775445,9.625991822064593,0.1532287689449721,stand
09/07/2020, 21:35:12,-8.2145605,-3.2039895,3.8620157,0.009768889,-0.03174889,-0.15630223,9.625991822064593,0.1597930221434074,stand
09/07/2020, 21:35:12,-8.216953,-3.1896327,3.8500516,0.009768889,-0.03174889,-0.15630223,9.618470526891443,0.1597930221434074,stand
09/07/2020, 21:35:12,-8.216953,-3.1896327,3.8500516,0.028085556,-0.028085556,-0.15508112,9.618470526891443,0.16008670039857936,stand
09/07/2020, 21:35:13,-8.226524,-3.225525,3.818945,0.05617111,0.0024422223,-0.036633335,9.626217025022521,0.0671055845938169,stand
09/07/2020, 21:35:13,-8.226524,-3.225525,3.818945,0.054950003,0.0024422223,-0.037854444,9.626217025022521,0.06677144735505877,stand
09/07/2020, 21:35:13,-8.216953,-3.2207394,3.778267,0.054950003,0.0024422223,-0.037854444,9.60035332888612,0.06677144735505877,stand
09/07/2020, 21:35:13,-8.216953,-3.2207394,3.778267,0.05250778,0.0036633336,-0.042738892,9.60035332888612,0.06780191683474891,stand
09/07/2020, 21:35:13,-8.216953,-3.237489,3.7591243,0.05250778,0.0036633336,-0.042738892,9.598472349264343,0.06780191683474891,stand
09/07/2020, 21:35:13,-8.216953,-3.237489,3.7591243,0.05250778,0.0024422223,-0.042738892,9.598472349264343,0.06774691404986137,stand
09/07/2020, 21:35:13,-8.248059,-3.2231321,3.749553,0.05250778,0.0024422223,-0.042738892,9.616559153643832,0.06774691404986137,stand
09/07/2020, 21:35:13,-8.248059,-3.2231321,3.749553,0.05250778,-0.0036633336,-0.045181114,9.616559153643832,0.0693672841333541,stand
09/07/2020, 21:35:13,-8.262417,-3.2303107,3.739982,0.05250778,-0.0036633336,-0.045181114,9.627559589339521,0.0693672841333541,stand
09/07/2020, 21:35:13,-8.262417,-3.2303107,3.739982,0.05372889,0.0,-0.039075557,9.627559589339521,0.06643562863096718,stand
09/07/2020, 21:35:13,-8.274381,-3.2231321,3.7686956,0.05372889,0.0,-0.039075557,9.646606808809565,0.06643562863096718,stand
09/07/2020, 21:35:13,-8.274381,-3.2231321,3.7686956,0.05617111,0.0012211112,-0.042738892,9.646606808809565,0.07059247700915929,stand
09/07/2020, 21:35:13,-8.305488,-3.211168,3.7806597,0.05617111,0.0012211112,-0.042738892,9.67399155730155,0.07059247700915929,stand
09/07/2020, 21:35:13,-8.305488,-3.211168,3.7806597,0.047623336,-0.0024422223,-0.05006556,9.67399155730155,0.06914120876822213,stand
09/07/2020, 21:35:13,-8.295917,-3.199204,3.7878382,0.047623336,-0.0024422223,-0.05006556,9.664618768501347,0.06914120876822213,stand
09/07/2020, 21:35:13,-8.295917,-3.199204,3.7878382,0.04029667,-0.0048844446,-0.046402223,9.664618768501347,0.061650999616938915,stand
09/07/2020, 21:35:13,-8.305488,-3.1920254,3.7686956,0.04029667,-0.0048844446,-0.046402223,9.662981816757165,0.061650999616938915,stand
09/07/2020, 21:35:13,-8.305488,-3.1920254,3.7686956,0.036633335,-0.0048844446,-0.05250778,9.662981816757165,0.06421001517574713,stand
09/07/2020, 21:35:13,-8.286345,-3.211168,3.7686956,0.036633335,-0.0048844446,-0.05250778,9.652884147344576,0.06421001517574713,stand
09/07/2020, 21:35:13,-8.286345,-3.211168,3.7686956,0.03052778,-0.0061055557,-0.051286668,9.652884147344576,0.059996211745087145,stand
09/07/2020, 21:35:14,-8.379665,-3.3499517,3.7208393,-0.048844445,-0.0012211112,-0.036633335,9.761435001794016,0.06106776732065157,stand
09/07/2020, 21:35:14,-8.379665,-3.3499517,3.7208393,-0.045181114,-0.0036633336,-0.045181114,9.761435001794016,0.06400067326649428,stand
09/07/2020, 21:35:14,-8.396415,-3.3427732,3.7256248,-0.045181114,-0.0036633336,-0.045181114,9.775182534185006,0.06400067326649428,stand
09/07/2020, 21:35:14,-8.396415,-3.3427732,3.7256248,-0.04029667,-0.0036633336,-0.046402223,9.775182534185006,0.061566289212142584,stand
09/07/2020, 21:35:14,-8.377272,-3.3403804,3.7208393,-0.04029667,-0.0036633336,-0.046402223,9.756098942068459,0.061566289212142584,stand
09/07/2020, 21:35:14,-8.377272,-3.3403804,3.7208393,-0.04029667,0.0012211112,-0.048844445,9.756098942068459,0.06333318707777909,stand
09/07/2020, 21:35:14,-8.343773,-3.3379877,3.6993039,-0.04029667,0.0012211112,-0.048844445,9.718310384310438,0.06333318707777909,stand
09/07/2020, 21:35:14,-8.343773,-3.3379877,3.6993039,-0.03297,0.0048844446,-0.047623336,9.718310384310438,0.05812796973150518,stand
09/07/2020, 21:35:14,-8.367701,-3.3427732,3.737589,-0.03297,0.0048844446,-0.047623336,9.75510718840981,0.05812796973150518,stand
09/07/2020, 21:35:14,-8.367701,-3.3427732,3.737589,-0.03052778,0.0036633336,-0.047623336,9.75510718840981,0.05668639621938368,stand
09/07/2020, 21:35:14,-8.355737,-3.3260236,3.7208393,-0.03052778,0.0036633336,-0.047623336,9.73269818714029,0.05668639621938368,stand
09/07/2020, 21:35:14,-8.355737,-3.3260236,3.7208393,-0.028085556,0.007326667,-0.047623336,9.73269818714029,0.055771504042496055,stand
09/07/2020, 21:35:14,-8.336594,-3.3020952,3.7088752,-0.028085556,0.007326667,-0.047623336,9.703524151367102,0.055771504042496055,stand
09/07/2020, 21:35:14,-8.336594,-3.3020952,3.7088752,-0.03174889,0.0036633336,-0.04396,9.703524151367102,0.05434973597895834,stand
09/07/2020, 21:35:14,-8.295917,-3.2997024,3.6873398,-0.03174889,0.0036633336,-0.04396,9.659541509138645,0.05434973597895834,stand
09/07/2020, 21:35:14,-8.295917,-3.2997024,3.6873398,-0.029306669,0.0048844446,-0.042738892,9.659541509138645,0.0520514316432661,stand
09/07/2020, 21:35:14,-8.262417,-3.2949169,3.682554,-0.029306669,0.0048844446,-0.042738892,9.627315992064759,0.0520514316432661,stand
09/07/2020, 21:35:14,-8.262417,-3.2949169,3.682554,-0.02075889,0.007326667,-0.042738892,9.627315992064759,0.04807519580272422,stand
09/07/2020, 21:35:14,-8.224132,-3.2805598,3.696911,-0.02075889,0.007326667,-0.042738892,9.595080219992795,0.04807519580272422,stand
09/07/2020, 21:35:14,-8.224132,-3.2805598,3.696911,-0.013432222,0.009768889,-0.04151778,9.595080219992795,0.044716683567260176,stand
09/07/2020, 21:35:15,-8.2145605,-3.2207394,3.8093736,0.02075889,-0.013432222,-0.09524667,9.610592789292488,0.0984036825749685,stand
09/07/2020, 21:35:15,-8.2145605,-3.2207394,3.8093736,0.013432222,-0.019537779,-0.106236674,9.610592789292488,0.10885026536548804,stand
09/07/2020, 21:35:15,-8.195417,-3.2350962,3.792624,0.013432222,-0.019537779,-0.106236674,9.59242986616747,0.10885026536548804,stand
09/07/2020, 21:35:15,-8.195417,-3.2350962,3.792624,0.0048844446,-0.026864445,-0.10379445,9.59242986616747,0.10732587594619229,stand
09/07/2020, 21:35:15,-8.226524,-3.2446675,3.7734814,0.0048844446,-0.026864445,-0.10379445,9.61471434593387,0.10732587594619229,stand
09/07/2020, 21:35:15,-8.226524,-3.2446675,3.7734814,-0.0012211112,-0.035412222,-0.106236674,9.61471434593387,0.11198994360831134,stand
09/07/2020, 21:35:15,-8.226524,-3.251846,3.804588,-0.0012211112,-0.035412222,-0.106236674,9.629387118666179,0.11198994360831134,stand
09/07/2020, 21:35:15,-8.226524,-3.251846,3.804588,-0.0012211112,-0.037854444,-0.106236674,9.629387118666179,0.112785996206925,stand
09/07/2020, 21:35:15,-8.219346,-3.2470603,3.792624,-0.0012211112,-0.037854444,-0.106236674,9.616914619392436,0.112785996206925,stand
09/07/2020, 21:35:15,-8.219346,-3.2470603,3.792624,0.0,-0.034191113,-0.09646778,9.616914619392436,0.10234776213863463,stand
09/07/2020, 21:35:15,-8.188239,-3.2231321,3.804588,0.0,-0.034191113,-0.09646778,9.587008434521973,0.10234776213863463,stand
09/07/2020, 21:35:15,-8.188239,-3.2231321,3.804588,-0.0012211112,-0.029306669,-0.098910004,9.587008434521973,0.10316763455430289,stand
09/07/2020, 21:35:15,-8.161918,-3.2327034,3.8213377,-0.0012211112,-0.029306669,-0.098910004,9.574439603216772,0.10316763455430289,stand
09/07/2020, 21:35:15,-8.161918,-3.2327034,3.8213377,0.0036633336,-0.023201112,-0.09524667,9.574439603216772,0.09810015415128649,stand
09/07/2020, 21:35:15,-8.161918,-3.2159536,3.8165522,0.0036633336,-0.023201112,-0.09524667,9.566887070016536,0.09810015415128649,stand
09/07/2020, 21:35:15,-8.161918,-3.2159536,3.8165522,0.0012211112,-0.015874445,-0.09646778,9.566887070016536,0.09777280470263998,stand
09/07/2020, 21:35:15,-8.169097,-3.196811,3.7758741,0.0012211112,-0.015874445,-0.09646778,9.550443484406669,0.09777280470263998,stand
09/07/2020, 21:35:15,-8.169097,-3.196811,3.7758741,0.0,-0.018316668,-0.08792,9.550443484406669,0.08980772335042578,stand
09/07/2020, 21:35:15,-8.2145605,-3.1657043,3.7280176,0.0,-0.018316668,-0.08792,9.56027210616153,0.08980772335042578,stand
09/07/2020, 21:35:15,-8.2145605,-3.1657043,3.7280176,-0.0036633336,-0.015874445,-0.085477784,9.56027210616153,0.08701649059670359,stand
09/07/2020, 21:35:16,-8.147561,-3.330809,3.4983068,-0.024422223,0.081814446,-0.0061055557,9.471810330591834,0.08559980301219812,stand
09/07/2020, 21:35:16,-8.154739,-3.3284163,3.4911282,-0.024422223,0.081814446,-0.0061055557,9.474497658907135,0.08559980301219812,stand
09/07/2020, 21:35:16,-8.154739,-3.3284163,3.4911282,0.013432222,0.09280445,0.008547778,9.474497658907135,0.09416025945625375,stand
09/07/2020, 21:35:16,-8.185846,-3.3260236,3.5270207,0.013432222,0.09280445,0.008547778,9.513694757084785,0.09416025945625375,stand
09/07/2020, 21:35:16,-8.185846,-3.3260236,3.5270207,0.04396,0.10135223,0.028085556,9.513694757084785,0.1139892742027163,stand
09/07/2020, 21:35:16,-8.200203,-3.3427732,3.591627,0.04396,0.10135223,0.028085556,9.556005682932115,0.1139892742027163,stand
09/07/2020, 21:35:16,-8.200203,-3.3427732,3.591627,0.06594,0.11234222,0.048844445,9.556005682932115,0.13912094974463124,stand
09/07/2020, 21:35:16,-8.219346,-3.3260236,3.603591,0.06594,0.11234222,0.048844445,9.571099734196357,0.13912094974463124,stand
09/07/2020, 21:35:16,-8.219346,-3.3260236,3.603591,0.07937223,0.11478445,0.06105556,9.571099734196357,0.15232597160512748,stand
09/07/2020, 21:35:16,-8.236095,-3.3140593,3.6179478,0.07937223,0.11478445,0.06105556,9.586751434898181,0.15232597160512748,stand
09/07/2020, 21:35:16,-8.236095,-3.3140593,3.6179478,0.08303556,0.11234222,0.07326667,9.586751434898181,0.15774563101513436,stand
09/07/2020, 21:35:16,-8.221739,-3.278167,3.6275191,0.08303556,0.11234222,0.07326667,9.5656815299274,0.15774563101513436,stand
09/07/2020, 21:35:16,-8.221739,-3.278167,3.6275191,0.08059334,0.102573335,0.08425667,9.5656815299274,0.1552925053778732,stand
09/07/2020, 21:35:16,-8.2456665,-3.2829528,3.6203406,0.08059334,0.102573335,0.08425667,9.58517923890523,0.1552925053778732,stand
09/07/2020, 21:35:16,-8.2456665,-3.2829528,3.6203406,0.07570889,0.09402556,0.09036223,9.58517923890523,0.15079116023775668,stand
09/07/2020, 21:35:16,-8.288737,-3.2997024,3.641876,0.07570889,0.09402556,0.09036223,9.636102044793864,0.15079116023775668,stand
09/07/2020, 21:35:16,-8.288737,-3.2997024,3.641876,0.068382226,0.081814446,0.08792,9.636102044793864,0.1382015165938344,stand
09/07/2020, 21:35:16,-8.30788,-3.3236306,3.641876,0.068382226,0.081814446,0.08792,9.66077934810298,0.1382015165938344,stand
09/07/2020, 21:35:16,-8.30788,-3.3236306,3.641876,0.07326667,0.07326667,0.09036223,9.66077934810298,0.13748215239951514,stand
09/07/2020, 21:35:16,-8.343773,-3.3810585,3.6514473,0.07326667,0.07326667,0.09036223,9.715100083835065,0.13748215239951514,stand
09/07/2020, 21:35:17,-8.30788,-3.3786657,3.5772698,0.0036633336,-0.025643334,-0.019537779,9.655729788660741,0.03244572965054619,stand
09/07/2020, 21:35:17,-8.3174515,-3.37388,3.5844483,0.0036633336,-0.025643334,-0.019537779,9.664953936854848,0.03244572965054619,stand
09/07/2020, 21:35:17,-8.3174515,-3.37388,3.5844483,0.0012211112,-0.02198,-0.023201112,9.664953936854848,0.031982856748253,stand
09/07/2020, 21:35:17,-8.298309,-3.3882368,3.591627,0.0012211112,-0.02198,-0.023201112,9.656182977011783,0.031982856748253,stand
09/07/2020, 21:35:17,-8.298309,-3.3882368,3.591627,-0.013432222,-0.026864445,-0.03052778,9.656182977011783,0.04282602406246754,stand
09/07/2020, 21:35:17,-8.312666,-3.3882368,3.5772698,-0.013432222,-0.026864445,-0.03052778,9.663199394448853,0.04282602406246754,stand
09/07/2020, 21:35:17,-8.312666,-3.3882368,3.5772698,-0.012211111,-0.023201112,-0.036633335,9.663199394448853,0.04504890745037621,stand
09/07/2020, 21:35:17,-8.310273,-3.3882368,3.5820556,-0.012211111,-0.023201112,-0.036633335,9.662914188499016,0.04504890745037621,stand
09/07/2020, 21:35:17,-8.310273,-3.3882368,3.5820556,-0.009768889,-0.02075889,-0.037854444,9.662914188499016,0.04426422533297231,stand
09/07/2020, 21:35:17,-8.300702,-3.4073794,3.5964124,-0.009768889,-0.02075889,-0.037854444,9.66675084329987,0.04426422533297231,stand
09/07/2020, 21:35:17,-8.300702,-3.4073794,3.5964124,-0.0061055557,-0.019537779,-0.039075557,9.66675084329987,0.04411237658235922,stand
09/07/2020, 21:35:17,-8.29113,-3.4169507,3.5988052,-0.0061055557,-0.019537779,-0.039075557,9.662804389190304,0.04411237658235922,stand
09/07/2020, 21:35:17,-8.29113,-3.4169507,3.5988052,-0.0024422223,-0.008547778,-0.046402223,9.662804389190304,0.04724611412546857,stand
09/07/2020, 21:35:17,-8.286345,-3.3906298,3.5796626,-0.0024422223,-0.008547778,-0.046402223,9.64229536571953,0.04724611412546857,stand
09/07/2020, 21:35:17,-8.286345,-3.3906298,3.5796626,0.0024422223,-0.0048844446,-0.046402223,9.64229536571953,0.046722463404260194,stand
09/07/2020, 21:35:17,-8.295917,-3.3643086,3.586841,0.0024422223,-0.0048844446,-0.046402223,9.643973920296778,0.046722463404260194,stand
09/07/2020, 21:35:17,-8.295917,-3.3643086,3.586841,0.0048844446,-0.0024422223,-0.047623336,9.643973920296778,0.047935419171237385,stand
09/07/2020, 21:35:17,-8.312666,-3.3714871,3.5724843,0.0048844446,-0.0024422223,-0.047623336,9.655567529129435,0.047935419171237385,stand
09/07/2020, 21:35:17,-8.312666,-3.3714871,3.5724843,0.0024422223,-0.0024422223,-0.045181114,9.655567529129435,0.045312933942634824,stand
09/07/2020, 21:35:17,-8.298309,-3.3379877,3.5796626,0.0024422223,-0.0024422223,-0.045181114,9.634214205312329,0.045312933942634824,stand
09/07/2020, 21:35:18,-8.331808,-3.2614172,3.656233,-0.07326667,-0.034191113,-0.036633335,9.665604386715167,0.088763947589509,stand
09/07/2020, 21:35:18,-8.331808,-3.2614172,3.656233,-0.07448778,-0.03297,-0.03297,9.665604386715167,0.0878775945628893,stand
09/07/2020, 21:35:18,-8.293523,-3.2638102,3.6370904,-0.07448778,-0.03297,-0.03297,9.626183286169397,0.0878775945628893,stand
09/07/2020, 21:35:18,-8.293523,-3.2638102,3.6370904,-0.064718895,-0.026864445,-0.03052778,9.626183286169397,0.07643414854613562,stand
09/07/2020, 21:35:18,-8.286345,-3.290131,3.6370904,-0.064718895,-0.026864445,-0.03052778,9.628961270301252,0.07643414854613562,stand
09/07/2020, 21:35:18,-8.286345,-3.290131,3.6370904,-0.05250778,-0.015874445,-0.03174889,9.628961270301252,0.06338025798392966,stand
09/07/2020, 21:35:18,-8.271988,-3.2949169,3.6323047,-0.05250778,-0.015874445,-0.03174889,9.616438968726369,0.06338025798392966,stand
09/07/2020, 21:35:18,-8.271988,-3.2949169,3.6323047,-0.034191113,-0.0061055557,-0.025643334,9.616438968726369,0.04317279912236894,stand
09/07/2020, 21:35:18,-8.29113,-3.2853456,3.6011982,-0.034191113,-0.0061055557,-0.025643334,9.617949970305672,0.04317279912236894,stand
09/07/2020, 21:35:18,-8.29113,-3.2853456,3.6011982,-0.02075889,-0.0012211112,-0.02198,9.617949970305672,0.03025794175985255,stand
09/07/2020, 21:35:18,-8.303095,-3.2925239,3.6275191,-0.02075889,-0.0012211112,-0.02198,9.640590891497752,0.03025794175985255,stand
09/07/2020, 21:35:18,-8.303095,-3.2925239,3.6275191,-0.015874445,0.009768889,-0.019537779,9.640590891497752,0.027002851837355294,stand
09/07/2020, 21:35:18,-8.293523,-3.266203,3.644269,-0.015874445,0.009768889,-0.019537779,9.629709187573406,0.027002851837355294,stand
09/07/2020, 21:35:18,-8.293523,-3.266203,3.644269,-0.019537779,0.017095556,-0.015874445,9.629709187573406,0.030429933633309727,stand
09/07/2020, 21:35:18,-8.279166,-3.2398818,3.644269,-0.019537779,0.017095556,-0.015874445,9.608440225805396,0.030429933633309727,stand
09/07/2020, 21:35:18,-8.279166,-3.2398818,3.644269,-0.019537779,0.023201112,-0.014653334,9.608440225805396,0.033685851401901605,stand
09/07/2020, 21:35:18,-8.26481,-3.2327034,3.6251264,-0.019537779,0.023201112,-0.014653334,9.586396120643975,0.033685851401901605,stand
09/07/2020, 21:35:18,-8.26481,-3.2327034,3.6251264,-0.023201112,0.024422223,-0.015874445,9.586396120643975,0.03723888513711589,stand
09/07/2020, 21:35:18,-8.26481,-3.2279177,3.6131623,-0.023201112,0.024422223,-0.015874445,9.58026471510435,0.03723888513711589,stand
09/07/2020, 21:35:18,-8.26481,-3.2279177,3.6131623,-0.017095556,0.03052778,-0.015874445,9.58026471510435,0.03842136659372009,stand
09/07/2020, 21:35:19,-8.382058,-3.4983068,3.5796626,-0.025643334,-0.03297,-0.09402556,9.762736957555108,0.10288540884473968,stand
09/07/2020, 21:35:19,-8.382058,-3.4983068,3.5796626,-0.039075557,-0.03052778,-0.102573335,9.762736957555108,0.11393038925390873,stand
09/07/2020, 21:35:19,-8.370093,-3.4839497,3.5820556,-0.039075557,-0.03052778,-0.102573335,9.74820444769904,0.11393038925390873,stand
09/07/2020, 21:35:19,-8.370093,-3.4839497,3.5820556,-0.05006556,-0.03052778,-0.10745778,9.74820444769904,0.12241601129819205,stand
09/07/2020, 21:35:19,-8.355737,-3.4313076,3.5557344,-0.05006556,-0.03052778,-0.10745778,9.707494783369402,0.12241601129819205,stand
09/07/2020, 21:35:19,-8.355737,-3.4313076,3.5557344,-0.054950003,-0.026864445,-0.106236674,9.707494783369402,0.12258642689782588,stand
09/07/2020, 21:35:19,-8.372486,-3.438486,3.522235,-0.054950003,-0.026864445,-0.106236674,9.712252529693904,0.12258642689782588,stand
09/07/2020, 21:35:19,-8.372486,-3.438486,3.522235,-0.05617111,-0.028085556,-0.11600556,9.712252529693904,0.13191392162229204,stand
09/07/2020, 21:35:19,-8.3581295,-3.4648073,3.505485,-0.05617111,-0.028085556,-0.11600556,9.703176989197937,0.13191392162229204,stand
09/07/2020, 21:35:19,-8.3581295,-3.4648073,3.505485,-0.04151778,-0.02198,-0.12577444,9.703176989197937,0.1342611521284895,stand
09/07/2020, 21:35:19,-8.338987,-3.4695928,3.5102708,-0.04151778,-0.02198,-0.12577444,9.690138576097548,0.1342611521284895,stand
09/07/2020, 21:35:19,-8.338987,-3.4695928,3.5102708,-0.026864445,-0.015874445,-0.12821667,9.690138576097548,0.13195912478663033,stand
09/07/2020, 21:35:19,-8.310273,-3.4480574,3.5102708,-0.026864445,-0.015874445,-0.12821667,9.65772962034606,0.13195912478663033,stand
09/07/2020, 21:35:19,-8.310273,-3.4480574,3.5102708,-0.007326667,-0.0024422223,-0.12577444,9.65772962034606,0.12601132906079143,stand
09/07/2020, 21:35:19,-8.283952,-3.4480574,3.5270207,-0.007326667,-0.0024422223,-0.12577444,9.641204885423061,0.12601132906079143,stand
09/07/2020, 21:35:19,-8.283952,-3.4480574,3.5270207,-0.0036633336,0.0024422223,-0.12821667,9.641204885423061,0.12829223929372985,stand
09/07/2020, 21:35:19,-8.252846,-3.3643086,3.5389848,-0.0036633336,0.0024422223,-0.12821667,9.58918394731047,0.12829223929372985,stand
09/07/2020, 21:35:19,-8.252846,-3.3643086,3.5389848,-0.017095556,0.0024422223,-0.11966889,9.58918394731047,0.12090850498074325,stand
09/07/2020, 21:35:19,-8.238488,-3.3523445,3.5318062,-0.017095556,0.0024422223,-0.11966889,9.56998206691333,0.12090850498074325,stand
09/07/2020, 21:35:19,-8.238488,-3.3523445,3.5318062,-0.026864445,0.007326667,-0.117226675,9.56998206691333,0.12048847171406159,stand
09/07/2020, 21:35:20,-8.262417,-3.3882368,3.7160535,-0.024422223,0.013432222,-0.019537779,9.672472997655325,0.034038130891270064,stand
09/07/2020, 21:35:20,-8.236095,-3.3427732,3.6993039,-0.024422223,0.013432222,-0.019537779,9.62768142680855,0.034038130891270064,stand
09/07/2020, 21:35:20,-8.236095,-3.3427732,3.6993039,-0.03052778,0.009768889,-0.01099,9.62768142680855,0.033884460252846804,stand
09/07/2020, 21:35:20,-8.240881,-3.347559,3.6801612,-0.03052778,0.009768889,-0.01099,9.626102894059558,0.033884460252846804,stand
09/07/2020, 21:35:20,-8.240881,-3.347559,3.6801612,-0.035412222,0.0048844446,-0.015874445,9.626102894059558,0.03911369702332648,stand
09/07/2020, 21:35:20,-8.248059,-3.3284163,3.6777685,-0.035412222,0.0048844446,-0.015874445,9.624698336047217,0.03911369702332648,stand
09/07/2020, 21:35:20,-8.248059,-3.3284163,3.6777685,-0.037854444,0.0048844446,-0.0048844446,9.624698336047217,0.038479534135963236,stand
09/07/2020, 21:35:20,-8.236095,-3.347559,3.6753755,-0.037854444,0.0048844446,-0.0048844446,9.62017691016949,0.038479534135963236,stand
09/07/2020, 21:35:20,-8.236095,-3.347559,3.6753755,-0.03297,0.0024422223,-0.0024422223,9.62017691016949,0.03315041181623648,stand
09/07/2020, 21:35:20,-8.2049885,-3.414558,3.6610186,-0.03297,0.0024422223,-0.0024422223,9.611664741172591,0.03315041181623648,stand
09/07/2020, 21:35:20,-8.2049885,-3.414558,3.6610186,-0.023201112,0.0024422223,0.0036633336,9.611664741172591,0.023615165619319547,stand
09/07/2020, 21:35:20,-8.209774,-3.4600215,3.6610186,-0.023201112,0.0024422223,0.0036633336,9.631988134855295,0.023615165619319547,stand
09/07/2020, 21:35:20,-8.209774,-3.4600215,3.6610186,-0.014653334,0.0048844446,0.0036633336,9.631988134855295,0.015874445545845307,stand
09/07/2020, 21:35:20,-8.240881,-3.4600215,3.6346977,-0.014653334,0.0048844446,0.0036633336,9.648569585392465,0.015874445545845307,stand
09/07/2020, 21:35:20,-8.240881,-3.4600215,3.6346977,-0.015874445,0.009768889,0.0024422223,9.648569585392465,0.018798767664882088,stand
09/07/2020, 21:35:20,-8.260024,-3.4049866,3.615555,-0.015874445,0.009768889,0.0024422223,9.63816216071674,0.018798767664882088,stand
09/07/2020, 21:35:20,-8.260024,-3.4049866,3.615555,-0.017095556,0.012211111,0.0061055557,9.63816216071674,0.021878004998025516,stand
09/07/2020, 21:35:20,-8.233703,-3.37388,3.6083765,-0.017095556,0.012211111,0.0061055557,9.60194283038518,0.021878004998025516,stand
09/07/2020, 21:35:20,-8.233703,-3.37388,3.6083765,-0.028085556,0.009768889,0.0,9.60194283038518,0.02973599917665893,stand
09/07/2020, 21:35:20,-8.257631,-3.3786657,3.6227336,-0.028085556,0.009768889,0.0,9.629540758465955,0.02973599917665893,stand
09/07/2020, 21:35:21,-8.260024,-3.4528432,3.6059837,0.0,0.015874445,-0.0048844446,9.651592740552926,0.01660890777399157,stand
09/07/2020, 21:35:21,-8.276773,-3.4672,3.5988052,0.0,0.015874445,-0.0048844446,9.668394577212094,0.01660890777399157,stand
09/07/2020, 21:35:21,-8.276773,-3.4672,3.5988052,0.0048844446,0.013432222,0.0,9.668394577212094,0.014292739365440121,stand
09/07/2020, 21:35:21,-8.300702,-3.4863427,3.6011982,0.0048844446,0.013432222,0.0,9.696642146781285,0.014292739365440121,stand
09/07/2020, 21:35:21,-8.300702,-3.4863427,3.6011982,-0.0012211112,0.01099,-0.0048844446,9.696642146781285,0.012088383646581866,stand
09/07/2020, 21:35:21,-8.30788,-3.481557,3.5988052,-0.0012211112,0.01099,-0.0048844446,9.700181129844394,0.012088383646581866,stand
09/07/2020, 21:35:21,-8.30788,-3.481557,3.5988052,-0.0036633336,0.012211111,-0.007326667,9.700181129844394,0.014704125484485226,stand
09/07/2020, 21:35:21,-8.293523,-3.4600215,3.6346977,-0.0036633336,0.012211111,-0.007326667,9.693569876793921,0.014704125484485226,stand
09/07/2020, 21:35:21,-8.293523,-3.4600215,3.6346977,-0.007326667,0.013432222,-0.009768889,9.693569876793921,0.018153122298678968,stand
09/07/2020, 21:35:21,-8.252846,-3.4576287,3.6131623,-0.007326667,0.013432222,-0.009768889,9.649849805869042,0.018153122298678968,stand
09/07/2020, 21:35:21,-8.252846,-3.4576287,3.6131623,-0.007326667,0.014653334,-0.012211111,9.649849805869042,0.020433098200582464,stand
09/07/2020, 21:35:21,-8.255239,-3.438486,3.5605202,-0.007326667,0.014653334,-0.012211111,9.62545862740131,0.020433098200582464,stand
09/07/2020, 21:35:21,-8.255239,-3.438486,3.5605202,-0.0061055557,0.012211111,-0.0048844446,9.62545862740131,0.014499891403388927,stand
09/07/2020, 21:35:21,-8.233703,-3.4983068,3.574877,-0.0061055557,0.012211111,-0.0048844446,9.633885786494677,0.014499891403388927,stand
09/07/2020, 21:35:21,-8.233703,-3.4983068,3.574877,-0.0036633336,0.017095556,-0.019537779,9.633885786494677,0.026218368675519254,stand
09/07/2020, 21:35:21,-8.255239,-3.4719856,3.5724843,-0.0036633336,0.017095556,-0.019537779,9.641902864356489,0.026218368675519254,stand
09/07/2020, 21:35:21,-8.255239,-3.4719856,3.5724843,0.0061055557,0.02198,-0.008547778,9.641902864356489,0.02436109094677774,stand
09/07/2020, 21:35:21,-8.279166,-3.4743786,3.5820556,0.0061055557,0.02198,-0.008547778,9.666799986551053,0.02436109094677774,stand
09/07/2020, 21:35:21,-8.279166,-3.4743786,3.5820556,0.015874445,0.024422223,-0.007326667,9.666799986551053,0.030035363060315727,stand
09/07/2020, 21:35:21,-8.262417,-3.4911282,3.5676985,0.015874445,0.024422223,-0.007326667,9.653184998678109,0.030035363060315727,stand
09/07/2020, 21:35:22,-8.300702,-3.4169507,3.5270207,0.009768889,0.018316668,-0.012211111,9.644536398528464,0.024084076651619556,stand
09/07/2020, 21:35:22,-8.255239,-3.4073794,3.5557344,0.009768889,0.018316668,-0.012211111,9.612619030789762,0.024084076651619556,stand
09/07/2020, 21:35:22,-8.255239,-3.4073794,3.5557344,0.0036633336,0.017095556,-0.015874445,9.612619030789762,0.023615166365761477,stand
09/07/2020, 21:35:22,-8.228917,-3.4289148,3.5557344,0.0036633336,0.017095556,-0.015874445,9.59769663508294,0.023615166365761477,stand
09/07/2020, 21:35:22,-8.228917,-3.4289148,3.5557344,-0.0048844446,0.029306669,-0.017095556,9.59769663508294,0.034278224667883404,stand
09/07/2020, 21:35:22,-8.267202,-3.4217365,3.5676985,-0.0048844446,0.029306669,-0.017095556,9.632413410607555,0.034278224667883404,stand
09/07/2020, 21:35:22,-8.267202,-3.4217365,3.5676985,-0.0048844446,0.018316668,-0.01099,9.632413410607555,0.021912056407680205,stand
09/07/2020, 21:35:22,-8.310273,-3.4193435,3.548556,-0.0048844446,0.018316668,-0.01099,9.661511282597301,0.021912056407680205,stand
09/07/2020, 21:35:22,-8.310273,-3.4193435,3.548556,-0.0024422223,0.017095556,-0.015874445,9.661511282597301,0.023456779815134228,stand
09/07/2020, 21:35:22,-8.283952,-3.455236,3.5413775,-0.0024422223,0.017095556,-0.015874445,9.649034521090213,0.023456779815134228,stand
09/07/2020, 21:35:22,-8.283952,-3.455236,3.5413775,0.0024422223,0.017095556,-0.017095556,9.649034521090213,0.024299805611808466,stand
09/07/2020, 21:35:22,-8.30788,-3.4576287,3.5605202,0.0024422223,0.017095556,-0.017095556,9.677467492946624,0.024299805611808466,stand
