DATE,TIME,ax,ay,az,gx,gy,gz,ma,mg,label
10/07/2020, 16:17:00,-1.3663018,6.4606214,7.496713,0.26864445,-0.054950003,0.007326667,9.990351199217457,0.2743046198613778,stand
10/07/2020, 16:17:00,-1.3663018,6.4606214,7.496713,0.3382478,-0.04151778,0.12577444,9.990351199217457,0.36325544000503945,stand
10/07/2020, 16:17:00,-1.3160524,6.4199433,7.3866434,0.3382478,-0.04151778,0.12577444,9.874723655561032,0.36325544000503945,stand
10/07/2020, 16:17:00,-1.3160524,6.4199433,7.3866434,0.29062447,0.007326667,0.19415668,9.874723655561032,0.3495898702432898,stand
10/07/2020, 16:17:00,-1.1676974,6.5491557,7.271788,0.29062447,0.007326667,0.19415668,9.855651185742058,0.3495898702432898,stand
10/07/2020, 16:17:00,-1.1676974,6.5491557,7.271788,0.18072446,0.06716111,0.13310112,9.855651185742058,0.23428156719916593,stand
10/07/2020, 16:17:00,-1.052842,7.066005,7.123433,0.18072446,0.06716111,0.13310112,10.08861762322382,0.23428156719916593,stand
10/07/2020, 16:17:00,-1.052842,7.066005,7.123433,0.054950003,0.046402223,-0.05372889,10.08861762322382,0.08977451033818404,stand
10/07/2020, 16:17:00,-1.0336994,7.4416785,7.0205417,0.054950003,0.046402223,-0.05372889,10.282758336250515,0.08977451033818404,stand
10/07/2020, 16:17:00,-1.0336994,7.4416785,7.0205417,-0.08303556,-0.025643334,-0.20026223,10.282758336250515,0.218305855967174,stand
10/07/2020, 16:17:00,-1.0504491,7.475178,6.9296145,-0.08303556,-0.025643334,-0.20026223,10.247013405125944,0.218305855967174,stand
10/07/2020, 16:17:00,-1.0504491,7.475178,6.9296145,-0.16362889,-0.11844778,-0.30039334,10.247013405125944,0.3619950983632639,stand
10/07/2020, 16:17:00,-1.1413764,7.223932,6.8458657,-0.16362889,-0.11844778,-0.30039334,10.017674783840077,0.3619950983632639,stand
10/07/2020, 16:17:00,-1.1413764,7.223932,6.8458657,-0.14897557,-0.19904111,-0.30894113,10.017674783840077,0.39655479229766233,stand
10/07/2020, 16:17:00,-1.2083755,6.802795,6.7836523,-0.14897557,-0.19904111,-0.30894113,9.68277484741908,0.39655479229766233,stand
10/07/2020, 16:17:00,-1.2083755,6.802795,6.7836523,-0.051286668,-0.23445335,-0.24788557,9.68277484741908,0.34503036318717195,stand
10/07/2020, 16:17:00,-1.2753744,6.4462643,6.735796,-0.051286668,-0.23445335,-0.24788557,9.410199270203954,0.34503036318717195,stand
10/07/2020, 16:17:00,-1.2753744,6.4462643,6.735796,0.07204556,-0.23323223,-0.18072446,9.410199270203954,0.3037254759202962,stand
10/07/2020, 16:17:00,-1.3471591,6.2811594,6.7836523,0.07204556,-0.23323223,-0.18072446,9.342683757431946,0.3037254759202962,stand
10/07/2020, 16:17:00,-1.3471591,6.2811594,6.7836523,0.15874445,-0.21613668,-0.13676445,9.342683757431946,0.3010305318780181,stand
10/07/2020, 16:17:01,-1.0815558,5.7810597,8.305488,-0.73633003,-0.10867889,-0.5458367,10.177010346872514,0.9230009247728262,stand
10/07/2020, 16:17:01,-1.0815558,5.7810597,8.305488,-0.6789378,-0.046402223,-0.58491224,10.177010346872514,0.8973472136761467,stand
10/07/2020, 16:17:01,-1.1820544,5.651847,8.188239,-0.6789378,-0.046402223,-0.58491224,10.01937549671534,0.8973472136761467,stand
10/07/2020, 16:17:01,-1.1820544,5.651847,8.188239,-0.6191034,-0.018316668,-0.5922389,10.01937549671534,0.8569547268857957,stand
10/07/2020, 16:17:01,-1.3471591,5.386244,8.099705,-0.6191034,-0.018316668,-0.5922389,9.819963196120565,0.8569547268857957,stand
10/07/2020, 16:17:01,-1.3471591,5.386244,8.099705,-0.6020078,0.0036633336,-0.47501224,9.819963196120565,0.7668529517872108,stand
10/07/2020, 16:17:01,-1.375873,5.127819,8.159525,-0.6020078,0.0036633336,-0.47501224,9.734752263655572,0.7668529517872108,stand
10/07/2020, 16:17:01,-1.375873,5.127819,8.159525,-0.51653004,0.08303556,-0.23445335,9.734752263655572,0.5732944762385851,stand
10/07/2020, 16:17:01,-1.2777673,4.8909297,8.276773,-0.51653004,0.08303556,-0.23445335,9.698394783818783,0.5732944762385851,stand
10/07/2020, 16:17:01,-1.2777673,4.8909297,8.276773,-0.32237336,0.19782001,0.025643334,9.698394783818783,0.37909750664842906,stand
10/07/2020, 16:17:01,-1.2131611,4.807181,8.3581295,-0.32237336,0.19782001,0.025643334,9.717976984415253,0.37909750664842906,stand
10/07/2020, 16:17:01,-1.2131611,4.807181,8.3581295,-0.054950003,0.31016225,0.17950334,9.717976984415253,0.3625487134172933,stand
10/07/2020, 16:17:01,-1.1940185,4.895715,8.338987,-0.054950003,0.31016225,0.17950334,9.74332683675504,0.3625487134172933,stand
10/07/2020, 16:17:01,-1.1940185,4.895715,8.338987,0.22102112,0.36999667,0.2283478,9.74332683675504,0.4877402811055527,stand
10/07/2020, 16:17:01,-1.2658032,5.0656056,8.267202,0.22102112,0.36999667,0.2283478,9.77799843721287,0.4877402811055527,stand
10/07/2020, 16:17:01,-1.2658032,5.0656056,8.267202,0.42861003,0.3712178,0.2515489,9.77799843721287,0.6203112467830403,stand
10/07/2020, 16:17:01,-1.3351951,5.276174,8.078169,0.42861003,0.3712178,0.2515489,9.740511841651802,0.6203112467830403,stand
10/07/2020, 16:17:01,-1.3351951,5.276174,8.078169,0.47501224,0.35168,0.24910668,9.740511841651802,0.6413810071648482,stand
10/07/2020, 16:17:01,-1.3567305,5.54417,7.836494,0.47501224,0.35168,0.24910668,9.694801451338027,0.6413810071648482,stand
10/07/2020, 16:17:01,-1.3567305,5.54417,7.836494,0.39564002,0.32725778,0.22468445,9.694801451338027,0.5604567590063921,stand
10/07/2020, 16:17:02,-0.7752745,5.8887367,7.8053875,-0.068382226,-0.03052778,-0.03052778,9.808279398854754,0.08087038707856584,stand
10/07/2020, 16:17:02,-0.7752745,5.8887367,7.8053875,-0.06594,-0.03174889,-0.02198,9.808279398854754,0.07641463286778118,stand
10/07/2020, 16:17:02,-0.7585248,5.895915,7.84128,-0.06594,-0.03174889,-0.02198,9.839860043359012,0.07641463286778118,stand
10/07/2020, 16:17:02,-0.7585248,5.895915,7.84128,-0.039075557,-0.028085556,-0.013432222,9.839860043359012,0.04996120709366084,stand
10/07/2020, 16:17:02,-0.7369894,5.9294147,7.91785,-0.039075557,-0.028085556,-0.013432222,9.91934783705145,0.04996120709366084,stand
10/07/2020, 16:17:02,-0.7369894,5.9294147,7.91785,-0.0048844446,-0.0061055557,-0.0061055557,9.91934783705145,0.009920353822583439,stand
10/07/2020, 16:17:02,-0.71306115,5.8911295,7.9537425,-0.0048844446,-0.0061055557,-0.0061055557,9.923501536389653,0.009920353822583439,stand
10/07/2020, 16:17:02,-0.71306115,5.8911295,7.9537425,0.02075889,0.01099,0.008547778,9.923501536389653,0.024995521962634028,stand
10/07/2020, 16:17:02,-0.6843473,5.922236,7.9537425,0.02075889,0.01099,0.008547778,9.9399813804754,0.024995521962634028,stand
10/07/2020, 16:17:02,-0.6843473,5.922236,7.9537425,0.04029667,0.024422223,0.0048844446,9.9399813804754,0.04737218994846708,stand
10/07/2020, 16:17:02,-0.70348984,5.9413786,7.8987074,0.04029667,0.024422223,0.0048844446,9.908806990543827,0.04737218994846708,stand
10/07/2020, 16:17:02,-0.70348984,5.9413786,7.8987074,0.04396,0.03297,-0.0036633336,9.908806990543827,0.055071976838762124,stand
10/07/2020, 16:17:02,-0.74895346,5.9246287,7.826923,0.04396,0.03297,-0.0036633336,9.844941793205232,0.055071976838762124,stand
10/07/2020, 16:17:02,-0.74895346,5.9246287,7.826923,0.029306669,0.026864445,-0.0024422223,9.844941793205232,0.03983144086933014,stand
10/07/2020, 16:17:02,-0.75613195,5.895915,7.7790666,0.029306669,0.026864445,-0.0024422223,9.790169874184704,0.03983144086933014,stand
10/07/2020, 16:17:02,-0.75613195,5.895915,7.7790666,0.009768889,0.018316668,-0.009768889,9.790169874184704,0.02294259586539336,stand
10/07/2020, 16:17:02,-0.73459655,5.922236,7.7623167,0.009768889,0.018316668,-0.009768889,9.791122077461917,0.02294259586539336,stand
10/07/2020, 16:17:02,-0.73459655,5.922236,7.7623167,-0.008547778,0.013432222,-0.01099,9.791122077461917,0.019346038850737098,stand
10/07/2020, 16:17:02,-0.7322037,5.922236,7.716853,-0.008547778,0.013432222,-0.01099,9.754938417855541,0.019346038850737098,stand
10/07/2020, 16:17:02,-0.7322037,5.922236,7.716853,-0.013432222,0.0061055557,-0.013432222,9.754938417855541,0.01995312026846149,stand
10/07/2020, 16:17:03,-1.0169497,6.580262,6.5946193,0.07448778,-0.09402556,0.12943779,9.371394793781937,0.17647486224401485,stand
10/07/2020, 16:17:03,-1.0360922,6.6257257,6.7166533,0.07448778,-0.09402556,0.12943779,9.491425647165087,0.17647486224401485,stand
10/07/2020, 16:17:03,-1.0360922,6.6257257,6.7166533,0.02075889,-0.08059334,0.11600556,9.491425647165087,0.14277082488497073,stand
10/07/2020, 16:17:03,-1.0241281,6.6281185,6.8458657,0.02075889,-0.08059334,0.11600556,9.583666882618289,0.14277082488497073,stand
10/07/2020, 16:17:03,-1.0241281,6.6281185,6.8458657,-0.047623336,-0.06349778,0.098910004,9.583666882618289,0.12681931761766035,stand
10/07/2020, 16:17:03,-1.0504491,6.597012,6.920043,-0.047623336,-0.06349778,0.098910004,9.61826420319431,0.12681931761766035,stand
10/07/2020, 16:17:03,-1.0504491,6.597012,6.920043,-0.09646778,-0.047623336,0.10501556,9.61826420319431,0.15034055480699993,stand
10/07/2020, 16:17:03,-1.0815558,6.5228343,7.0133634,-0.09646778,-0.047623336,0.10501556,9.63869264988643,0.15034055480699993,stand
10/07/2020, 16:17:03,-1.0815558,6.5228343,7.0133634,-0.11966889,-0.024422223,0.117226675,9.63869264988643,0.1692902312796178,stand
10/07/2020, 16:17:03,-1.0648061,6.431907,7.085148,-0.11966889,-0.024422223,0.117226675,9.628216975985548,0.1692902312796178,stand
10/07/2020, 16:17:03,-1.0648061,6.431907,7.085148,-0.11478445,0.01099,0.13676445,9.628216975985548,0.17888757701481978,stand
10/07/2020, 16:17:03,-1.0241281,6.4151573,7.190432,-0.11478445,0.01099,0.13676445,9.690479612317443,0.17888757701481978,stand
10/07/2020, 16:17:03,-1.0241281,6.4151573,7.190432,-0.08303556,0.045181114,0.15630223,9.690479612317443,0.18266533252869538,stand
10/07/2020, 16:17:03,-0.9834501,6.4295144,7.2693954,-0.08303556,0.045181114,0.15630223,9.754482991290258,0.18266533252869538,stand
10/07/2020, 16:17:03,-0.9834501,6.4295144,7.2693954,-0.05006556,0.06716111,0.17584,9.754482991290258,0.1947739271495057,stand
10/07/2020, 16:17:03,-0.930808,6.45105,7.3268228,-0.05006556,0.06716111,0.17584,9.806364201519672,0.1947739271495057,stand
10/07/2020, 16:17:03,-0.930808,6.45105,7.3268228,-0.023201112,0.08792,0.18438779,9.806364201519672,0.20558957871700442,stand
10/07/2020, 16:17:03,-0.9212367,6.465407,7.350751,-0.023201112,0.08792,0.18438779,9.8327871173044,0.20558957871700442,stand
10/07/2020, 16:17:03,-0.9212367,6.465407,7.350751,-0.0061055557,0.085477784,0.19293556,9.8327871173044,0.2111110093076489,stand
10/07/2020, 16:17:03,-0.9523434,6.4797635,7.353144,-0.0061055557,0.085477784,0.19293556,9.846980361777035,0.2111110093076489,stand
10/07/2020, 16:17:04,1.0073783,6.558727,7.3100734,-0.11478445,-0.12211112,0.068382226,9.872632929038192,0.18100476263701396,stand
10/07/2020, 16:17:04,1.0073783,6.558727,7.3100734,-0.16362889,-0.12821667,0.089141116,9.872632929038192,0.22618591177818712,stand
10/07/2020, 16:17:04,0.9954142,6.4199433,7.200003,-0.16362889,-0.12821667,0.089141116,9.697760934247118,0.22618591177818712,stand
10/07/2020, 16:17:04,0.9954142,6.4199433,7.200003,-0.19049335,-0.15386,0.12455334,9.697760934247118,0.2747255884827888,stand
10/07/2020, 16:17:04,0.95473623,6.317052,7.1162543,-0.19049335,-0.15386,0.12455334,9.56335409301417,0.2747255884827888,stand
10/07/2020, 16:17:04,0.95473623,6.317052,7.1162543,-0.18438779,-0.20148334,0.1526389,9.56335409301417,0.31287861115907856,stand
10/07/2020, 16:17:04,0.9212367,6.2404814,7.068398,-0.18438779,-0.20148334,0.1526389,9.473887012624804,0.31287861115907856,stand
10/07/2020, 16:17:04,0.9212367,6.2404814,7.068398,-0.15508112,-0.26620224,0.16240779,9.473887012624804,0.34826724910295137,stand
10/07/2020, 16:17:04,0.8925229,6.209375,7.1162543,-0.15508112,-0.26620224,0.16240779,9.486517246446683,0.34826724910295137,stand
10/07/2020, 16:17:04,0.8925229,6.209375,7.1162543,-0.12211112,-0.32970002,0.1746189,9.486517246446683,0.39256208523372127,stand
10/07/2020, 16:17:04,0.89491564,6.1998034,7.135397,-0.12211112,-0.32970002,0.1746189,9.494857837317607,0.39256208523372127,stand
10/07/2020, 16:17:04,0.89491564,6.1998034,7.135397,-0.08425667,-0.38220778,0.21125223,9.494857837317607,0.4447577747244365,stand
10/07/2020, 16:17:04,0.89730847,6.2644095,7.164111,-0.08425667,-0.38220778,0.21125223,9.558895217965354,0.4447577747244365,stand
10/07/2020, 16:17:04,0.89730847,6.2644095,7.164111,-0.037854444,-0.42128336,0.23567446,9.558895217965354,0.484205618595631,stand
10/07/2020, 16:17:04,1.0241281,6.3696938,7.1138616,-0.037854444,-0.42128336,0.23567446,9.60358595401339,0.484205618595631,stand
10/07/2020, 16:17:04,1.0241281,6.3696938,7.1138616,0.0012211112,-0.43471557,0.22590557,9.60358595401339,0.4899106474103306,stand
10/07/2020, 16:17:04,1.1653047,6.4462643,7.1018977,0.0012211112,-0.43471557,0.22590557,9.661739446290431,0.4899106474103306,stand
10/07/2020, 16:17:04,1.1653047,6.4462643,7.1018977,0.008547778,-0.42983112,0.19537778,9.661739446290431,0.47222910931580314,stand
10/07/2020, 16:17:04,1.3136597,6.623333,7.109076,0.008547778,-0.42983112,0.19537778,9.804754119997664,0.47222910931580314,stand
10/07/2020, 16:17:04,1.3136597,6.623333,7.109076,-0.019537779,-0.40907225,0.16362889,9.804754119997664,0.4410172838133898,stand
10/07/2020, 16:17:05,1.5098711,5.938986,7.4129643,0.02198,0.0,-0.02198,9.617863785954702,0.031084415034091855,stand
10/07/2020, 16:17:05,1.5098711,5.938986,7.4129643,0.018316668,0.01099,-0.0048844446,9.617863785954702,0.021912056407680205,stand
10/07/2020, 16:17:05,1.538585,5.9150577,7.379465,0.018316668,0.01099,-0.0048844446,9.581839904767646,0.021912056407680205,stand
10/07/2020, 16:17:05,1.538585,5.9150577,7.379465,0.012211111,0.015874445,-0.007326667,9.581839904767646,0.02132578981387731,stand
10/07/2020, 16:17:05,1.5218352,5.9557357,7.3340015,0.012211111,0.015874445,-0.007326667,9.56944870598864,0.02132578981387731,stand
10/07/2020, 16:17:05,1.5218352,5.9557357,7.3340015,0.0036633336,0.009768889,0.0024422223,9.56944870598864,0.010715206988016186,stand
10/07/2020, 16:17:05,1.4979069,5.9964137,7.365108,0.0036633336,0.009768889,0.0024422223,9.614859257969096,0.010715206988016186,stand
10/07/2020, 16:17:05,1.4979069,5.9964137,7.365108,-0.015874445,-0.0012211112,-0.0024422223,9.614859257969096,0.016107562829622297,stand
10/07/2020, 16:17:05,1.4835501,6.053841,7.381858,-0.015874445,-0.0012211112,-0.0024422223,9.661352839635171,0.016107562829622297,stand
10/07/2020, 16:17:05,1.4835501,6.053841,7.381858,-0.025643334,-0.02198,-0.014653334,9.661352839635171,0.036816045494786766,stand
10/07/2020, 16:17:05,1.4644074,6.0801625,7.3986077,-0.025643334,-0.02198,-0.014653334,9.687737705462123,0.036816045494786766,stand
10/07/2020, 16:17:05,1.4644074,6.0801625,7.3986077,-0.028085556,-0.048844445,-0.034191113,9.687737705462123,0.06590607339887666,stand
10/07/2020, 16:17:05,1.4691931,6.101698,7.3986077,-0.028085556,-0.048844445,-0.034191113,9.701991664156623,0.06590607339887666,stand
10/07/2020, 16:17:05,1.4691931,6.101698,7.3986077,-0.03174889,-0.06716111,-0.047623336,9.701991664156623,0.08824165306861269,stand
10/07/2020, 16:17:05,1.5122639,6.1232333,7.389036,-0.03174889,-0.06716111,-0.047623336,9.714874368952445,0.08824165306861269,stand
10/07/2020, 16:17:05,1.5122639,6.1232333,7.389036,-0.03297,-0.078151114,-0.05006556,9.714874368952445,0.09849455673343059,stand
10/07/2020, 16:17:05,1.4859428,6.128019,7.408179,-0.03297,-0.078151114,-0.05006556,9.728399377684498,0.09849455673343059,stand
10/07/2020, 16:17:05,1.4859428,6.128019,7.408179,-0.03174889,-0.085477784,-0.05372889,9.728399377684498,0.10583589779576787,stand
10/07/2020, 16:17:05,1.4907285,6.0897336,7.3866434,-0.03174889,-0.085477784,-0.05372889,9.688633940976615,0.10583589779576787,stand
10/07/2020, 16:17:05,1.4907285,6.0897336,7.3866434,-0.03174889,-0.07570889,-0.04151778,9.688633940976615,0.09199757528173512,stand
10/07/2020, 16:17:06,0.6891329,6.6735826,7.5828547,-0.07448778,0.5592689,-0.47501224,10.124786142070668,0.7375410185003922,stand
10/07/2020, 16:17:06,0.6891329,6.6735826,7.5828547,-0.064718895,0.5324045,-0.5104245,10.124786142070668,0.7403892442506511,stand
10/07/2020, 16:17:06,0.5694918,6.759724,7.597212,-0.064718895,0.5324045,-0.5104245,10.185078255639983,0.7403892442506511,stand
10/07/2020, 16:17:06,0.5694918,6.759724,7.597212,-0.02075889,0.49699223,-0.53484666,10.185078255639983,0.7304061623656167,stand
10/07/2020, 16:17:06,0.47377887,6.6999035,7.60439,-0.02075889,0.49699223,-0.53484666,10.145931334246953,0.7304061623656167,stand
10/07/2020, 16:17:06,0.47377887,6.6999035,7.60439,0.035412222,0.45059,-0.54095227,10.145931334246953,0.7049217970095142,stand
10/07/2020, 16:17:06,0.33499518,6.558727,7.6067834,0.035412222,0.45059,-0.54095227,10.04949115069454,0.7049217970095142,stand
10/07/2020, 16:17:06,0.33499518,6.558727,7.6067834,0.10379445,0.39808223,-0.53118336,10.04949115069454,0.6718619728723698,stand
10/07/2020, 16:17:06,0.24885355,6.381658,7.5349984,0.10379445,0.39808223,-0.53118336,9.87743332280847,0.6718619728723698,stand
10/07/2020, 16:17:06,0.24885355,6.381658,7.5349984,0.17217667,0.34069002,-0.49943447,9.87743332280847,0.6286090084755408,stand
10/07/2020, 16:17:06,0.15314065,6.2931237,7.4105716,0.17217667,0.34069002,-0.49943447,9.723344553724228,0.6286090084755408,stand
10/07/2020, 16:17:06,0.15314065,6.2931237,7.4105716,0.20514667,0.27963445,-0.47501224,9.723344553724228,0.5881472693921153,stand
10/07/2020, 16:17:06,0.076570325,6.2668023,7.314859,0.20514667,0.27963445,-0.47501224,9.632540430349684,0.5881472693921153,stand
10/07/2020, 16:17:06,0.076570325,6.2668023,7.314859,0.2185789,0.22346334,-0.45059,9.632540430349684,0.5484012799202483,stand
10/07/2020, 16:17:06,0.040677983,6.2931237,7.2263246,0.2185789,0.22346334,-0.45059,9.58252719802928,0.5484012799202483,stand
10/07/2020, 16:17:06,0.040677983,6.2931237,7.2263246,0.2283478,0.17217667,-0.42006224,9.58252719802928,0.508173012392732,stand
10/07/2020, 16:17:06,0.08853444,6.3696938,7.2215385,0.2283478,0.17217667,-0.42006224,9.62971732873099,0.508173012392732,stand
10/07/2020, 16:17:06,0.08853444,6.3696938,7.2215385,0.23689556,0.123332225,-0.42250445,9.62971732873099,0.49984033347131657,stand
10/07/2020, 16:17:06,0.124426775,6.4677997,7.2095747,0.23689556,0.123332225,-0.42250445,9.686376095127052,0.49984033347131657,stand
10/07/2020, 16:17:06,0.124426775,6.4677997,7.2095747,0.25399113,0.07693,-0.42861003,9.686376095127052,0.5041193041519506,stand
10/07/2020, 16:17:07,3.0987053,7.580462,8.221739,0.49943447,0.5092034,-0.17217667,11.60441155104295,0.7337354254169396,stand
10/07/2020, 16:17:07,3.0987053,7.580462,8.221739,0.47867557,0.5128667,-0.26742333,11.60441155104295,0.7507847699338291,stand
10/07/2020, 16:17:07,2.9336007,7.3866434,7.9226356,0.47867557,0.5128667,-0.26742333,11.222150768044182,0.7507847699338291,stand
10/07/2020, 16:17:07,2.9336007,7.3866434,7.9226356,0.47257003,0.49943447,-0.3394689,11.222150768044182,0.7668092054749784,stand
10/07/2020, 16:17:07,2.7732813,7.200003,7.6713896,0.47257003,0.49943447,-0.3394689,10.880319516031193,0.7668092054749784,stand
10/07/2020, 16:17:07,2.7732813,7.200003,7.6713896,0.47623336,0.48111778,-0.40296668,10.880319516031193,0.7878164017669418,stand
10/07/2020, 16:17:07,2.57707,7.0636125,7.3746796,0.47623336,0.48111778,-0.40296668,10.531942340647793,0.7878164017669418,stand
10/07/2020, 16:17:07,2.57707,7.0636125,7.3746796,0.46280113,0.43105224,-0.4481478,10.531942340647793,0.7751305503901207,stand
10/07/2020, 16:17:07,2.3521447,6.943971,7.109076,0.46280113,0.43105224,-0.4481478,10.212261361115475,0.7751305503901207,stand
10/07/2020, 16:17:07,2.3521447,6.943971,7.109076,0.44204223,0.36511225,-0.48356003,10.212261361115475,0.7500257225182373,stand
10/07/2020, 16:17:07,2.120041,6.879365,6.960721,0.44204223,0.36511225,-0.48356003,10.013584413480832,0.7500257225182373,stand
10/07/2020, 16:17:07,2.120041,6.879365,6.960721,0.41029334,0.27719223,-0.51164556,10.013584413480832,0.7120093644104956,stand
10/07/2020, 16:17:07,1.8592232,6.788438,6.8075805,0.41029334,0.27719223,-0.51164556,9.791973820580212,0.7120093644104956,stand
10/07/2020, 16:17:07,1.8592232,6.788438,6.8075805,0.38831335,0.18438779,-0.53851,9.791973820580212,0.6890422070765106,stand
10/07/2020, 16:17:07,1.6127625,6.7669024,6.7764735,0.38831335,0.18438779,-0.53851,9.711465638336461,0.6890422070765106,stand
10/07/2020, 16:17:07,1.6127625,6.7669024,6.7764735,0.38831335,0.08425667,-0.5592689,9.711465638336461,0.6860525782941983,stand
10/07/2020, 16:17:07,1.3519448,6.6975107,6.7334027,0.38831335,0.08425667,-0.5592689,9.592868022655066,0.6860525782941983,stand
10/07/2020, 16:17:07,1.3519448,6.6975107,6.7334027,0.40663,-0.018316668,-0.57636446,9.592868022655066,0.7056057347111351,stand
10/07/2020, 16:17:07,1.105484,6.6161547,6.6999035,0.40663,-0.018316668,-0.57636446,9.480733319272522,0.7056057347111351,stand
10/07/2020, 16:17:07,1.105484,6.6161547,6.6999035,0.44082114,-0.10013112,-0.5922389,9.480733319272522,0.7450479428804522,stand
10/07/2020, 16:17:08,-2.2588246,7.0803623,7.066005,-3.8843546,0.8095967,-1.8072445,10.254864650771161,4.360021818860404,stand
10/07/2020, 16:17:08,-2.2588246,7.0803623,7.066005,-4.216497,0.92193896,-1.6240778,10.254864650771161,4.611555769050047,stand
10/07/2020, 16:17:08,-2.2061825,6.745367,7.0468626,-4.216497,0.92193896,-1.6240778,10.001274434327254,4.611555769050047,stand
10/07/2020, 16:17:08,-2.2061825,6.745367,7.0468626,-4.512006,1.1051056,-1.405499,10.001274434327254,4.853337228370094,stand
10/07/2020, 16:17:08,-2.0697916,6.3888364,7.0229344,-4.512006,1.1051056,-1.405499,9.717143382991006,4.853337228370094,stand
10/07/2020, 16:17:08,-2.0697916,6.3888364,7.0229344,-4.756228,1.1551712,-1.2809457,9.717143382991006,5.059342514969271,stand
10/07/2020, 16:17:08,-1.7587247,5.804988,6.867401,-4.756228,1.1551712,-1.2809457,9.162543059838644,5.059342514969271,stand
10/07/2020, 16:17:08,-1.7587247,5.804988,6.867401,-5.195828,1.053819,-1.4042778,9.162543059838644,5.484446982555004,stand
10/07/2020, 16:17:08,-1.4715859,5.144569,6.8099732,-5.195828,1.053819,-1.4042778,8.660709547971418,5.484446982555004,stand
10/07/2020, 16:17:08,-1.4715859,5.144569,6.8099732,-5.4656935,0.9268234,-1.5031879,8.660709547971418,5.7438994220071296,stand
10/07/2020, 16:17:08,-1.6845472,4.5415773,6.8219376,-5.4656935,0.9268234,-1.5031879,8.366747040269743,5.7438994220071296,stand
10/07/2020, 16:17:08,-1.6845472,4.5415773,6.8219376,-5.177511,0.79616445,-1.5337156,8.366747040269743,5.458276630876303,stand
10/07/2020, 16:17:08,-1.9573289,3.4360933,6.812366,-5.177511,0.79616445,-1.5337156,7.876941316032618,5.458276630876303,stand
10/07/2020, 16:17:08,-1.9573289,3.4360933,6.812366,-4.2995324,0.41273558,-1.3212423,7.876941316032618,4.51685852510574,stand
10/07/2020, 16:17:08,-2.7397819,2.0554347,6.8195443,-4.2995324,0.41273558,-1.3212423,7.631343336003515,4.51685852510574,stand
10/07/2020, 16:17:08,-2.7397819,2.0554347,6.8195443,-3.2591457,-0.06227667,-1.0330601,7.631343336003515,3.4195207899183346,stand
10/07/2020, 16:17:08,-3.4121652,1.3950156,7.1784678,-3.2591457,-0.06227667,-1.0330601,8.069655437215973,3.4195207899183346,stand
10/07/2020, 16:17:08,-3.4121652,1.3950156,7.1784678,-2.57166,-0.58491224,-0.7815111,8.069655437215973,2.7506939747703796,stand
10/07/2020, 16:17:08,-4.007978,0.8709874,7.216753,-2.57166,-0.58491224,-0.7815111,8.300845160272166,2.7506939747703796,stand
10/07/2020, 16:17:08,-4.007978,0.8709874,7.216753,-2.3433123,-1.1392968,-0.6386411,8.300845160272166,2.682717274229512,stand
10/07/2020, 16:17:09,-4.615755,7.01097,5.383851,0.06349778,-0.17217667,0.74732006,9.97219880843852,0.769521956413634,stand
10/07/2020, 16:17:09,-4.2568316,6.843473,5.3072805,0.06349778,-0.17217667,0.74732006,9.649920441063779,0.769521956413634,stand
10/07/2020, 16:17:09,-4.2568316,6.843473,5.3072805,0.017095556,-0.29917222,0.6520734,9.649920441063779,0.7176321997266794,stand
10/07/2020, 16:17:09,-3.818945,7.058827,5.343173,0.017095556,-0.29917222,0.6520734,9.641622058409709,0.7176321997266794,stand
10/07/2020, 16:17:09,-3.818945,7.058827,5.343173,-0.10867889,-0.5360678,0.41884112,9.641622058409709,0.6889177434842395,stand
10/07/2020, 16:17:09,-3.9984066,7.355537,4.924429,-0.10867889,-0.5360678,0.41884112,9.712938780475,0.6889177434842395,stand
10/07/2020, 16:17:09,-3.9984066,7.355537,4.924429,-0.11844778,-0.9329289,0.2845189,9.712938780475,0.9825157755321056,stand
10/07/2020, 16:17:09,-4.273581,7.62114,4.814359,-0.11844778,-0.9329289,0.2845189,9.976137736771697,0.9825157755321056,stand
10/07/2020, 16:17:09,-4.273581,7.62114,4.814359,-0.091583334,-1.0513767,0.25765446,9.976137736771697,1.0863545890134285,stand
10/07/2020, 16:17:09,-3.6107693,7.097112,5.1613183,-0.091583334,-1.0513767,0.25765446,9.489249845441023,1.0863545890134285,stand
10/07/2020, 16:17:09,-3.6107693,7.097112,5.1613183,0.1526389,-1.0196278,0.26620224,9.489249845441023,1.0648019234276327,stand
10/07/2020, 16:17:09,-3.182454,6.759724,5.4867425,0.1526389,-1.0196278,0.26620224,9.269640113352116,1.0648019234276327,stand
10/07/2020, 16:17:09,-3.182454,6.759724,5.4867425,0.60811335,-0.8877478,0.2515489,9.269640113352116,1.1050678197108623,stand
10/07/2020, 16:17:09,-3.2303107,6.5754766,5.1900325,0.60811335,-0.8877478,0.2515489,8.978209029250607,1.1050678197108623,stand
10/07/2020, 16:17:09,-3.2303107,6.5754766,5.1900325,0.99398446,-0.7815111,0.36755446,8.978209029250607,1.3167615690028363,stand
10/07/2020, 16:17:09,-3.3786657,6.3960147,5.070391,0.99398446,-0.7815111,0.36755446,8.833643214126626,1.3167615690028363,stand
10/07/2020, 16:17:09,-3.3786657,6.3960147,5.070391,1.34078,-0.61788225,0.41029334,8.833643214126626,1.5322565593958015,stand
10/07/2020, 16:17:09,-3.1896327,6.6927247,5.278567,1.34078,-0.61788225,0.41029334,9.101076216475855,1.5322565593958015,stand
10/07/2020, 16:17:09,-3.1896327,6.6927247,5.278567,1.6668167,-0.49943447,0.39075556,9.101076216475855,1.7833683442347141,stand
10/07/2020, 16:17:09,-2.993421,7.2119675,5.3503513,1.6668167,-0.49943447,0.39075556,9.46569088365994,1.7833683442347141,stand
10/07/2020, 16:17:10,-5.599205,2.8713872,7.2957163,1.3004833,1.130749,-0.48478112,9.63449208031914,1.7902130979032345,stand
10/07/2020, 16:17:10,-5.5130634,1.7946169,7.4273214,1.3004833,1.130749,-0.48478112,9.422293883603603,1.7902130979032345,stand
10/07/2020, 16:17:10,-5.5130634,1.7946169,7.4273214,1.3493278,0.9280445,-0.40296668,9.422293883603603,1.6865154173400587,stand
10/07/2020, 16:17:10,-4.8095737,1.4979069,6.879365,1.3493278,0.9280445,-0.40296668,8.526510787129787,1.6865154173400587,stand
10/07/2020, 16:17:10,-4.8095737,1.4979069,6.879365,1.1832567,0.59590226,-0.39197668,8.526510787129787,1.381608394165993,stand
10/07/2020, 16:17:10,-4.759324,1.4333007,6.6305118,1.1832567,0.59590226,-0.39197668,8.28668829154016,1.381608394165993,stand
10/07/2020, 16:17:10,-4.759324,1.4333007,6.6305118,0.9829945,0.17339778,-0.3174889,8.28668829154016,1.047446503596647,stand
10/07/2020, 16:17:10,-5.032106,1.861616,6.597012,0.9829945,0.17339778,-0.3174889,8.50342707981087,1.047446503596647,stand
10/07/2020, 16:17:10,-5.032106,1.861616,6.597012,0.77418447,-0.28329778,-0.21735778,8.50342707981087,0.852562973345271,stand
10/07/2020, 16:17:10,-5.1158547,2.2660031,6.611369,0.77418447,-0.28329778,-0.21735778,8.66123211376981,0.852562973345271,stand
10/07/2020, 16:17:10,-5.1158547,2.2660031,6.611369,0.6203245,-0.6569578,-0.1965989,8.66123211376981,0.9246876024357793,stand
10/07/2020, 16:17:10,-5.0344987,2.4789643,6.836294,0.6203245,-0.6569578,-0.1965989,8.844566651607341,0.9246876024357793,stand
10/07/2020, 16:17:10,-5.0344987,2.4789643,6.836294,0.5153089,-0.96223557,-0.19293556,8.844566651607341,1.1084514876239364,stand
10/07/2020, 16:17:10,-4.9292145,2.7349963,6.984649,0.5153089,-0.96223557,-0.19293556,8.975671808632503,1.1084514876239364,stand
10/07/2020, 16:17:10,-4.9292145,2.7349963,6.984649,0.44326335,-1.07702,-0.16851334,8.975671808632503,1.176797064912487,stand
10/07/2020, 16:17:10,-4.8382874,2.8091738,7.3866434,0.44326335,-1.07702,-0.16851334,9.266228086020556,1.176797064912487,stand
10/07/2020, 16:17:10,-4.8382874,2.8091738,7.3866434,0.3712178,-1.053819,-0.12699556,9.266228086020556,1.1244842726283593,stand
10/07/2020, 16:17:10,-4.6612186,2.7972097,8.116454,0.3712178,-1.053819,-0.12699556,9.76873426405434,1.1244842726283593,stand
10/07/2020, 16:17:10,-4.6612186,2.7972097,8.116454,0.30772,-0.8669889,-0.09402556,9.76873426405434,0.9247714072981237,stand
10/07/2020, 16:17:10,-4.54397,2.7732813,8.305488,0.30772,-0.8669889,-0.09402556,9.86508380745672,0.9247714072981237,stand
10/07/2020, 16:17:11,-4.503292,3.6849468,7.4249287,0.02198,-0.9683412,-0.21735778,9.43334712665701,0.9926792794279663,stand
10/07/2020, 16:17:11,-4.4171505,3.2590244,8.683554,0.02198,-0.9683412,-0.21735778,10.27309900774091,0.9926792794279663,stand
10/07/2020, 16:17:11,-4.4171505,3.2590244,8.683554,0.14042778,-1.0880101,-0.27841336,10.27309900774091,1.1318126510280428,stand
10/07/2020, 16:17:11,-4.5678983,3.2087753,8.360522,0.14042778,-1.0880101,-0.27841336,10.052873523380173,1.1318126510280428,stand
10/07/2020, 16:17:11,-4.5678983,3.2087753,8.360522,0.19904111,-1.0623667,-0.30405667,10.052873523380173,1.1228049172544197,stand
10/07/2020, 16:17:11,-4.168297,3.2925239,8.29113,0.19904111,-1.0623667,-0.30405667,9.846738011853517,1.1228049172544197,stand
10/07/2020, 16:17:11,-4.168297,3.2925239,8.29113,0.02075889,-0.9854367,-0.30161446,9.846738011853517,1.0307704216762401,stand
10/07/2020, 16:17:11,-4.0534415,3.2183464,8.817552,0.02075889,-0.9854367,-0.30161446,10.224351222144621,1.0307704216762401,stand
10/07/2020, 16:17:11,-4.0534415,3.2183464,8.817552,-0.03174889,-0.77906895,-0.2869611,10.224351222144621,0.8308448072657086,stand
10/07/2020, 16:17:11,-3.940979,3.2183464,9.15494,-0.03174889,-0.77906895,-0.2869611,10.47387172002215,0.8308448072657086,stand
10/07/2020, 16:17:11,-3.940979,3.2183464,9.15494,-0.04151778,-0.5653745,-0.29062447,10.47387172002215,0.6370515099170074,stand
10/07/2020, 16:17:11,-3.9840498,3.141776,8.961121,-0.04151778,-0.5653745,-0.29062447,10.297819781820047,0.6370515099170074,stand
10/07/2020, 16:17:11,-3.9840498,3.141776,8.961121,-0.068382226,-0.47501224,-0.2613178,10.297819781820047,0.546442811980501,stand
10/07/2020, 16:17:11,-3.926622,3.0532417,8.7577305,-0.068382226,-0.47501224,-0.2613178,10.0716675851389,0.546442811980501,stand
10/07/2020, 16:17:11,-3.926622,3.0532417,8.7577305,-0.16607112,-0.44692668,-0.22468445,10.0716675851389,0.5270732176535372,stand
10/07/2020, 16:17:11,-3.8907297,3.0675986,8.930014,-0.16607112,-0.44692668,-0.22468445,10.212398459491668,0.5270732176535372,stand
10/07/2020, 16:17:11,-3.8907297,3.0675986,8.930014,-0.15019667,-0.34557447,-0.19171445,10.212398459491668,0.4227708409189323,stand
10/07/2020, 16:17:11,-3.8117664,2.9503503,9.140582,-0.15019667,-0.34557447,-0.19171445,10.333652337373957,0.4227708409189323,stand
10/07/2020, 16:17:11,-3.8117664,2.9503503,9.140582,-0.17584,-0.19171445,-0.13676445,10.333652337373957,0.29390245552398536,stand
10/07/2020, 16:17:11,-3.8213377,2.8570302,9.126225,-0.17584,-0.19171445,-0.13676445,10.298215110877932,0.29390245552398536,stand
10/07/2020, 16:17:12,-0.9619147,9.037691,5.245067,0.31382558,0.80471224,0.44570556,10.493610900368491,0.971957676280597,stand
10/07/2020, 16:17:12,-0.9619147,9.037691,5.245067,0.31993112,1.1991311,0.37488112,10.493610900368491,1.2964595034635786,stand
10/07/2020, 16:17:12,-1.2418749,8.8701935,4.95075,0.31993112,1.1991311,0.37488112,10.233890270280472,1.2964595034635786,stand
10/07/2020, 16:17:12,-1.2418749,8.8701935,4.95075,0.29917222,1.4628912,0.34191114,10.233890270280472,1.5318152529187434,stand
10/07/2020, 16:17:12,-1.5481563,8.647661,4.752146,0.29917222,1.4628912,0.34191114,9.988078973965065,1.5318152529187434,stand
10/07/2020, 16:17:12,-1.5481563,8.647661,4.752146,0.29184556,1.6228567,0.3382478,9.988078973965065,1.6832258895529417,stand
10/07/2020, 16:17:12,-1.7467605,8.331808,4.584648,0.29184556,1.6228567,0.3382478,9.668981164021398,1.6832258895529417,stand
10/07/2020, 16:17:12,-1.7467605,8.331808,4.584648,0.27963445,1.6753645,0.36511225,9.668981164021398,1.7373395073177353,stand
10/07/2020, 16:17:12,-1.8783658,8.200203,4.4482574,0.27963445,1.6753645,0.36511225,9.516227220205678,1.7373395073177353,stand
10/07/2020, 16:17:12,-1.8783658,8.200203,4.4482574,0.21613668,1.614309,0.44448447,9.516227220205678,1.6882757200121061,stand
10/07/2020, 16:17:12,-1.9573289,8.094919,4.2927237,0.21613668,1.614309,0.44448447,9.369435938137059,1.6882757200121061,stand
10/07/2020, 16:17:12,-1.9573289,8.094919,4.2927237,0.08059334,1.4983034,0.57270116,9.369435938137059,1.6060495071108882,stand
10/07/2020, 16:17:12,-2.009971,8.209774,4.249653,0.08059334,1.4983034,0.57270116,9.460439836517255,1.6060495071108882,stand
10/07/2020, 16:17:12,-2.009971,8.209774,4.249653,-0.07693,1.2467545,0.63131446,9.460439836517255,1.3995974488671274,stand
10/07/2020, 16:17:12,-2.07697,8.446664,4.1611185,-0.07693,1.2467545,0.63131446,9.642346308616078,1.3995974488671274,stand
10/07/2020, 16:17:12,-2.07697,8.446664,4.1611185,-0.25521225,0.8486723,0.6068922,9.642346308616078,1.074102458311592,stand
10/07/2020, 16:17:12,-1.9860427,8.666803,4.125226,-0.25521225,0.8486723,0.6068922,9.801802689324695,1.074102458311592,stand
10/07/2020, 16:17:12,-1.9860427,8.666803,4.125226,-0.4591378,0.4713489,0.53118336,9.801802689324695,0.8456554129363201,stand
10/07/2020, 16:17:12,-1.8448663,8.860622,4.0941195,-0.4591378,0.4713489,0.53118336,9.933578201091352,0.8456554129363201,stand
10/07/2020, 16:17:12,-1.8448663,8.860622,4.0941195,-0.64108336,0.19782001,0.44204223,9.933578201091352,0.8034438151336215,stand
10/07/2020, 16:17:13,0.086141616,8.56152,4.5726843,0.03174889,0.098910004,-0.15386,9.706517409844349,0.18564504138710622,stand
10/07/2020, 16:17:13,-0.014356935,8.556734,4.57747,0.03174889,0.098910004,-0.15386,9.704181280768507,0.18564504138710622,stand
10/07/2020, 16:17:13,-0.014356935,8.556734,4.57747,0.023201112,0.10135223,-0.14775445,9.704181280768507,0.18067081188790918,stand
10/07/2020, 16:17:13,-0.06699903,8.513663,4.5248275,0.023201112,0.10135223,-0.14775445,9.641629283758826,0.18067081188790918,stand
10/07/2020, 16:17:13,-0.06699903,8.513663,4.5248275,0.029306669,0.09280445,-0.13188,9.641629283758826,0.16390204588715412,stand
10/07/2020, 16:17:13,-0.15314065,8.484949,4.4889355,0.029306669,0.09280445,-0.13188,9.60043515418252,0.16390204588715412,stand
10/07/2020, 16:17:13,-0.15314065,8.484949,4.4889355,0.02198,0.05617111,-0.11112112,9.60043515418252,0.12643661299829503,stand
10/07/2020, 16:17:13,-0.22013968,8.513663,4.4578285,0.02198,0.05617111,-0.11112112,9.612656201967917,0.12643661299829503,stand
10/07/2020, 16:17:13,-0.22013968,8.513663,4.4578285,-0.009768889,0.009768889,-0.10135223,9.612656201967917,0.10228947582145864,stand
10/07/2020, 16:17:13,-0.2321038,8.590233,4.436293,-0.009768889,0.009768889,-0.10135223,9.670918739497395,0.10228947582145864,stand
10/07/2020, 16:17:13,-0.2321038,8.590233,4.436293,-0.03052778,-0.025643334,-0.09768889,9.670918739497395,0.10551135167868034,stand
10/07/2020, 16:17:13,-0.21296121,8.592627,4.4243293,-0.03052778,-0.025643334,-0.09768889,9.667123329256922,0.10551135167868034,stand
10/07/2020, 16:17:13,-0.21296121,8.592627,4.4243293,-0.019537779,-0.04029667,-0.09402556,9.667123329256922,0.10414582223913757,stand
10/07/2020, 16:17:13,-0.18903299,8.563912,4.493721,-0.019537779,-0.04029667,-0.09402556,9.673151369776008,0.10414582223913757,stand
10/07/2020, 16:17:13,-0.18903299,8.563912,4.493721,0.0024422223,-0.045181114,-0.09280445,9.673151369776008,0.10324709623775707,stand
10/07/2020, 16:17:13,-0.17228323,8.573483,4.5822554,0.0024422223,-0.045181114,-0.09280445,9.722724129006822,0.10324709623775707,stand
10/07/2020, 16:17:13,-0.17228323,8.573483,4.5822554,-0.012211111,-0.04029667,-0.11112112,9.722724129006822,0.11883112277052049,stand
10/07/2020, 16:17:13,-0.148355,8.633304,4.6707897,-0.012211111,-0.04029667,-0.11112112,9.816935243928048,0.11883112277052049,stand
10/07/2020, 16:17:13,-0.148355,8.633304,4.6707897,-0.04029667,-0.03052778,-0.12943779,9.816935243928048,0.13896009593716677,stand
10/07/2020, 16:17:13,-0.14117654,8.63809,4.7042894,-0.04029667,-0.03052778,-0.12943779,9.83701535389302,0.13896009593716677,stand
10/07/2020, 16:17:14,0.46660042,8.504091,4.8047876,-0.13310112,-0.04151778,-0.03052778,9.778715068026933,0.14272904272222942,stand
10/07/2020, 16:17:14,0.44985065,8.480164,4.8095737,-0.13310112,-0.04151778,-0.03052778,9.759484543244486,0.14272904272222942,stand
10/07/2020, 16:17:14,0.44985065,8.480164,4.8095737,-0.10135223,-0.045181114,-0.025643334,9.759484543244486,0.11389112396862885,stand
10/07/2020, 16:17:14,0.43788654,8.480164,4.8191447,-0.10135223,-0.045181114,-0.025643334,9.763660929806228,0.11389112396862885,stand
10/07/2020, 16:17:14,0.43788654,8.480164,4.8191447,-0.09402556,-0.05006556,-0.018316668,9.763660929806228,0.10808730882423209,stand
10/07/2020, 16:17:14,0.4761717,8.484949,4.843073,-0.09402556,-0.05006556,-0.018316668,9.781434248203553,0.10808730882423209,stand
10/07/2020, 16:17:14,0.4761717,8.484949,4.843073,-0.11356334,-0.04029667,-0.028085556,9.781434248203553,0.1237305598782901,stand
10/07/2020, 16:17:14,0.4977071,8.492127,4.895715,-0.11356334,-0.04029667,-0.028085556,9.814885028718743,0.1237305598782901,stand
10/07/2020, 16:17:14,0.4977071,8.492127,4.895715,-0.15141778,-0.012211111,-0.04151778,9.814885028718743,0.15748073027328457,stand
10/07/2020, 16:17:14,0.46899325,8.504091,4.895715,-0.15141778,-0.012211111,-0.04151778,9.823825657560485,0.15748073027328457,stand
10/07/2020, 16:17:14,0.46899325,8.504091,4.895715,-0.19415668,0.0061055557,-0.05617111,9.823825657560485,0.20221099536965506,stand
10/07/2020, 16:17:14,0.44027936,8.482556,4.922036,-0.19415668,0.0061055557,-0.05617111,9.817028476102978,0.20221099536965506,stand
10/07/2020, 16:17:14,0.44027936,8.482556,4.922036,-0.24055889,0.02198,-0.064718895,9.817028476102978,0.2500804600730795,stand
10/07/2020, 16:17:14,0.4426722,8.52802,4.9052863,-0.24055889,0.02198,-0.064718895,9.84809199671818,0.2500804600730795,stand
10/07/2020, 16:17:14,0.4426722,8.52802,4.9052863,-0.27841336,0.036633335,-0.07326667,9.84809199671818,0.2902137188752192,stand
10/07/2020, 16:17:14,0.42592242,8.506484,4.9028935,-0.27841336,0.036633335,-0.07326667,9.827514720848,0.2902137188752192,stand
10/07/2020, 16:17:14,0.42592242,8.506484,4.9028935,-0.32481557,0.051286668,-0.07693,9.827514720848,0.3377183778657471,stand
10/07/2020, 16:17:14,0.4331009,8.475378,4.938786,-0.32481557,0.051286668,-0.07693,9.818921361699793,0.3377183778657471,stand
10/07/2020, 16:17:14,0.4331009,8.475378,4.938786,-0.36267,0.07448778,-0.07204556,9.818921361699793,0.37718499996554233,stand
10/07/2020, 16:17:14,0.38524446,8.429914,5.0392847,-0.36267,0.07448778,-0.07204556,9.828848441683602,0.37718499996554233,stand
10/07/2020, 16:17:15,-1.5888343,3.9457645,8.7577305,-0.02198,0.03052778,-0.03174889,9.736082139958565,0.049224565436491195,stand
10/07/2020, 16:17:15,-1.5744773,3.95055,8.745767,-0.02198,0.03052778,-0.03174889,9.72492976123543,0.049224565436491195,stand
10/07/2020, 16:17:15,-1.5744773,3.95055,8.745767,-0.009768889,0.02075889,-0.029306669,9.72492976123543,0.03721885988857961,stand
10/07/2020, 16:17:15,-1.564906,3.9553359,8.740981,-0.009768889,0.02075889,-0.029306669,9.721026856627335,0.03721885988857961,stand
10/07/2020, 16:17:15,-1.564906,3.9553359,8.740981,-0.0024422223,0.013432222,-0.036633335,9.721026856627335,0.0390946324466633,stand
10/07/2020, 16:17:15,-1.5840486,3.9194436,8.717052,-0.0024422223,0.013432222,-0.036633335,9.688046853464465,0.0390946324466633,stand
10/07/2020, 16:17:15,-1.5840486,3.9194436,8.717052,0.0036633336,0.01099,-0.035412222,9.688046853464465,0.03725889957705619,stand
10/07/2020, 16:17:15,-1.6247265,3.9314077,8.71466,0.0036633336,0.01099,-0.035412222,9.697473705184377,0.03725889957705619,stand
10/07/2020, 16:17:15,-1.6247265,3.9314077,8.71466,-0.0036633336,0.0,-0.03297,9.697473705184377,0.033172894310050806,stand
10/07/2020, 16:17:15,-1.6319051,3.9625144,8.7266245,-0.0036633336,0.0,-0.03297,9.722068171412204,0.033172894310050806,stand
10/07/2020, 16:17:15,-1.6319051,3.9625144,8.7266245,-0.012211111,-0.013432222,-0.04029667,9.722068171412204,0.044196803698518194,stand
10/07/2020, 16:17:15,-1.6414764,3.912265,8.79123,-0.012211111,-0.013432222,-0.04029667,9.761454355040645,0.044196803698518194,stand
10/07/2020, 16:17:15,-1.6414764,3.912265,8.79123,-0.019537779,-0.019537779,-0.045181114,9.761454355040645,0.0529601988832508,stand
10/07/2020, 16:17:15,-1.6295122,3.912265,8.819944,-0.019537779,-0.019537779,-0.045181114,9.78532302964485,0.0529601988832508,stand
10/07/2020, 16:17:15,-1.6295122,3.912265,8.819944,-0.019537779,-0.017095556,-0.035412222,9.78532302964485,0.04390909154536214,stand
10/07/2020, 16:17:15,-1.6342978,3.842873,8.863015,-0.019537779,-0.017095556,-0.035412222,9.79753239752724,0.04390909154536214,stand
10/07/2020, 16:17:15,-1.6342978,3.842873,8.863015,-0.014653334,-0.012211111,-0.03297,9.79753239752724,0.0380900558375813,stand
10/07/2020, 16:17:15,-1.6366907,3.7830527,8.896515,-0.014653334,-0.012211111,-0.03297,9.805010015292853,0.0380900558375813,stand
10/07/2020, 16:17:15,-1.6366907,3.7830527,8.896515,-0.008547778,-0.014653334,-0.026864445,9.805010015292853,0.03177236406261148,stand
10/07/2020, 16:17:15,-1.6534405,3.7734814,8.949157,-0.008547778,-0.014653334,-0.026864445,9.851925384624922,0.03177236406261148,stand
10/07/2020, 16:17:16,0.062213387,4.7425747,8.877372,1.4152678,1.0086378,-0.9597934,10.064969700671009,1.9853303375698075,stand
10/07/2020, 16:17:16,-0.41635114,4.3788652,8.451449,1.4152678,1.0086378,-0.9597934,9.527581326979018,1.9853303375698075,stand
10/07/2020, 16:17:16,-0.41635114,4.3788652,8.451449,1.6045401,0.80227005,-0.87920004,9.527581326979018,1.9977935120761372,stand
10/07/2020, 16:17:16,-0.715454,4.1754756,8.228917,1.6045401,0.80227005,-0.87920004,9.255352390054236,1.9977935120761372,stand
10/07/2020, 16:17:16,-0.715454,4.1754756,8.228917,1.8841745,0.56659555,-0.76075226,9.255352390054236,2.1094757507913044,stand
10/07/2020, 16:17:16,-0.8853444,4.211368,7.7096744,1.8841745,0.56659555,-0.76075226,8.829413034433326,2.1094757507913044,stand
10/07/2020, 16:17:16,-0.8853444,4.211368,7.7096744,2.067341,0.4371578,-0.6667267,8.829413034433326,2.2157460670432614,stand
10/07/2020, 16:17:16,-0.930808,4.426722,7.1042905,2.067341,0.4371578,-0.6667267,8.422185877391756,2.2157460670432614,stand
10/07/2020, 16:17:16,-0.930808,4.426722,7.1042905,2.1051955,0.3724389,-0.59956557,8.422185877391756,2.2203688419934475,stand
10/07/2020, 16:17:16,-0.8997013,4.666004,6.7118673,2.1051955,0.3724389,-0.59956557,8.223759513088243,2.2203688419934475,stand
10/07/2020, 16:17:16,-0.8997013,4.666004,6.7118673,1.9720945,0.33336335,-0.59956557,8.223759513088243,2.0880054721205408,stand
10/07/2020, 16:17:16,-0.9236295,4.814359,6.3457656,1.9720945,0.33336335,-0.59956557,8.018721021338687,2.0880054721205408,stand
10/07/2020, 16:17:16,-0.9236295,4.814359,6.3457656,1.7327567,0.26376,-0.58247,8.018721021338687,1.846966847931577,stand
10/07/2020, 16:17:16,-1.1318051,4.898108,6.216553,1.7327567,0.26376,-0.58247,7.994872016526701,1.846966847931577,stand
10/07/2020, 16:17:16,-1.1318051,4.898108,6.216553,1.5434844,0.14287001,-0.48356003,7.994872016526701,1.6237568732422836,stand
10/07/2020, 16:17:16,-1.5601203,4.87418,6.3457656,1.5434844,0.14287001,-0.48356003,8.152321481240165,1.6237568732422836,stand
10/07/2020, 16:17:16,-1.5601203,4.87418,6.3457656,1.5788968,0.0061055557,-0.3504589,8.152321481240165,1.6173353682025235,stand
10/07/2020, 16:17:16,-1.8424734,4.9052863,6.6999035,1.5788968,0.0061055557,-0.3504589,8.505601021609527,1.6173353682025235,stand
10/07/2020, 16:17:16,-1.8424734,4.9052863,6.6999035,1.7535156,-0.06227667,-0.19782001,8.505601021609527,1.7657372688126736,stand
10/07/2020, 16:17:16,-1.8137596,4.9603214,6.855437,1.7535156,-0.06227667,-0.19782001,8.653989031597973,1.7657372688126736,stand
10/07/2020, 16:17:17,0.22492532,6.9296145,7.123433,0.04396,-0.07937223,-0.36999667,9.940495382300591,0.38095927038025323,stand
10/07/2020, 16:17:17,0.22492532,6.9296145,7.123433,0.13676445,-0.05250778,-0.29795113,9.940495382300591,0.33201876362710275,stand
10/07/2020, 16:17:17,0.33020952,6.884151,7.0325055,0.13676445,-0.05250778,-0.29795113,9.84665967984365,0.33201876362710275,stand
10/07/2020, 16:17:17,0.33020952,6.884151,7.0325055,0.16607112,-0.02198,-0.27108666,9.84665967984365,0.31867022949462287,stand
10/07/2020, 16:17:17,0.39960137,6.9559355,6.9152575,0.16607112,-0.02198,-0.27108666,9.816593364603852,0.31867022949462287,stand
10/07/2020, 16:17:17,0.39960137,6.9559355,6.9152575,0.12089001,-0.028085556,-0.28818223,9.816593364603852,0.3137709181876836,stand
10/07/2020, 16:17:17,0.39481574,6.960721,6.778867,0.12089001,-0.028085556,-0.28818223,9.72422496599195,0.3137709181876836,stand
10/07/2020, 16:17:17,0.39481574,6.960721,6.778867,0.01099,-0.054950003,-0.27719223,9.72422496599195,0.28279996115857986,stand
10/07/2020, 16:17:17,0.3278167,6.9559355,6.7166533,0.01099,-0.054950003,-0.27719223,9.675015986886224,0.28279996115857986,stand
10/07/2020, 16:17:17,0.3278167,6.9559355,6.7166533,-0.09646778,-0.09280445,-0.2613178,9.675015986886224,0.29360804603345575,stand
10/07/2020, 16:17:17,0.3493521,6.8889365,6.7932234,-0.09646778,-0.09280445,-0.2613178,9.681290056599167,0.29360804603345575,stand
10/07/2020, 16:17:17,0.3493521,6.8889365,6.7932234,-0.15141778,-0.109900005,-0.2625389,9.681290056599167,0.32238491516590534,stand
10/07/2020, 16:17:17,0.31106696,6.927222,6.812366,-0.15141778,-0.109900005,-0.2625389,9.720673577935896,0.32238491516590534,stand
10/07/2020, 16:17:17,0.31106696,6.927222,6.812366,-0.19415668,-0.10013112,-0.27475002,9.720673577935896,0.3510137195705067,stand
10/07/2020, 16:17:17,0.29671,6.991828,6.8650084,-0.19415668,-0.10013112,-0.27475002,9.803164531149452,0.3510137195705067,stand
10/07/2020, 16:17:17,0.29671,6.991828,6.8650084,-0.2515489,-0.081814446,-0.2942878,9.803164531149452,0.39569654458056097,stand
10/07/2020, 16:17:17,0.29671,6.984649,6.876972,-0.2515489,-0.081814446,-0.2942878,9.80643195245456,0.39569654458056097,stand
10/07/2020, 16:17:17,0.29671,6.984649,6.876972,-0.29795113,-0.085477784,-0.31016225,9.80643195245456,0.43849965528467144,stand
10/07/2020, 16:17:17,0.18664017,6.910472,6.927222,-0.29795113,-0.085477784,-0.31016225,9.786514097451526,0.43849965528467144,stand
10/07/2020, 16:17:17,0.18664017,6.910472,6.927222,-0.30161446,-0.09768889,-0.32970002,9.786514097451526,0.4574019119296516,stand
10/07/2020, 16:17:18,-0.7896315,4.658826,9.01137,0.070824444,0.051286668,-0.12821667,10.175114759780348,0.15519645093120338,stand
10/07/2020, 16:17:18,-0.7896315,4.658826,9.01137,0.09402556,0.07448778,-0.12455334,10.175114759780348,0.17292417306516283,stand
10/07/2020, 16:17:18,-0.7968099,4.7042894,8.743374,0.09402556,0.07448778,-0.12455334,9.9605136304182,0.17292417306516283,stand
10/07/2020, 16:17:18,-0.7968099,4.7042894,8.743374,0.091583334,0.10379445,-0.12577444,9.9605136304182,0.1870294229561611,stand
10/07/2020, 16:17:18,-0.782453,4.7808595,8.465807,0.091583334,0.10379445,-0.12577444,9.753908830586294,0.1870294229561611,stand
10/07/2020, 16:17:18,-0.782453,4.7808595,8.465807,0.070824444,0.12943779,-0.117226675,9.753908830586294,0.18844717185784218,stand
10/07/2020, 16:17:18,-0.76570326,4.8693943,8.236095,0.070824444,0.12943779,-0.117226675,9.59846707878388,0.18844717185784218,stand
10/07/2020, 16:17:18,-0.76570326,4.8693943,8.236095,0.026864445,0.11112112,-0.11234222,9.59846707878388,0.16028217762367528,stand
10/07/2020, 16:17:18,-0.75613195,4.912465,8.054241,0.026864445,0.11112112,-0.11234222,9.46439907381393,0.16028217762367528,stand
10/07/2020, 16:17:18,-0.75613195,4.912465,8.054241,-0.0024422223,0.08669889,-0.102573335,9.46439907381393,0.13432777456185824,stand
10/07/2020, 16:17:18,-0.7298109,4.938786,7.946564,-0.0024422223,0.08669889,-0.102573335,9.384674418127394,0.13432777456185824,stand
10/07/2020, 16:17:18,-0.7298109,4.938786,7.946564,-0.0061055557,0.048844445,-0.09768889,9.384674418127394,0.10939002280691057,stand
10/07/2020, 16:17:18,-0.74416786,4.938786,7.989635,-0.0061055557,0.048844445,-0.09768889,9.42229592737806,0.10939002280691057,stand
10/07/2020, 16:17:18,-0.74416786,4.938786,7.989635,0.01099,0.007326667,-0.09646778,9.42229592737806,0.09736781998404447,stand
10/07/2020, 16:17:18,-0.7369894,4.9052863,8.080562,0.01099,0.007326667,-0.09646778,9.481585496735997,0.09736781998404447,stand
10/07/2020, 16:17:18,-0.7369894,4.9052863,8.080562,0.03174889,-0.024422223,-0.09646778,9.481585496735997,0.10445319164513346,stand
10/07/2020, 16:17:18,-0.72502524,4.9052863,8.2456665,0.03174889,-0.024422223,-0.09646778,9.621772783175961,0.10445319164513346,stand
10/07/2020, 16:17:18,-0.72502524,4.9052863,8.2456665,0.036633335,-0.048844445,-0.09402556,9.621772783175961,0.11210970954541281,stand
10/07/2020, 16:17:18,-0.7298109,4.867001,8.348558,0.036633335,-0.048844445,-0.09402556,9.691168712631237,0.11210970954541281,stand
10/07/2020, 16:17:18,-0.7298109,4.867001,8.348558,0.026864445,-0.06716111,-0.08669889,9.691168712631237,0.11291151836643097,stand
10/07/2020, 16:17:19,1.0552348,6.151947,11.9019,-0.20026223,-1.1112112,2.6168413,13.439315576483224,2.850044512738109,stand
10/07/2020, 16:17:19,1.1222339,6.754938,12.303894,-0.20026223,-1.1112112,2.6168413,14.080994515840002,2.850044512738109,stand
10/07/2020, 16:17:19,1.1222339,6.754938,12.303894,0.12455334,-0.7265611,2.074668,14.080994515840002,2.201738320171657,stand
10/07/2020, 16:17:19,0.8925229,7.0468626,12.031113,0.12455334,-0.7265611,2.074668,13.971490318171355,2.201738320171657,stand
10/07/2020, 16:17:19,0.8925229,7.0468626,12.031113,0.28329778,-0.44082114,1.3920667,13.971490318171355,1.4874241674452182,stand
10/07/2020, 16:17:19,0.8662018,7.2670026,11.535798,0.28329778,-0.44082114,1.3920667,13.661415347651138,1.4874241674452182,stand
10/07/2020, 16:17:19,0.8662018,7.2670026,11.535798,0.21613668,-0.32481557,0.47379112,13.661415347651138,0.613757482313726,stand
10/07/2020, 16:17:19,0.59342,7.5326056,10.865808,0.21613668,-0.32481557,0.47379112,13.234729635670018,0.613757482313726,stand
10/07/2020, 16:17:19,0.59342,7.5326056,10.865808,-0.39930335,-0.49821335,-0.08669889,13.234729635670018,0.6443418372204204,stand
10/07/2020, 16:17:19,0.18424734,6.1040907,10.281959,-0.39930335,-0.49821335,-0.08669889,11.95878515922306,0.6443418372204204,stand
10/07/2020, 16:17:19,0.18424734,6.1040907,10.281959,-0.64841,-0.47623336,-0.014653334,11.95878515922306,0.8046418416619319,stand
10/07/2020, 16:17:19,0.2943172,5.4053864,10.07139,-0.64841,-0.47623336,-0.014653334,11.43405985861824,0.8046418416619319,stand
10/07/2020, 16:17:19,0.2943172,5.4053864,10.07139,-0.68626446,-0.52996224,0.24300112,11.43405985861824,0.9004823283685355,stand
10/07/2020, 16:17:19,0.29671,4.8047876,9.745967,-0.68626446,-0.52996224,0.24300112,10.870045634414044,0.9004823283685355,stand
10/07/2020, 16:17:19,0.29671,4.8047876,9.745967,-0.72411895,-0.5653745,0.7424356,10.870045634414044,1.1811888719294454,stand
10/07/2020, 16:17:19,0.49052864,4.24726,9.614362,-0.72411895,-0.5653745,0.7424356,10.522157039458252,1.1811888719294454,stand
10/07/2020, 16:17:19,0.49052864,4.24726,9.614362,-0.5458367,-0.31871,1.0684723,10.522157039458252,1.241429311830603,stand
10/07/2020, 16:17:19,1.0695918,4.735396,9.71486,-0.5458367,-0.31871,1.0684723,10.860317906652874,1.241429311830603,stand
10/07/2020, 16:17:19,1.0695918,4.735396,9.71486,-0.20026223,-0.1526389,0.82791334,10.860317906652874,0.8653577873917859,stand
10/07/2020, 16:17:19,1.2610176,5.2570314,9.683753,-0.20026223,-0.1526389,0.82791334,11.09060941907786,0.8653577873917859,stand
10/07/2020, 16:17:20,1.1174482,2.3114667,9.040084,-0.5128667,0.9072856,-0.34557447,9.397589341520774,1.098007763140416,stand
10/07/2020, 16:17:20,1.105484,2.225325,9.241081,-0.5128667,0.9072856,-0.34557447,9.569312889208861,1.098007763140416,stand
10/07/2020, 16:17:20,1.105484,2.225325,9.241081,-0.5910178,1.23088,0.013432222,9.569312889208861,1.365484556021023,stand
10/07/2020, 16:17:20,0.97866446,2.201397,9.064013,-0.5910178,1.23088,0.013432222,9.378712902945258,1.365484556021023,stand
10/07/2020, 16:17:20,0.97866446,2.201397,9.064013,-0.5775856,1.2003523,0.10745778,9.378712902945258,1.3364123409565032,stand
10/07/2020, 16:17:20,0.62931234,1.8233309,9.049655,-0.5775856,1.2003523,0.10745778,9.252935989100152,1.3364123409565032,stand
10/07/2020, 16:17:20,0.62931234,1.8233309,9.049655,-0.48600224,0.9072856,0.1526389,9.252935989100152,1.0405113716230443,stand
10/07/2020, 16:17:20,0.5407779,1.4404793,9.085547,-0.48600224,0.9072856,0.1526389,9.214911487798041,1.0405113716230443,stand
10/07/2020, 16:17:20,0.5407779,1.4404793,9.085547,-0.31138334,0.6447467,0.064718895,9.214911487798041,0.7189203375356831,stand
10/07/2020, 16:17:20,0.2656033,1.5984055,9.126225,-0.31138334,0.6447467,0.064718895,9.268950132100441,0.7189203375356831,stand
10/07/2020, 16:17:20,0.2656033,1.5984055,9.126225,-0.12943779,0.36511225,-0.054950003,9.268950132100441,0.39125515408410316,stand
10/07/2020, 16:17:20,-0.12921242,1.6151553,9.15494,-0.12943779,0.36511225,-0.054950003,9.297222307917894,0.39125515408410316,stand
10/07/2020, 16:17:20,-0.12921242,1.6151553,9.15494,-0.06716111,0.06594,-0.09280445,9.297222307917894,0.13217928758660769,stand
10/07/2020, 16:17:20,-0.3684947,1.6438692,9.111869,-0.06716111,0.06594,-0.09280445,9.266296360908235,0.13217928758660769,stand
10/07/2020, 16:17:20,-0.3684947,1.6438692,9.111869,-0.17706113,-0.15508112,-0.10867889,9.266296360908235,0.25925257680386793,stand
10/07/2020, 16:17:20,-0.35174492,1.698904,9.056833,-0.17706113,-0.15508112,-0.10867889,9.221509000558633,0.25925257680386793,stand
10/07/2020, 16:17:20,-0.35174492,1.698904,9.056833,-0.31871,-0.24666445,-0.09646778,9.221509000558633,0.4143976913066848,stand
10/07/2020, 16:17:20,-0.1794617,1.6749759,9.025727,-0.31871,-0.24666445,-0.09646778,9.181585019144885,0.4143976913066848,stand
10/07/2020, 16:17:20,-0.1794617,1.6749759,9.025727,-0.44692668,-0.28574002,-0.046402223,9.181585019144885,0.532488482792353,stand
10/07/2020, 16:17:20,-0.050249275,1.6223338,8.894122,-0.44692668,-0.28574002,-0.046402223,9.041012121792045,0.532488482792353,stand
10/07/2020, 16:17:21,1.0624132,2.6991038,9.516255,-0.106236674,0.7021389,-0.52752,9.948517465988424,0.8846256938511324,stand
10/07/2020, 16:17:21,0.89730847,2.7445676,9.1669035,-0.106236674,0.7021389,-0.52752,9.610927826159276,0.8846256938511324,stand
10/07/2020, 16:17:21,0.89730847,2.7445676,9.1669035,-0.22346334,0.59834445,-0.48356003,9.610927826159276,0.8011131247329362,stand
10/07/2020, 16:17:21,0.7585248,2.696711,9.1669035,-0.22346334,0.59834445,-0.48356003,9.585391494119524,0.8011131247329362,stand
10/07/2020, 16:17:21,0.7585248,2.696711,9.1669035,-0.12699556,0.5104245,-0.46158,9.585391494119524,0.6997979294178412,stand
10/07/2020, 16:17:21,0.7752745,2.6823542,9.071191,-0.12699556,0.5104245,-0.46158,9.491184216899054,0.6997979294178412,stand
10/07/2020, 16:17:21,0.7752745,2.6823542,9.071191,0.051286668,0.4359367,-0.48600224,9.491184216899054,0.654881129214765,stand
10/07/2020, 16:17:21,0.72741807,2.7637103,9.059227,0.051286668,0.4359367,-0.48600224,9.499306558719308,0.654881129214765,stand
10/07/2020, 16:17:21,0.72741807,2.7637103,9.059227,0.24544334,0.37488112,-0.48356003,9.499306558719308,0.65924850144159,stand
10/07/2020, 16:17:21,0.55752766,2.7948167,8.925228,0.24544334,0.37488112,-0.48356003,9.369180040709079,0.65924850144159,stand
10/07/2020, 16:17:21,0.55752766,2.7948167,8.925228,0.33580557,0.2955089,-0.45181113,9.369180040709079,0.6357862722418318,stand
10/07/2020, 16:17:21,0.5240282,2.7206392,8.712267,0.33580557,0.2955089,-0.45181113,9.142214079154147,0.6357862722418318,stand
10/07/2020, 16:17:21,0.5240282,2.7206392,8.712267,0.28085557,0.23811668,-0.4359367,9.142214079154147,0.5706314049283591,stand
10/07/2020, 16:17:21,0.4833502,2.656033,8.559127,0.28085557,0.23811668,-0.4359367,8.974786427009542,0.5706314049283591,stand
10/07/2020, 16:17:21,0.4833502,2.656033,8.559127,0.19782001,0.21003112,-0.43471557,8.974786427009542,0.521750374824829,stand
10/07/2020, 16:17:21,0.35174492,2.6081767,8.673982,0.19782001,0.21003112,-0.43471557,9.06445079317937,0.521750374824829,stand
10/07/2020, 16:17:21,0.35174492,2.6081767,8.673982,0.18683001,0.21125223,-0.43105224,9.06445079317937,0.5151106574207402,stand
10/07/2020, 16:17:21,0.33020952,2.656033,8.810373,0.18683001,0.21125223,-0.43105224,9.20794372430873,0.5151106574207402,stand
10/07/2020, 16:17:21,0.33020952,2.656033,8.810373,0.24788557,0.15386,-0.50798225,9.20794372430873,0.5858038294816489,stand
10/07/2020, 16:17:21,0.33020952,2.792424,8.970692,0.24788557,0.15386,-0.50798225,9.40106266096955,0.5858038294816489,stand
10/07/2020, 16:17:22,-1.1150553,0.043070808,8.537591,0.16240779,0.14287001,-0.68504333,8.610206920736196,0.7183818615969769,stand
10/07/2020, 16:17:22,-1.1150553,0.043070808,8.537591,0.06716111,0.18683001,-0.66306335,8.610206920736196,0.6921481574168055,stand
10/07/2020, 16:17:22,-1.3016955,0.12921242,8.343773,0.06716111,0.18683001,-0.66306335,8.445688423477261,0.6921481574168055,stand
10/07/2020, 16:17:22,-1.3016955,0.12921242,8.343773,-0.03174889,0.23445335,-0.68626446,8.445688423477261,0.7259030707848917,stand
10/07/2020, 16:17:22,-1.4141582,0.21535404,8.224132,-0.03174889,0.23445335,-0.68626446,8.347608110223135,0.7259030707848917,stand
10/07/2020, 16:17:22,-1.4141582,0.21535404,8.224132,-0.123332225,0.2625389,-0.7314456,8.347608110223135,0.7868609775826123,stand
10/07/2020, 16:17:22,-1.3686945,0.33260235,8.126026,-0.123332225,0.2625389,-0.7314456,8.24719650106864,0.7868609775826123,stand
10/07/2020, 16:17:22,-1.3686945,0.33260235,8.126026,-0.18805112,0.23079,-0.7668578,8.24719650106864,0.8226166417917876,stand
10/07/2020, 16:17:22,-1.3543376,0.34217364,7.9776707,-0.18805112,0.23079,-0.7668578,8.099045769151662,0.8226166417917876,stand
10/07/2020, 16:17:22,-1.3543376,0.34217364,7.9776707,-0.22102112,0.13554333,-0.7766267,8.099045769151662,0.8187620954830265,stand
10/07/2020, 16:17:22,-1.3112668,0.33020952,7.9346,-0.22102112,0.13554333,-0.7766267,8.048995843958778,0.8187620954830265,stand
10/07/2020, 16:17:22,-1.3112668,0.33020952,7.9346,-0.20514667,0.025643334,-0.77418447,8.048995843958778,0.8013141228006518,stand
10/07/2020, 16:17:22,-1.18684,0.2632105,7.984849,-0.20514667,0.025643334,-0.77418447,8.076860916441852,0.8013141228006518,stand
10/07/2020, 16:17:22,-1.18684,0.2632105,7.984849,-0.15141778,-0.08059334,-0.7680789,8.076860916441852,0.786999276966325,stand
10/07/2020, 16:17:22,-0.9882358,0.17228323,8.240881,-0.15141778,-0.08059334,-0.7680789,8.301711302577159,0.786999276966325,stand
10/07/2020, 16:17:22,-0.9882358,0.17228323,8.240881,-0.15141778,-0.19782001,-0.7351089,8.301711302577159,0.7761734414093998,stand
10/07/2020, 16:17:22,-0.9212367,0.10767702,8.389236,-0.15141778,-0.19782001,-0.7351089,8.440353049728591,0.7761734414093998,stand
10/07/2020, 16:17:22,-0.9212367,0.10767702,8.389236,-0.2283478,-0.30039334,-0.7106867,8.440353049728591,0.8046455353105043,stand
10/07/2020, 16:17:22,-0.95712906,0.18664017,8.530413,-0.2283478,-0.30039334,-0.7106867,8.585969425870145,0.8046455353105043,stand
10/07/2020, 16:17:22,-0.95712906,0.18664017,8.530413,-0.3162678,-0.36511225,-0.7216767,8.585969425870145,0.8684178345175504,stand
10/07/2020, 16:17:23,0.3397808,1.1030912,9.597611,0.08059334,-0.3834289,-0.24788557,9.666768146093448,0.46363807512184624,stand
10/07/2020, 16:17:23,0.32063824,1.0432707,9.702896,0.08059334,-0.3834289,-0.24788557,9.764088064371128,0.46363807512184624,stand
10/07/2020, 16:17:23,0.32063824,1.0432707,9.702896,0.035412222,-0.43105224,-0.24300112,9.764088064371128,0.49609434651292333,stand
10/07/2020, 16:17:23,0.8039884,1.1796615,9.568898,0.035412222,-0.43105224,-0.24300112,9.674802913102187,0.49609434651292333,stand
10/07/2020, 16:17:23,0.8039884,1.1796615,9.568898,-0.026864445,-0.33214223,-0.21125223,9.674802913102187,0.39454741856282005,stand
10/07/2020, 16:17:23,0.35413775,0.79920274,9.877572,-0.026864445,-0.33214223,-0.21125223,9.916177104007335,0.39454741856282005,stand
10/07/2020, 16:17:23,0.35413775,0.79920274,9.877572,-0.05372889,-0.30649891,-0.14653334,9.916177104007335,0.34394824937802376,stand
10/07/2020, 16:17:23,0.15553348,0.66041905,9.810573,-0.05372889,-0.30649891,-0.14653334,9.834006263725147,0.34394824937802376,stand
10/07/2020, 16:17:23,0.15553348,0.66041905,9.810573,-0.014653334,-0.32237336,-0.1306589,9.834006263725147,0.3481537741945835,stand
10/07/2020, 16:17:23,0.047856454,0.6891329,9.781859,-0.014653334,-0.32237336,-0.1306589,9.806220868094256,0.3481537741945835,stand
10/07/2020, 16:17:23,0.047856454,0.6891329,9.781859,0.02198,-0.35168,-0.06716111,9.806220868094256,0.35870958358690436,stand
10/07/2020, 16:17:23,0.22971097,0.9738788,9.997213,0.02198,-0.35168,-0.06716111,10.047162887359507,0.35870958358690436,stand
10/07/2020, 16:17:23,0.22971097,0.9738788,9.997213,-0.04151778,-0.41151446,-0.03297,10.047162887359507,0.41491553181531093,stand
10/07/2020, 16:17:23,0.45702913,0.86859465,9.82493,-0.04151778,-0.41151446,-0.03297,9.873833376557215,0.41491553181531093,stand
10/07/2020, 16:17:23,0.45702913,0.86859465,9.82493,-0.10745778,-0.2845189,0.045181114,9.873833376557215,0.3074727800615322,stand
10/07/2020, 16:17:23,0.35174492,0.7752745,9.891929,-0.10745778,-0.2845189,0.045181114,9.928495753646475,0.3074727800615322,stand
10/07/2020, 16:17:23,0.35174492,0.7752745,9.891929,-0.15874445,-0.31138334,0.091583334,9.928495753646475,0.3613127333396699,stand
10/07/2020, 16:17:23,0.5814559,0.8805587,9.614362,-0.15874445,-0.31138334,0.091583334,9.672095260756779,0.3613127333396699,stand
10/07/2020, 16:17:23,0.5814559,0.8805587,9.614362,-0.19782001,-0.26986557,0.019537779,9.672095260756779,0.33517444334711566,stand
10/07/2020, 16:17:23,0.61016977,0.92602235,9.743574,-0.19782001,-0.26986557,0.019537779,9.806480592439138,0.33517444334711566,stand
10/07/2020, 16:17:24,5.723632,2.7206392,7.6402826,0.17828223,-0.01099,-0.37610224,9.926517926700535,0.4163630965050389,stand
10/07/2020, 16:17:24,5.7547383,2.5124638,7.5230346,0.17828223,-0.01099,-0.37610224,9.799262055063938,0.4163630965050389,stand
10/07/2020, 16:17:24,5.7547383,2.5124638,7.5230346,0.11478445,0.015874445,-0.31382558,9.799262055063938,0.33453544045383593,stand
10/07/2020, 16:17:24,5.7930236,2.2636101,7.4584284,0.11478445,0.015874445,-0.31382558,9.71139572923009,0.33453544045383593,stand
10/07/2020, 16:17:24,5.7930236,2.2636101,7.4584284,0.13920668,0.013432222,-0.24300112,9.71139572923009,0.28037201573029763,stand
10/07/2020, 16:17:24,5.6685967,2.143969,7.5326056,0.13920668,0.013432222,-0.24300112,9.667974980676343,0.28037201573029763,stand
10/07/2020, 16:17:24,5.6685967,2.143969,7.5326056,0.24300112,-0.012211111,-0.20636779,9.667974980676343,0.3190396836996487,stand
10/07/2020, 16:17:24,5.642276,2.2731814,7.5900335,0.24300112,-0.012211111,-0.20636779,9.726830890660487,0.3190396836996487,stand
10/07/2020, 16:17:24,5.642276,2.2731814,7.5900335,0.3284789,-0.012211111,-0.23323223,9.726830890660487,0.40304438188195846,stand
10/07/2020, 16:17:24,5.6781683,2.3306093,7.7096744,0.3284789,-0.012211111,-0.23323223,9.854563091731716,0.40304438188195846,stand
10/07/2020, 16:17:24,5.6781683,2.3306093,7.7096744,0.3174889,-0.01099,-0.26986557,9.854563091731716,0.416830198633564,stand
10/07/2020, 16:17:24,5.749953,2.4670002,7.7479596,0.3174889,-0.01099,-0.26986557,9.95886165754908,0.416830198633564,stand
10/07/2020, 16:17:24,5.749953,2.4670002,7.7479596,0.23811668,0.017095556,-0.2955089,9.95886165754908,0.379891190947504,stand
10/07/2020, 16:17:24,5.800202,2.6368906,7.7790666,0.23811668,0.017095556,-0.2955089,10.055317542624483,0.379891190947504,stand
10/07/2020, 16:17:24,5.800202,2.6368906,7.7790666,0.12455334,0.057392225,-0.3309211,10.055317542624483,0.35821248545687406,stand
10/07/2020, 16:17:24,5.749953,2.7876384,7.9274216,0.12455334,0.057392225,-0.3309211,10.182185318583901,0.35821248545687406,stand
10/07/2020, 16:17:24,5.749953,2.7876384,7.9274216,0.046402223,0.09036223,-0.3602278,10.182185318583901,0.3742760503235479,stand
10/07/2020, 16:17:24,5.6997037,2.9718857,8.1020975,0.046402223,0.09036223,-0.3602278,10.342277833086708,0.3742760503235479,stand
10/07/2020, 16:17:24,5.6997037,2.9718857,8.1020975,0.028085556,0.13310112,-0.3931978,10.342277833086708,0.41606396186686523,stand
10/07/2020, 16:17:24,5.6781683,2.9240294,8.178668,0.028085556,0.13310112,-0.3931978,10.377001178803045,0.41606396186686523,stand
10/07/2020, 16:17:25,1.8879371,5.0249276,8.559127,-0.19171445,-0.79250115,-0.16973445,10.103111225033604,0.8328398938237064,stand
10/07/2020, 16:17:25,1.8879371,5.0249276,8.559127,-0.24666445,-0.93537116,-0.34557447,10.103111225033604,1.027221627392878,stand
10/07/2020, 16:17:25,1.8951155,5.0392847,8.9108715,-0.24666445,-0.93537116,-0.34557447,10.411027042487754,1.027221627392878,stand
10/07/2020, 16:17:25,1.8951155,5.0392847,8.9108715,-0.24055889,-1.0721356,-0.48722336,10.411027042487754,1.2019691575815785,stand
10/07/2020, 16:17:25,2.0673988,4.74736,9.360723,-0.24055889,-1.0721356,-0.48722336,10.697415267058847,1.2019691575815785,stand
10/07/2020, 16:17:25,2.0673988,4.74736,9.360723,-0.15386,-1.1478444,-0.5971234,10.697415267058847,1.3029873678995747,stand
10/07/2020, 16:17:25,2.2899313,4.3669014,9.7196455,-0.15386,-1.1478444,-0.5971234,10.898858739008988,1.3029873678995747,stand
10/07/2020, 16:17:25,2.2899313,4.3669014,9.7196455,-0.0061055557,-1.1490656,-0.70580226,10.898858739008988,1.3485347215806722,stand
10/07/2020, 16:17:25,2.3904297,4.065406,9.942178,-0.0061055557,-1.1490656,-0.70580226,11.004025530189455,1.3485347215806722,stand
10/07/2020, 16:17:25,2.3904297,4.065406,9.942178,0.123332225,-1.0977789,-0.76441556,11.004025530189455,1.343376543838114,stand
10/07/2020, 16:17:25,2.3282163,3.7974095,9.946963,0.123332225,-1.0977789,-0.76441556,10.898760914613437,1.343376543838114,stand
10/07/2020, 16:17:25,2.3282163,3.7974095,9.946963,0.16485001,-1.02207,-0.7778478,10.898760914613437,1.2949324133091609,stand
10/07/2020, 16:17:25,2.2492533,3.5294135,9.856036,0.16485001,-1.02207,-0.7778478,10.70781718996527,1.2949324133091609,stand
10/07/2020, 16:17:25,2.2492533,3.5294135,9.856036,0.14287001,-0.9292656,-0.74976224,10.70781718996527,1.2025347566681304,stand
10/07/2020, 16:17:25,2.1750758,3.2566316,9.678967,0.14287001,-0.9292656,-0.74976224,10.441217144731665,1.2025347566681304,stand
10/07/2020, 16:17:25,2.1750758,3.2566316,9.678967,0.098910004,-0.8315767,-0.6984756,10.441217144731665,1.0904912507385296,stand
10/07/2020, 16:17:25,2.0673988,3.062813,9.509077,0.098910004,-0.8315767,-0.6984756,10.201838473852883,1.0904912507385296,stand
10/07/2020, 16:17:25,2.0673988,3.062813,9.509077,0.05006556,-0.75953114,-0.6447467,10.201838473852883,0.9975432056988662,stand
10/07/2020, 16:17:25,1.9286151,2.9312077,9.3511505,0.05006556,-0.75953114,-0.6447467,9.98777004223454,0.9975432056988662,stand
10/07/2020, 16:17:25,1.9286151,2.9312077,9.3511505,0.015874445,-0.7082445,-0.6007867,9.98777004223454,0.9288740040551481,stand
10/07/2020, 16:17:26,1.6965113,-0.95473623,10.317851,-0.09402556,0.46158,0.29795113,10.49989154186839,0.5573793923438576,stand
10/07/2020, 16:17:26,1.7395821,-0.9164511,10.3441725,-0.09402556,0.46158,0.29795113,10.529384246518314,0.5573793923438576,stand
10/07/2020, 16:17:26,1.7395821,-0.9164511,10.3441725,-0.14287001,0.56049,0.36633334,10.529384246518314,0.6846612344779357,stand
10/07/2020, 16:17:26,1.7491534,-0.6771688,10.403993,-0.14287001,0.56049,0.36633334,10.571715008377785,0.6846612344779357,stand
10/07/2020, 16:17:26,1.7491534,-0.6771688,10.403993,-0.26009667,0.6838223,0.37854445,10.571715008377785,0.8237469760245562,stand
10/07/2020, 16:17:26,1.7826529,-0.38524446,10.447063,-0.26009667,0.6838223,0.37854445,10.605064787164867,0.8237469760245562,stand
10/07/2020, 16:17:26,1.7826529,-0.38524446,10.447063,-0.41395667,0.85599893,0.34679556,10.605064787164867,1.0121074349023662,stand
10/07/2020, 16:17:26,1.7802601,-0.16031912,10.57149,-0.41395667,0.85599893,0.34679556,10.721540705458267,1.0121074349023662,stand
10/07/2020, 16:17:26,1.7802601,-0.16031912,10.57149,-0.57148004,1.0611455,0.29795113,10.721540705458267,1.2415289662566122,stand
10/07/2020, 16:17:26,1.8783658,0.031106694,10.734202,-0.57148004,1.0611455,0.29795113,10.897354099839639,1.2415289662566122,stand
10/07/2020, 16:17:26,1.8783658,0.031106694,10.734202,-0.7436567,1.3078101,0.20392556,10.897354099839639,1.5182154294336958,stand
10/07/2020, 16:17:26,1.9453648,0.148355,10.722239,-0.7436567,1.3078101,0.20392556,10.898295869710065,1.5182154294336958,stand
10/07/2020, 16:17:26,1.9453648,0.148355,10.722239,-0.9414767,1.5386001,0.18683001,10.898295869710065,1.8134426001565724,stand
10/07/2020, 16:17:26,1.9980069,-0.10049855,10.4016,-0.9414767,1.5386001,0.18683001,10.592233562277597,1.8134426001565724,stand
10/07/2020, 16:17:26,1.9980069,-0.10049855,10.4016,-1.12098,1.735199,0.29062447,10.592233562277597,2.0861386048709067,stand
10/07/2020, 16:17:26,2.065006,-0.3589234,9.95175,-1.12098,1.735199,0.29062447,10.170073744982497,2.0861386048709067,stand
10/07/2020, 16:17:26,2.065006,-0.3589234,9.95175,-1.2345434,1.8292245,0.43227336,10.170073744982497,2.248781874658727,stand
10/07/2020, 16:17:26,1.8975084,-0.57188463,9.458828,-1.2345434,1.8292245,0.43227336,9.664213196474705,2.248781874658727,stand
10/07/2020, 16:17:26,1.8975084,-0.57188463,9.458828,-1.2528601,1.8206767,0.54095227,9.664213196474705,2.275335424837329,stand
10/07/2020, 16:17:26,1.5984055,-0.49052864,9.107083,-1.2528601,1.8206767,0.54095227,9.259291821631345,2.275335424837329,stand
10/07/2020, 16:17:27,0.19142582,-1.8281165,9.920643,-0.08669889,0.05617111,-0.06960334,10.089490003212402,0.12456530839205203,stand
10/07/2020, 16:17:27,0.19142582,-1.8281165,9.920643,-0.05617111,0.0048844446,-0.07570889,10.089490003212402,0.09439749673397117,stand
10/07/2020, 16:17:27,0.25842485,-1.672583,9.966106,-0.05617111,0.0048844446,-0.07570889,10.108787974406866,0.09439749673397117,stand
10/07/2020, 16:17:27,0.25842485,-1.672583,9.966106,-0.07448778,0.019537779,-0.089141116,10.108787974406866,0.11779767863069682,stand
10/07/2020, 16:17:27,0.27996024,-1.5984055,9.990034,-0.07448778,0.019537779,-0.089141116,10.120971258007387,0.11779767863069682,stand
10/07/2020, 16:17:27,0.27996024,-1.5984055,9.990034,-0.09768889,0.048844445,-0.08059334,10.120971258007387,0.13573572023508887,stand
10/07/2020, 16:17:27,0.31106696,-1.7012969,9.937392,-0.09768889,0.048844445,-0.08059334,10.086770459759308,0.13573572023508887,stand
10/07/2020, 16:17:27,0.31106696,-1.7012969,9.937392,-0.07570889,0.09402556,-0.081814446,10.086770459759308,0.1458295072210501,stand
10/07/2020, 16:17:27,0.16510476,-1.6965113,9.798609,-0.07570889,0.09402556,-0.081814446,9.945760106123496,0.1458295072210501,stand
10/07/2020, 16:17:27,0.16510476,-1.6965113,9.798609,-0.068382226,0.117226675,-0.09036223,9.945760106123496,0.16304463965930335,stand
10/07/2020, 16:17:27,0.19142582,-1.7108682,9.65504,-0.068382226,0.117226675,-0.09036223,9.807319066367342,0.16304463965930335,stand
10/07/2020, 16:17:27,0.19142582,-1.7108682,9.65504,-0.085477784,0.08669889,-0.09280445,9.807319066367342,0.1530876037909869,stand
10/07/2020, 16:17:27,0.1698904,-1.713261,9.470792,-0.085477784,0.08669889,-0.09280445,9.626007670223762,0.1530876037909869,stand
10/07/2020, 16:17:27,0.1698904,-1.713261,9.470792,-0.09768889,0.048844445,-0.109900005,9.626007670223762,0.1549416355083536,stand
10/07/2020, 16:17:27,0.17467605,-1.7659031,9.360723,-0.09768889,0.048844445,-0.109900005,9.527436803161153,0.1549416355083536,stand
10/07/2020, 16:17:27,0.17467605,-1.7659031,9.360723,-0.08303556,-0.0048844446,-0.11966889,9.527436803161153,0.14573745518550693,stand
10/07/2020, 16:17:27,0.12921242,-1.8424734,9.458828,-0.08303556,-0.0048844446,-0.11966889,9.637470137265932,0.14573745518550693,stand
10/07/2020, 16:17:27,0.12921242,-1.8424734,9.458828,-0.10013112,-0.039075557,-0.16118668,9.637470137265932,0.1937376721039729,stand
10/07/2020, 16:17:27,0.076570325,-1.8711873,9.669396,-0.10013112,-0.039075557,-0.16118668,9.849082789020553,0.1937376721039729,stand
10/07/2020, 16:17:27,0.076570325,-1.8711873,9.669396,-0.16118668,-0.04029667,-0.19904111,9.849082789020553,0.2592726986340475,stand
10/07/2020, 16:17:28,-0.3397808,-2.6799614,9.444471,-0.53484666,0.3492378,0.028085556,9.823221650180534,0.6393878264246589,stand
10/07/2020, 16:17:28,-0.3397808,-2.6799614,9.444471,-0.43960002,0.26742333,0.03297,9.823221650180534,0.5156068632343176,stand
10/07/2020, 16:17:28,-0.4139583,-2.737389,9.415757,-0.43960002,0.26742333,0.03297,9.814333587128425,0.5156068632343176,stand
10/07/2020, 16:17:28,-0.4139583,-2.737389,9.415757,-0.38831335,0.24666445,-0.0048844446,9.814333587128425,0.46005920124306404,stand
10/07/2020, 16:17:28,-0.47138608,-2.7684958,9.387043,-0.38831335,0.24666445,-0.0048844446,9.7981299280005,0.46005920124306404,stand
10/07/2020, 16:17:28,-0.47138608,-2.7684958,9.387043,-0.4151778,0.2625389,-0.019537779,9.7981299280005,0.49161062156684204,stand
10/07/2020, 16:17:28,-0.5623133,-3.1082766,9.3200445,-0.4151778,0.2625389,-0.019537779,9.840772811793931,0.49161062156684204,stand
10/07/2020, 16:17:28,-0.5623133,-3.1082766,9.3200445,-0.44570556,0.26986557,-0.015874445,9.840772811793931,0.521280034099425,stand
10/07/2020, 16:17:28,-0.6580262,-3.3355947,9.075976,-0.44570556,0.26986557,-0.015874445,9.691879967339075,0.521280034099425,stand
10/07/2020, 16:17:28,-0.6580262,-3.3355947,9.075976,-0.46768558,0.2942878,-0.045181114,9.691879967339075,0.5544154081129581,stand
10/07/2020, 16:17:28,-0.72023964,-3.4432719,8.855837,-0.46768558,0.2942878,-0.045181114,9.528940811206793,0.5544154081129581,stand
10/07/2020, 16:17:28,-0.72023964,-3.4432719,8.855837,-0.5458367,0.28329778,-0.089141116,9.528940811206793,0.6214028146096947,stand
10/07/2020, 16:17:28,-0.8039884,-3.6083765,8.681161,-0.5458367,0.28329778,-0.089141116,9.435535669338954,0.6214028146096947,stand
10/07/2020, 16:17:28,-0.8039884,-3.6083765,8.681161,-0.65329444,0.2735289,-0.09646778,9.435535669338954,0.7147850894163892,stand
10/07/2020, 16:17:28,-0.83030945,-3.804588,8.446664,-0.65329444,0.2735289,-0.09646778,9.301098566455595,0.7147850894163892,stand
10/07/2020, 16:17:28,-0.83030945,-3.804588,8.446664,-0.73755115,0.30405667,-0.05617111,9.301098566455595,0.7997420570445952,stand
10/07/2020, 16:17:28,-0.782453,-4.1874394,8.484949,-0.73755115,0.30405667,-0.05617111,9.494274232820175,0.7997420570445952,stand
10/07/2020, 16:17:28,-0.782453,-4.1874394,8.484949,-0.7973856,0.34557447,0.015874445,9.494274232820175,0.869193570993292,stand
10/07/2020, 16:17:28,-0.863809,-4.362116,8.583055,-0.7973856,0.34557447,0.015874445,9.666594334436612,0.869193570993292,stand
10/07/2020, 16:17:28,-0.863809,-4.362116,8.583055,-0.81936556,0.40785113,0.046402223,9.666594334436612,0.9164363769290353,stand
10/07/2020, 16:17:29,1.5218352,-4.237689,8.4347,0.01099,-0.070824444,-0.04029667,9.561284166441293,0.08222349806396276,stand
10/07/2020, 16:17:29,1.5194423,-4.156333,8.4682,0.01099,-0.070824444,-0.04029667,9.554800645955316,0.08222349806396276,stand
10/07/2020, 16:17:29,1.5194423,-4.156333,8.4682,0.07448778,-0.085477784,-0.06349778,9.554800645955316,0.12994941212184136,stand
10/07/2020, 16:17:29,1.5026926,-4.1347976,8.520842,0.07448778,-0.085477784,-0.06349778,9.589545219039131,0.12994941212184136,stand
10/07/2020, 16:17:29,1.5026926,-4.1347976,8.520842,0.1526389,-0.109900005,-0.07570889,9.589545219039131,0.20275226237203253,stand
10/07/2020, 16:17:29,1.4859428,-4.1036906,8.5112705,0.1526389,-0.109900005,-0.07570889,9.565042016730139,0.20275226237203253,stand
10/07/2020, 16:17:29,1.4859428,-4.1036906,8.5112705,0.23201112,-0.12699556,-0.11844778,9.565042016730139,0.2898049547016214,stand
10/07/2020, 16:17:29,1.4859428,-3.9457645,8.537591,0.23201112,-0.12699556,-0.11844778,9.52195062443804,0.2898049547016214,stand
10/07/2020, 16:17:29,1.4859428,-3.9457645,8.537591,0.2625389,-0.13188,-0.18072446,9.52195062443804,0.3449352736435491,stand
10/07/2020, 16:17:29,1.4380864,-3.8093736,8.616554,0.2625389,-0.13188,-0.18072446,9.530185052853668,0.3449352736435491,stand
10/07/2020, 16:17:29,1.4380864,-3.8093736,8.616554,0.2503278,-0.1306589,-0.23689556,9.530185052853668,0.3685854840214968,stand
10/07/2020, 16:17:29,1.3710874,-3.65384,8.681161,0.2503278,-0.1306589,-0.23689556,9.518034618758142,0.3685854840214968,stand
10/07/2020, 16:17:29,1.3710874,-3.65384,8.681161,0.26620224,-0.12577444,-0.27230778,9.518034618758142,0.4010416096134829,stand
10/07/2020, 16:17:29,1.4117653,-3.5581272,8.724232,0.26620224,-0.12577444,-0.27230778,9.52709658771484,0.4010416096134829,stand
10/07/2020, 16:17:29,1.4117653,-3.5581272,8.724232,0.3162678,-0.10013112,-0.32970002,9.52709658771484,0.4677110856745769,stand
10/07/2020, 16:17:29,1.4644074,-3.5198421,8.702696,0.3162678,-0.10013112,-0.32970002,9.501089037860606,0.4677110856745769,stand
10/07/2020, 16:17:29,1.4644074,-3.5198421,8.702696,0.36755446,-0.08792,-0.39197668,9.501089037860606,0.5444923562788649,stand
10/07/2020, 16:17:29,1.3399807,-3.591627,8.7673025,0.36755446,-0.08792,-0.39197668,9.56874732418013,0.5444923562788649,stand
10/07/2020, 16:17:29,1.3399807,-3.591627,8.7673025,0.45059,-0.091583334,-0.40540892,9.56874732418013,0.6130051057440232,stand
10/07/2020, 16:17:29,1.2442678,-3.7328033,8.946764,0.45059,-0.091583334,-0.40540892,9.773771490864787,0.6130051057440232,stand
10/07/2020, 16:17:30,0.1698904,0.22253251,9.877572,0.0061055557,-0.12943779,0.039075557,9.88153901276716,0.13534518196278097,stand
10/07/2020, 16:17:30,0.1698904,0.22253251,9.877572,0.042738892,-0.12943779,0.059834447,9.88153901276716,0.14886542655807375,stand
10/07/2020, 16:17:30,0.17228323,0.27038896,9.911072,0.042738892,-0.12943779,0.059834447,9.916256122040437,0.14886542655807375,stand
10/07/2020, 16:17:30,0.17228323,0.27038896,9.911072,0.068382226,-0.109900005,0.07448778,9.916256122040437,0.1493404492300981,stand
10/07/2020, 16:17:30,0.18664017,0.2727818,9.939785,0.068382226,-0.109900005,0.07448778,9.945278798397375,0.1493404492300981,stand
10/07/2020, 16:17:30,0.18664017,0.2727818,9.939785,0.09036223,-0.09280445,0.07937223,9.945278798397375,0.15191427888560635,stand
10/07/2020, 16:17:30,0.21296121,0.36131623,9.913465,0.09036223,-0.09280445,0.07937223,9.922332447939246,0.15191427888560635,stand
10/07/2020, 16:17:30,0.21296121,0.36131623,9.913465,0.10379445,-0.07693,0.06960334,9.922332447939246,0.1467519585597521,stand
10/07/2020, 16:17:30,0.22971097,0.4833502,9.9038925,0.10379445,-0.07693,0.06960334,9.91834066373625,0.1467519585597521,stand
10/07/2020, 16:17:30,0.22971097,0.4833502,9.9038925,0.10013112,-0.06594,0.05372889,9.91834066373625,0.13138157311476964,stand
10/07/2020, 16:17:30,0.23449662,0.52163535,9.8632145,0.10013112,-0.06594,0.05372889,9.879781993513587,0.13138157311476964,stand
10/07/2020, 16:17:30,0.23449662,0.52163535,9.8632145,0.11112112,-0.068382226,0.035412222,9.879781993513587,0.13519636526719395,stand
10/07/2020, 16:17:30,0.27038896,0.5407779,9.870394,0.11112112,-0.068382226,0.035412222,9.888893961965579,0.13519636526719395,stand
10/07/2020, 16:17:30,0.27038896,0.5407779,9.870394,0.13920668,-0.07448778,0.036633335,9.888893961965579,0.1620769266891777,stand
10/07/2020, 16:17:30,0.2656033,0.5407779,9.853643,0.13920668,-0.07448778,0.036633335,9.87204510079198,0.1620769266891777,stand
10/07/2020, 16:17:30,0.2656033,0.5407779,9.853643,0.16485001,-0.07448778,0.024422223,9.87204510079198,0.18253876591947904,stand
10/07/2020, 16:17:30,0.23449662,0.53599226,9.9015,0.16485001,-0.07448778,0.024422223,9.918768756171115,0.18253876591947904,stand
10/07/2020, 16:17:30,0.23449662,0.53599226,9.9015,0.15996556,-0.07937223,0.013432222,9.918768756171115,0.17907918746603588,stand
10/07/2020, 16:17:30,0.23688944,0.5838487,9.870394,0.15996556,-0.07937223,0.013432222,9.89048374789509,0.17907918746603588,stand
10/07/2020, 16:17:30,0.23688944,0.5838487,9.870394,0.12455334,-0.085477784,0.008547778,9.89048374789509,0.15130449447428465,stand
10/07/2020, 16:17:31,0.6412765,0.06699903,9.810573,0.078151114,-0.039075557,0.058613338,9.831737364651612,0.10521415860912525,stand
10/07/2020, 16:17:31,0.6412765,0.06699903,9.810573,0.046402223,-0.037854444,0.048844445,9.831737364651612,0.07727810260028103,stand
10/07/2020, 16:17:31,0.6556334,0.1268196,9.80818,0.046402223,-0.037854444,0.048844445,9.830886553444588,0.07727810260028103,stand
10/07/2020, 16:17:31,0.6556334,0.1268196,9.80818,0.008547778,-0.035412222,0.03297,9.830886553444588,0.04913360249465134,stand
10/07/2020, 16:17:31,0.66759753,0.19381863,9.836894,0.008547778,-0.035412222,0.03297,9.861426691329017,0.04913360249465134,stand
10/07/2020, 16:17:31,0.66759753,0.19381863,9.836894,-0.017095556,-0.03297,0.02198,9.861426691329017,0.043155525536248705,stand
10/07/2020, 16:17:31,0.66999036,0.21774685,9.817751,-0.017095556,-0.03297,0.02198,9.842994164114112,0.043155525536248705,stand
10/07/2020, 16:17:31,0.66999036,0.21774685,9.817751,-0.028085556,-0.03174889,0.015874445,9.842994164114112,0.045263545365346644,stand
10/07/2020, 16:17:31,0.6891329,0.22731815,9.829716,-0.028085556,-0.03174889,0.015874445,9.856464327761545,0.045263545365346644,stand
10/07/2020, 16:17:31,0.6891329,0.22731815,9.829716,-0.046402223,-0.03174889,0.008547778,9.856464327761545,0.05687022878444114,stand
10/07/2020, 16:17:31,0.68195444,0.23688944,9.858429,-0.046402223,-0.03174889,0.008547778,9.884826752682988,0.05687022878444114,stand
10/07/2020, 16:17:31,0.68195444,0.23688944,9.858429,-0.045181114,-0.03297,0.0061055557,9.884826752682988,0.05626394757618095,stand
10/07/2020, 16:17:31,0.634098,0.24646074,9.8727865,-0.045181114,-0.03297,0.0061055557,9.896198101631281,0.05626394757618095,stand
10/07/2020, 16:17:31,0.634098,0.24646074,9.8727865,-0.045181114,-0.034191113,-0.01099,9.896198101631281,0.057716075713926604,stand
10/07/2020, 16:17:31,0.60777694,0.2440679,9.877572,-0.045181114,-0.034191113,-0.01099,9.899262181861657,0.057716075713926604,stand
10/07/2020, 16:17:31,0.60777694,0.2440679,9.877572,-0.046402223,-0.026864445,-0.014653334,9.899262181861657,0.05558403496050486,stand
10/07/2020, 16:17:31,0.5910272,0.2727818,9.896714,-0.046402223,-0.026864445,-0.014653334,9.918098367151494,0.05558403496050486,stand
10/07/2020, 16:17:31,0.5910272,0.2727818,9.896714,-0.047623336,-0.02198,-0.02198,9.918098367151494,0.05687022964432304,stand
10/07/2020, 16:17:31,0.59342,0.23928227,9.944571,-0.047623336,-0.02198,-0.02198,9.96513354579132,0.05687022964432304,stand
10/07/2020, 16:17:31,0.59342,0.23928227,9.944571,-0.037854444,-0.017095556,-0.026864445,9.96513354579132,0.04946630566592222,stand
10/07/2020, 16:17:32,0.2536392,-0.05742774,9.88475,0.059834447,-0.035412222,0.05006556,9.888170740193535,0.08567815727771406,stand
10/07/2020, 16:17:32,0.2536392,-0.05742774,9.88475,0.037854444,-0.025643334,0.03174889,9.888170740193535,0.05566445533993444,stand
10/07/2020, 16:17:32,0.27996024,0.009571291,9.848858,0.037854444,-0.025643334,0.03174889,9.8528407518667,0.05566445533993444,stand
10/07/2020, 16:17:32,0.27996024,0.009571291,9.848858,0.0048844446,-0.0048844446,0.02075889,9.8528407518667,0.02187800486807212,stand
10/07/2020, 16:17:32,0.31585258,0.083748795,9.851251,0.0048844446,-0.0048844446,0.02075889,9.8566686083111,0.02187800486807212,stand
10/07/2020, 16:17:32,0.31585258,0.083748795,9.851251,-0.035412222,0.013432222,0.008547778,9.8566686083111,0.03882672519477262,stand
10/07/2020, 16:17:32,0.3493521,0.13878371,9.834501,-0.035412222,0.013432222,0.008547778,9.841682933417614,0.03882672519477262,stand
10/07/2020, 16:17:32,0.3493521,0.13878371,9.834501,-0.059834447,0.017095556,0.0036633336,9.841682933417614,0.06233649880564417,stand
10/07/2020, 16:17:32,0.33020952,0.09332009,9.810573,-0.059834447,0.017095556,0.0036633336,9.816571814170345,0.06233649880564417,stand
10/07/2020, 16:17:32,0.33020952,0.09332009,9.810573,-0.05372889,0.012211111,0.015874445,9.816571814170345,0.057340237569831115,stand
10/07/2020, 16:17:32,0.3278167,0.07178468,9.803394,-0.05372889,0.012211111,0.015874445,9.80913640301921,0.057340237569831115,stand
10/07/2020, 16:17:32,0.3278167,0.07178468,9.803394,-0.035412222,-0.0048844446,0.024422223,9.80913640301921,0.04329351268756929,stand
10/07/2020, 16:17:32,0.34217364,0.069391854,9.798609,-0.035412222,-0.0048844446,0.024422223,9.804826976965849,0.04329351268756929,stand
10/07/2020, 16:17:32,0.34217364,0.069391854,9.798609,-0.02075889,-0.024422223,0.026864445,9.804826976965849,0.041821942308329384,stand
10/07/2020, 16:17:32,0.30867413,0.11006984,9.815358,-0.02075889,-0.024422223,0.026864445,9.820827405744263,0.041821942308329384,stand
10/07/2020, 16:17:32,0.30867413,0.11006984,9.815358,-0.0061055557,-0.036633335,0.03297,9.820827405744263,0.04966185609975545,stand
10/07/2020, 16:17:32,0.28713873,0.078963146,9.810573,-0.0061055557,-0.036633335,0.03297,9.815091392525451,0.04966185609975545,stand
10/07/2020, 16:17:32,0.28713873,0.078963146,9.810573,-0.0012211112,-0.047623336,0.029306669,9.815091392525451,0.055931691461228845,stand
10/07/2020, 16:17:32,0.29192436,0.09332009,9.810573,-0.0012211112,-0.047623336,0.029306669,9.815358561145146,0.055931691461228845,stand
10/07/2020, 16:17:32,0.29192436,0.09332009,9.810573,-0.0012211112,-0.054950003,0.029306669,9.815358561145146,0.062288640469724314,stand
10/07/2020, 16:17:33,0.57427746,0.17706887,9.913465,0.20392556,-0.085477784,0.070824444,9.931662866649532,0.2321813720521299,stand
10/07/2020, 16:17:33,0.57427746,0.17706887,9.913465,0.2075889,-0.06227667,0.07204556,9.931662866649532,0.22839022659041064,stand
10/07/2020, 16:17:33,0.59342,0.19860429,9.887143,0.2075889,-0.06227667,0.07204556,9.906926383401117,0.22839022659041064,stand
10/07/2020, 16:17:33,0.59342,0.19860429,9.887143,0.19904111,-0.054950003,0.07570889,9.906926383401117,0.21992885973405285,stand
10/07/2020, 16:17:33,0.60777694,0.22971097,9.805787,0.19904111,-0.054950003,0.07570889,9.827289571504895,0.21992885973405285,stand
10/07/2020, 16:17:33,0.60777694,0.22971097,9.805787,0.17095557,-0.051286668,0.06227667,9.827289571504895,0.1890357431111534,stand
10/07/2020, 16:17:33,0.67477596,0.22492532,9.741181,0.17095557,-0.051286668,0.06227667,9.767114648062428,0.1890357431111534,stand
10/07/2020, 16:17:33,0.67477596,0.22492532,9.741181,0.13554333,-0.05006556,0.06105556,9.767114648062428,0.1568640692429177,stand
10/07/2020, 16:17:33,0.6795616,0.2536392,9.647861,0.13554333,-0.05006556,0.06105556,9.675089125024414,0.1568640692429177,stand
10/07/2020, 16:17:33,0.6795616,0.2536392,9.647861,0.11234222,-0.068382226,0.06105556,9.675089125024414,0.14499891508487156,stand
10/07/2020, 16:17:33,0.6221339,0.32303107,9.616755,0.11234222,-0.068382226,0.06105556,9.642269826116662,0.14499891508487156,stand
10/07/2020, 16:17:33,0.6221339,0.32303107,9.616755,0.109900005,-0.098910004,0.045181114,9.642269826116662,0.15460444071537227,stand
10/07/2020, 16:17:33,0.61734825,0.37806597,9.623933,0.109900005,-0.098910004,0.045181114,9.651120972483778,0.15460444071537227,stand
10/07/2020, 16:17:33,0.61734825,0.37806597,9.623933,0.11844778,-0.13188,0.026864445,9.651120972483778,0.1792872265089044,stand
10/07/2020, 16:17:33,0.61734825,0.4331009,9.676575,0.11844778,-0.13188,0.026864445,9.70591537798,0.1792872265089044,stand
10/07/2020, 16:17:33,0.61734825,0.4331009,9.676575,0.1306589,-0.15996556,0.013432222,9.70591537798,0.20698104193020694,stand
10/07/2020, 16:17:33,0.6029913,0.47138608,9.731609,0.1306589,-0.15996556,0.013432222,9.761660911578609,0.20698104193020694,stand
10/07/2020, 16:17:33,0.6029913,0.47138608,9.731609,0.14042778,-0.18072446,0.0061055557,9.761660911578609,0.2289510196736141,stand
10/07/2020, 16:17:33,0.61016977,0.5168497,9.765109,0.14042778,-0.18072446,0.0061055557,9.797795453654892,0.2289510196736141,stand
10/07/2020, 16:17:33,0.61016977,0.5168497,9.765109,0.14775445,-0.18072446,0.0036633336,9.797795453654892,0.2334654697230156,stand
10/07/2020, 16:17:34,0.34217364,0.7082755,9.956535,0.024422223,0.04151778,0.036633335,9.987558907990161,0.06051588381098978,stand
10/07/2020, 16:17:34,0.34217364,0.7082755,9.956535,0.02198,0.037854444,0.039075557,9.987558907990161,0.05867689957202652,stand
10/07/2020, 16:17:34,0.3924229,0.65324056,9.923036,0.02198,0.037854444,0.039075557,9.952253761002853,0.05867689957202652,stand
10/07/2020, 16:17:34,0.3924229,0.65324056,9.923036,0.018316668,0.039075557,0.03297,9.952253761002853,0.054308566351372295,stand
10/07/2020, 16:17:34,0.43788654,0.63888365,9.882358,0.018316668,0.039075557,0.03297,9.912664052567463,0.054308566351372295,stand
10/07/2020, 16:17:34,0.43788654,0.63888365,9.882358,0.023201112,0.036633335,0.024422223,9.912664052567463,0.04976683419157649,stand
10/07/2020, 16:17:34,0.46181476,0.6269195,9.858429,0.023201112,0.036633335,0.024422223,9.889131529382952,0.04976683419157649,stand
10/07/2020, 16:17:34,0.46181476,0.6269195,9.858429,0.03174889,0.028085556,0.019537779,9.889131529382952,0.04667456815615599,stand
10/07/2020, 16:17:34,0.4761717,0.64606214,9.851251,0.03174889,0.028085556,0.019537779,9.883889675256828,0.04667456815615599,stand
10/07/2020, 16:17:34,0.4761717,0.64606214,9.851251,0.037854444,0.025643334,0.014653334,9.883889675256828,0.048013120344878035,stand
10/07/2020, 16:17:34,0.47856453,0.66999036,9.834501,0.037854444,0.025643334,0.014653334,9.868907044542773,0.048013120344878035,stand
10/07/2020, 16:17:34,0.47856453,0.66999036,9.834501,0.04029667,0.023201112,0.015874445,9.868907044542773,0.049133605804535116,stand
10/07/2020, 16:17:34,0.49052864,0.6628119,9.817751,0.04029667,0.023201112,0.015874445,9.85231806585538,0.049133605804535116,stand
10/07/2020, 16:17:34,0.49052864,0.6628119,9.817751,0.042738892,0.02198,0.012211111,9.85231806585538,0.04958673785583102,stand
10/07/2020, 16:17:34,0.50009996,0.6939186,9.77468,0.042738892,0.02198,0.012211111,9.812033161569007,0.04958673785583102,stand
10/07/2020, 16:17:34,0.50009996,0.6939186,9.77468,0.04151778,0.024422223,0.0048844446,9.812033161569007,0.04841517071870233,stand
10/07/2020, 16:17:34,0.49052864,0.7322037,9.750752,0.04151778,0.024422223,0.0048844446,9.790501211001285,0.04841517071870233,stand
10/07/2020, 16:17:34,0.49052864,0.7322037,9.750752,0.04151778,0.017095556,0.0036633336,9.790501211001285,0.04504890738726433,stand
10/07/2020, 16:17:34,0.4977071,0.7728817,9.74836,0.04151778,0.017095556,0.0036633336,9.791607371203792,0.04504890738726433,stand
10/07/2020, 16:17:34,0.4977071,0.7728817,9.74836,0.03297,0.012211111,-0.013432222,9.791607371203792,0.037637172369142345,stand
10/07/2020, 16:17:35,0.42831525,0.91405827,9.79143,0.04396,-0.0036633336,0.036633335,9.843326022569235,0.05734023863091474,stand
10/07/2020, 16:17:35,0.42831525,0.91405827,9.79143,0.035412222,-0.01099,0.03297,9.843326022569235,0.04961679643518719,stand
10/07/2020, 16:17:35,0.46899325,0.96909314,9.79143,0.035412222,-0.01099,0.03297,9.850441964752395,0.04961679643518719,stand
10/07/2020, 16:17:35,0.46899325,0.96909314,9.79143,0.023201112,-0.017095556,0.017095556,9.850441964752395,0.033508322655888725,stand
10/07/2020, 16:17:35,0.4546363,0.96909314,9.793823,0.023201112,-0.017095556,0.017095556,9.852147450743235,0.033508322655888725,stand
10/07/2020, 16:17:35,0.4546363,0.96909314,9.793823,0.017095556,-0.025643334,0.0061055557,9.852147450743235,0.03141840908931678,stand
10/07/2020, 16:17:35,0.46899325,0.95712906,9.781859,0.017095556,-0.025643334,0.0061055557,9.839757313328603,0.03141840908931678,stand
10/07/2020, 16:17:35,0.46899325,0.95712906,9.781859,0.017095556,-0.026864445,-0.0036633336,9.839757313328603,0.03205271378378368,stand
10/07/2020, 16:17:35,0.46660042,0.92602235,9.74836,0.017095556,-0.026864445,-0.0036633336,9.80335400760365,0.03205271378378368,stand
10/07/2020, 16:17:35,0.46660042,0.92602235,9.74836,0.01099,-0.028085556,-0.012211111,9.80335400760365,0.03253751369425823,stand
10/07/2020, 16:17:35,0.49292147,0.88295156,9.741181,0.01099,-0.028085556,-0.012211111,9.793527943677386,0.03253751369425823,stand
10/07/2020, 16:17:35,0.49292147,0.88295156,9.741181,-0.0048844446,-0.03297,-0.02198,9.793527943677386,0.03992491868903751,stand
10/07/2020, 16:17:35,0.485743,0.8877372,9.700503,-0.0048844446,-0.03297,-0.02198,9.753142511038725,0.03992491868903751,stand
10/07/2020, 16:17:35,0.485743,0.8877372,9.700503,-0.025643334,-0.048844445,-0.036633335,9.753142511038725,0.06622206324983827,stand
10/07/2020, 16:17:35,0.45942193,0.8709874,9.693324,-0.025643334,-0.048844445,-0.036633335,9.74321402234606,0.06622206324983827,stand
10/07/2020, 16:17:35,0.45942193,0.8709874,9.693324,-0.04151778,-0.057392225,-0.048844445,9.74321402234606,0.0860428573484109,stand
10/07/2020, 16:17:35,0.47138608,0.80877405,9.726824,-0.04151778,-0.057392225,-0.048844445,9.771766558306298,0.0860428573484109,stand
10/07/2020, 16:17:35,0.47138608,0.80877405,9.726824,-0.028085556,-0.059834447,-0.051286668,9.771766558306298,0.08366171011885766,stand
10/07/2020, 16:17:35,0.41635114,0.7537391,9.736395,-0.028085556,-0.059834447,-0.051286668,9.774397998467464,0.08366171011885766,stand
10/07/2020, 16:17:35,0.41635114,0.7537391,9.736395,-0.0048844446,-0.06349778,-0.05006556,9.774397998467464,0.08100855649476935,stand
10/07/2020, 16:17:36,0.27038896,0.49052864,9.707682,-0.12455334,-0.16485001,0.09524667,9.723827007503683,0.22751041483554818,stand
10/07/2020, 16:17:36,0.27038896,0.49052864,9.707682,-0.23933779,-0.14897557,0.10379445,9.723827007503683,0.30041568372342065,stand
10/07/2020, 16:17:36,0.2847459,0.5192425,9.801002,-0.23933779,-0.14897557,0.10379445,9.818875922803631,0.30041568372342065,stand
10/07/2020, 16:17:36,0.2847459,0.5192425,9.801002,-0.42250445,-0.10379445,0.10745778,9.818875922803631,0.44814113420126817,stand
10/07/2020, 16:17:36,0.19621146,0.5982057,9.707682,-0.42250445,-0.10379445,0.10745778,9.72807442972362,0.44814113420126817,stand
10/07/2020, 16:17:36,0.19621146,0.5982057,9.707682,-0.6459678,-0.05617111,0.091583334,9.72807442972362,0.6548412598784146,stand
10/07/2020, 16:17:36,0.09810573,0.57188463,9.7196455,-0.6459678,-0.05617111,0.091583334,9.736949492303184,0.6548412598784146,stand
10/07/2020, 16:17:36,0.09810573,0.57188463,9.7196455,-0.91217005,-0.024422223,0.15386,9.736949492303184,0.9253775176335954,stand
10/07/2020, 16:17:36,0.16749759,0.3278167,9.623933,-0.91217005,-0.024422223,0.15386,9.630971005408771,0.9253775176335954,stand
10/07/2020, 16:17:36,0.16749759,0.3278167,9.623933,-1.1722667,0.035412222,0.27963445,9.630971005408771,1.2056776997520247,stand
10/07/2020, 16:17:36,0.09092726,0.031106694,9.487542,-1.1722667,0.035412222,0.27963445,9.488028851469648,1.2056776997520247,stand
10/07/2020, 16:17:36,0.09092726,0.031106694,9.487542,-1.4628912,0.06227667,0.37976557,9.488028851469648,1.5126635436802123,stand
10/07/2020, 16:17:36,0.11724831,-0.30867413,9.339187,-1.4628912,0.06227667,0.37976557,9.345021910638978,1.5126635436802123,stand
10/07/2020, 16:17:36,0.11724831,-0.30867413,9.339187,-1.7498523,0.08792,0.5873545,9.345021910638978,1.8478902251499794,stand
10/07/2020, 16:17:36,0.078963146,-0.7585248,9.150154,-1.7498523,0.08792,0.5873545,9.181879726894362,1.8478902251499794,stand
10/07/2020, 16:17:36,0.078963146,-0.7585248,9.150154,-2.0722256,0.078151114,0.8327978,9.181879726894362,2.2346764039394666,stand
10/07/2020, 16:17:36,0.15074782,-1.227518,8.973084,-2.0722256,0.078151114,0.8327978,9.057911999808638,2.2346764039394666,stand
10/07/2020, 16:17:36,0.15074782,-1.227518,8.973084,-2.294468,0.11478445,1.2015734,9.057911999808638,2.592592737280132,stand
10/07/2020, 16:17:36,0.30149564,-1.9262222,8.937193,-2.294468,0.11478445,1.2015734,9.147384808722006,2.592592737280132,stand
10/07/2020, 16:17:36,0.30149564,-1.9262222,8.937193,-2.2981312,0.17950334,1.6228567,9.147384808722006,2.8190942823515197,stand
10/07/2020, 16:17:37,0.25124636,-1.5625132,10.69831,-0.35656446,0.9732256,0.41273558,10.814731019192298,1.1156419371011468,stand
10/07/2020, 16:17:37,0.25124636,-1.5625132,10.69831,-0.30405667,1.1429601,0.5324045,10.814731019192298,1.2970207088485668,stand
10/07/2020, 16:17:37,0.21774685,-1.3806586,10.746166,-0.30405667,1.1429601,0.5324045,10.83668402058803,1.2970207088485668,stand
10/07/2020, 16:17:37,0.21774685,-1.3806586,10.746166,-0.3382478,1.3017045,0.6117767,10.83668402058803,1.477537476133738,stand
10/07/2020, 16:17:37,0.16510476,-1.1772687,10.487741,-0.3382478,1.3017045,0.6117767,10.554901346077312,1.477537476133738,stand
10/07/2020, 16:17:37,0.16510476,-1.1772687,10.487741,-0.31504667,1.3871822,0.6288723,10.554901346077312,1.5553164619616981,stand
10/07/2020, 16:17:37,-0.08853444,-1.0719845,10.191031,-0.31504667,1.3871822,0.6288723,10.247639304497664,1.5553164619616981,stand
10/07/2020, 16:17:37,-0.08853444,-1.0719845,10.191031,-0.16607112,1.3273479,0.5775856,10.247639304497664,1.4570645476657795,stand
10/07/2020, 16:17:37,-0.5288138,-1.0815558,9.686146,-0.16607112,1.3273479,0.5775856,9.760677598138429,1.4570645476657795,stand
10/07/2020, 16:17:37,-0.5288138,-1.0815558,9.686146,0.14897557,1.0855678,0.4566956,9.760677598138429,1.187106606758002,stand
10/07/2020, 16:17:37,-0.94277215,-1.0097711,9.274581,0.14897557,1.0855678,0.4566956,9.376902949211525,1.187106606758002,stand
10/07/2020, 16:17:37,-0.94277215,-1.0097711,9.274581,0.59590226,0.7900589,0.20881,9.376902949211525,1.0113823252176017,stand
10/07/2020, 16:17:37,-1.0241281,-0.95712906,8.898908,0.59590226,0.7900589,0.20881,9.008634298809145,1.0113823252176017,stand
10/07/2020, 16:17:37,-1.0241281,-0.95712906,8.898908,0.7216767,0.5030978,0.058613338,9.008634298809145,0.8816803059771828,stand
10/07/2020, 16:17:37,-0.73459655,-1.1126626,8.683554,0.7216767,0.5030978,0.058613338,8.785314726080692,0.8816803059771828,stand
10/07/2020, 16:17:37,-0.73459655,-1.1126626,8.683554,0.92316,0.23567446,0.1746189,8.785314726080692,0.968637509807391,stand
10/07/2020, 16:17:37,-0.54317075,-1.4117653,8.477771,0.92316,0.23567446,0.1746189,8.611661492344659,0.968637509807391,stand
10/07/2020, 16:17:37,-0.54317075,-1.4117653,8.477771,1.3566545,-0.018316668,0.35900667,8.611661492344659,1.403471692378154,stand
10/07/2020, 16:17:37,-0.8350951,-1.0911272,8.472985,1.3566545,-0.018316668,0.35900667,8.583671805090011,1.403471692378154,stand
10/07/2020, 16:17:37,-0.8350951,-1.0911272,8.472985,1.5459267,-0.15874445,0.008547778,8.583671805090011,1.554079212099258,stand
10/07/2020, 16:17:38,0.58624154,1.3495519,9.848858,0.04396,0.05372889,0.09646778,9.958161027755729,0.11884993693980733,stand
10/07/2020, 16:17:38,0.58624154,1.3495519,9.848858,-0.024422223,0.12943779,0.068382226,9.958161027755729,0.14841399897416005,stand
10/07/2020, 16:17:38,0.6053841,1.2801601,9.961321,-0.024422223,0.12943779,0.068382226,10.061471728422703,0.14841399897416005,stand
10/07/2020, 16:17:38,0.6053841,1.2801601,9.961321,-0.051286668,0.21003112,0.070824444,10.061471728422703,0.22750713478309567,stand
10/07/2020, 16:17:38,0.62931234,1.1653047,10.033105,-0.051286668,0.21003112,0.070824444,10.120136502753342,0.22750713478309567,stand
10/07/2020, 16:17:38,0.62931234,1.1653047,10.033105,-0.05006556,0.27108666,0.098910004,10.120136502753342,0.29287834995190365,stand
10/07/2020, 16:17:38,0.6221339,1.0743774,10.037891,-0.05006556,0.27108666,0.098910004,10.114375954760108,0.29287834995190365,stand
10/07/2020, 16:17:38,0.6221339,1.0743774,10.037891,-0.028085556,0.30649891,0.11234222,10.114375954760108,0.32764486644163676,stand
10/07/2020, 16:17:38,0.54317075,1.0193424,10.025927,-0.028085556,0.30649891,0.11234222,10.092239465325367,0.32764486644163676,stand
10/07/2020, 16:17:38,0.54317075,1.0193424,10.025927,0.009768889,0.3162678,0.098910004,10.092239465325367,0.33151762254116734,stand
10/07/2020, 16:17:38,0.4426722,1.0073783,9.927821,0.009768889,0.3162678,0.098910004,9.988613655669353,0.33151762254116734,stand
10/07/2020, 16:17:38,0.4426722,1.0073783,9.927821,0.039075557,0.28940335,0.07937223,9.988613655669353,0.3026237732252581,stand
10/07/2020, 16:17:38,0.32542387,1.0241281,9.84168,0.039075557,0.28940335,0.07937223,9.900171505317871,0.3026237732252581,stand
10/07/2020, 16:17:38,0.32542387,1.0241281,9.84168,0.046402223,0.23445335,0.06716111,9.900171505317871,0.24825824237941607,stand
10/07/2020, 16:17:38,0.20578274,1.0241281,9.760324,0.046402223,0.23445335,0.06716111,9.816063373984873,0.24825824237941607,stand
10/07/2020, 16:17:38,0.20578274,1.0241281,9.760324,0.03052778,0.17828223,0.05250778,9.816063373984873,0.1883442759338109,stand
10/07/2020, 16:17:38,0.17467605,1.012164,9.722038,0.03052778,0.17828223,0.05250778,9.776145241449328,0.1883442759338109,stand
10/07/2020, 16:17:38,0.17467605,1.012164,9.722038,0.007326667,0.12699556,0.026864445,9.776145241449328,0.1300125055488738,stand
10/07/2020, 16:17:38,0.16749759,1.026521,9.674182,0.007326667,0.12699556,0.026864445,9.729933037397652,0.1300125055488738,stand
10/07/2020, 16:17:38,0.16749759,1.026521,9.674182,-0.009768889,0.07937223,-0.0012211112,9.729933037397652,0.079980452360237,stand
10/07/2020, 16:17:39,4.098905,3.0005996,10.729417,-0.098910004,0.5873545,0.42372558,11.871183887287119,0.7309663730754098,stand
10/07/2020, 16:17:39,4.0438704,3.0915267,10.480563,-0.098910004,0.5873545,0.42372558,11.651293064042608,0.7309663730754098,stand
10/07/2020, 16:17:39,4.0438704,3.0915267,10.480563,-0.22590557,0.6032289,0.2625389,11.651293064042608,0.6955897803744067,stand
10/07/2020, 16:17:39,4.005585,3.129812,10.267602,-0.22590557,0.6032289,0.2625389,11.457053987054751,0.6955897803744067,stand
10/07/2020, 16:17:39,4.005585,3.129812,10.267602,-0.34313223,0.6471889,0.13798556,11.457053987054751,0.74540808583675,stand
10/07/2020, 16:17:39,4.0701914,3.1393833,10.12164,-0.34313223,0.6471889,0.13798556,11.352082890353428,0.74540808583675,stand
10/07/2020, 16:17:39,4.0701914,3.1393833,10.12164,-0.41151446,0.7265611,0.02075889,11.352082890353428,0.8352641243658576,stand
10/07/2020, 16:17:39,4.1108694,3.0245278,10.052248,-0.41151446,0.7265611,0.02075889,11.273628763789455,0.8352641243658576,stand
10/07/2020, 16:17:39,4.1108694,3.0245278,10.052248,-0.42861003,0.82791334,-0.10013112,11.273628763789455,0.9376424162099782,stand
10/07/2020, 16:17:39,4.15394,2.8378878,9.9756775,-0.42861003,0.82791334,-0.10013112,11.172419950125795,0.9376424162099782,stand
10/07/2020, 16:17:39,4.15394,2.8378878,9.9756775,-0.40052447,0.9182756,-0.20270446,11.172419950125795,1.0221247548927015,stand
10/07/2020, 16:17:39,4.17069,2.6081767,9.82493,-0.40052447,0.9182756,-0.20270446,10.987560901941848,1.0221247548927015,stand
10/07/2020, 16:17:39,4.17069,2.6081767,9.82493,-0.34191114,0.9549089,-0.2735289,10.987560901941848,1.0505104989028722,stand
10/07/2020, 16:17:39,4.0390844,2.376073,9.657433,-0.34191114,0.9549089,-0.2735289,10.734334119726936,1.0505104989028722,stand
10/07/2020, 16:17:39,4.0390844,2.376073,9.657433,-0.26498112,0.94758224,-0.32115224,10.734334119726936,1.0350197420694882,stand
10/07/2020, 16:17:39,3.9170506,2.160719,9.466006,-0.26498112,0.94758224,-0.32115224,10.469826479900114,1.0350197420694882,stand
10/07/2020, 16:17:39,3.9170506,2.160719,9.466006,-0.17584,0.9060645,-0.36633334,10.469826479900114,0.9930119421052435,stand
10/07/2020, 16:17:39,3.7256248,1.9405792,9.3200445,-0.17584,0.9060645,-0.36633334,10.222981829925105,0.9930119421052435,stand
10/07/2020, 16:17:39,3.7256248,1.9405792,9.3200445,-0.09280445,0.83768225,-0.39808223,10.222981829925105,0.9320910211057996,stand
10/07/2020, 16:17:39,3.5940197,1.6701902,9.133404,-0.09280445,0.83768225,-0.39808223,9.956182862059658,0.9320910211057996,stand
10/07/2020, 16:17:40,2.3569303,1.8089739,9.674182,0.064718895,-0.06349778,-0.15386,10.120143428100752,0.17858724495832973,stand
10/07/2020, 16:17:40,2.3186452,1.7778672,9.671789,0.064718895,-0.06349778,-0.15386,10.103486193045741,0.17858724495832973,stand
10/07/2020, 16:17:40,2.3186452,1.7778672,9.671789,0.026864445,-0.019537779,-0.18072446,10.103486193045741,0.18375187757403127,stand
10/07/2020, 16:17:40,2.2779672,1.6893328,9.659825,0.026864445,-0.019537779,-0.18072446,10.067532239547177,0.18375187757403127,stand
10/07/2020, 16:17:40,2.2779672,1.6893328,9.659825,-0.01099,0.03052778,-0.19537778,10.067532239547177,0.1980535360527199,stand
10/07/2020, 16:17:40,2.2420747,1.6103697,9.628718,-0.01099,0.03052778,-0.19537778,10.01660656944731,0.1980535360527199,stand
10/07/2020, 16:17:40,2.2420747,1.6103697,9.628718,-0.045181114,0.070824444,-0.21491556,10.01660656944731,0.2307512348002295,stand
10/07/2020, 16:17:40,2.1631117,1.538585,9.585648,-0.045181114,0.070824444,-0.21491556,9.946403138608868,0.2307512348002295,stand
10/07/2020, 16:17:40,2.1631117,1.538585,9.585648,-0.06716111,0.09280445,-0.2185789,9.946403138608868,0.246779290266482,stand
10/07/2020, 16:17:40,2.0745773,1.4955142,9.518648,-0.06716111,0.09280445,-0.2185789,9.856221195171628,0.246779290266482,stand
10/07/2020, 16:17:40,2.0745773,1.4955142,9.518648,-0.085477784,0.098910004,-0.21613668,9.856221195171628,0.2525959312984482,stand
10/07/2020, 16:17:40,1.9740787,1.5170496,9.456435,-0.085477784,0.098910004,-0.21613668,9.778680516117088,0.2525959312984482,stand
10/07/2020, 16:17:40,1.9740787,1.5170496,9.456435,-0.08792,0.08669889,-0.21980001,9.778680516117088,0.25210844667154436,stand
10/07/2020, 16:17:40,1.8735801,1.5290136,9.480363,-0.08792,0.08669889,-0.21980001,9.783939168003316,0.25210844667154436,stand
10/07/2020, 16:17:40,1.8735801,1.5290136,9.480363,-0.09280445,0.07204556,-0.22346334,9.783939168003316,0.252466022857606,stand
10/07/2020, 16:17:40,1.7874385,1.5170496,9.504292,-0.09280445,0.07204556,-0.22346334,9.789174293329316,0.252466022857606,stand
10/07/2020, 16:17:40,1.7874385,1.5170496,9.504292,-0.102573335,0.06105556,-0.22102112,9.789174293329316,0.2511959475680965,stand
10/07/2020, 16:17:40,1.7587247,1.457229,9.54497,-0.102573335,0.06105556,-0.22102112,9.814431864439646,0.2511959475680965,stand
10/07/2020, 16:17:40,1.7587247,1.457229,9.54497,-0.12089001,0.064718895,-0.21247335,9.814431864439646,0.2528791262583349,stand
10/07/2020, 16:17:40,1.7180467,1.3519448,9.547362,-0.12089001,0.064718895,-0.21247335,9.794466116709382,0.2528791262583349,stand
10/07/2020, 16:17:41,0.52163535,5.8624153,4.7401814,4.6341166,-2.2358546,-1.0293967,7.557071978905187,5.247260285062839,stand
10/07/2020, 16:17:41,0.97866446,6.2213387,4.74736,4.6341166,-2.2358546,-1.0293967,7.886714721509998,5.247260285062839,stand
10/07/2020, 16:17:41,0.97866446,6.2213387,4.74736,4.12125,-2.53869,-0.6874856,7.886714721509998,4.888996483016073,stand
10/07/2020, 16:17:41,1.3184453,6.2668023,5.1326046,4.12125,-2.53869,-0.6874856,8.206993313562451,4.888996483016073,stand
10/07/2020, 16:17:41,1.3184453,6.2668023,5.1326046,3.3995736,-2.6546957,-0.102573335,8.206993313562451,4.314514020257168,stand
10/07/2020, 16:17:41,1.3399807,5.352744,5.5896335,3.3995736,-2.6546957,-0.102573335,7.854388584192562,4.314514020257168,stand
10/07/2020, 16:17:41,1.3399807,5.352744,5.5896335,2.7328467,-2.7255201,0.73633003,7.854388584192562,3.929261152513877,stand
10/07/2020, 16:17:41,1.0432707,4.3334017,5.704489,2.7328467,-2.7255201,0.73633003,7.239335693029119,3.929261152513877,stand
10/07/2020, 16:17:41,1.0432707,4.3334017,5.704489,2.48374,-2.9795113,1.6167512,7.239335693029119,4.202420328679055,stand
10/07/2020, 16:17:41,0.6843473,3.2829528,5.6207404,2.48374,-2.9795113,1.6167512,6.54513811757768,4.202420328679055,stand
10/07/2020, 16:17:41,0.6843473,3.2829528,5.6207404,2.6119568,-3.1822157,2.3994834,6.54513811757768,4.765116577619874,stand
10/07/2020, 16:17:41,0.32063824,2.8139594,5.4221363,2.6119568,-3.1822157,2.3994834,6.117249242109669,4.765116577619874,stand
10/07/2020, 16:17:41,0.32063824,2.8139594,5.4221363,2.8610635,-3.2103012,2.9734056,6.117249242109669,5.228083649059092,stand
10/07/2020, 16:17:41,-0.016749758,2.8761728,5.211568,2.8610635,-3.2103012,2.9734056,5.95257004789127,5.228083649059092,stand
10/07/2020, 16:17:41,-0.016749758,2.8761728,5.211568,3.1345923,-3.053999,3.3482869,5.95257004789127,5.510317900790875,stand
10/07/2020, 16:17:41,-0.148355,3.3810585,5.058427,3.1345923,-3.053999,3.3482869,6.086152129922075,5.510317900790875,stand
10/07/2020, 16:17:41,-0.148355,3.3810585,5.058427,3.338518,-2.8378623,3.5534334,6.086152129922075,5.641458412803401,stand
10/07/2020, 16:17:41,-0.07178468,4.213761,5.0081778,3.338518,-2.8378623,3.5534334,6.545439482090034,5.641458412803401,stand
10/07/2020, 16:17:41,-0.07178468,4.213761,5.0081778,3.339739,-2.6205046,3.58274,6.545439482090034,5.554901259261044,stand
10/07/2020, 16:17:41,0.15553348,4.955536,5.0249276,3.339739,-2.6205046,3.58274,7.059137635280138,5.554901259261044,stand
10/07/2020, 16:17:42,4.6325045,10.348958,5.584848,-1.020849,6.9713235,-0.41762,12.639286213060794,7.05803728600561,stand
10/07/2020, 16:17:42,4.6325045,10.348958,5.584848,-0.97811,5.8063836,-1.1026634,12.639286213060794,5.990547253370103,stand
10/07/2020, 16:17:42,4.15394,11.236695,5.278567,-0.97811,5.8063836,-1.1026634,13.091287487463218,5.990547253370103,stand
10/07/2020, 16:17:42,4.15394,11.236695,5.278567,-0.7668578,4.702499,-1.965989,13.091287487463218,5.1542875005128295,stand
10/07/2020, 16:17:42,3.6466618,11.241481,5.0344987,-0.7668578,4.702499,-1.965989,12.845824623079437,5.1542875005128295,stand
10/07/2020, 16:17:42,3.6466618,11.241481,5.0344987,-0.44082114,3.6218157,-2.7694802,12.845824623079437,4.580599616255498,stand
10/07/2020, 16:17:42,3.2398818,10.877771,5.2259245,-0.44082114,3.6218157,-2.7694802,12.495320352707578,4.580599616255498,stand
10/07/2020, 16:17:42,3.2398818,10.877771,5.2259245,-0.051286668,2.790239,-3.3641613,12.495320352707578,4.3710005112558035,stand
10/07/2020, 16:17:42,2.9886355,10.078569,5.558527,-0.051286668,2.790239,-3.3641613,11.891456013366563,4.3710005112558035,stand
10/07/2020, 16:17:42,2.9886355,10.078569,5.558527,0.36511225,2.2712667,-3.6364691,11.891456013366563,4.3030067477605405,stand
10/07/2020, 16:17:42,2.8522446,9.126225,6.2380886,0.36511225,2.2712667,-3.6364691,11.416524873277766,4.3030067477605405,stand
10/07/2020, 16:17:42,2.8522446,9.126225,6.2380886,0.72411895,1.9647678,-3.5754135,11.416524873277766,4.143457766381658,stand
10/07/2020, 16:17:42,2.5531418,8.676374,6.862615,0.72411895,1.9647678,-3.5754135,11.353127000393869,4.143457766381658,stand
10/07/2020, 16:17:42,2.5531418,8.676374,6.862615,0.93415004,1.7950335,-3.4655135,11.353127000393869,4.0130493389851125,stand
10/07/2020, 16:17:42,2.1296122,8.812766,7.3340015,0.93415004,1.7950335,-3.4655135,11.661375247131403,4.0130493389851125,stand
10/07/2020, 16:17:42,2.1296122,8.812766,7.3340015,0.96712005,1.625299,-3.548549,11.661375247131403,4.0210841218844235,stand
10/07/2020, 16:17:42,1.6749759,9.004191,7.54457,0.96712005,1.625299,-3.548549,11.865982594573444,4.0210841218844235,stand
10/07/2020, 16:17:42,1.6749759,9.004191,7.54457,0.83524,1.4323634,-3.7414846,11.865982594573444,4.092431804998331,stand
10/07/2020, 16:17:42,1.3160524,9.24826,7.52782,0.83524,1.4323634,-3.7414846,11.997098575485433,4.092431804998331,stand
10/07/2020, 16:17:42,1.3160524,9.24826,7.52782,0.6227667,1.3029256,-3.9356413,11.997098575485433,4.192222056136006,stand
10/07/2020, 16:17:43,5.3479586,8.989835,4.6229334,-0.56659555,1.2174479,3.5461068,11.436315114052093,3.791844327110587,stand
10/07/2020, 16:17:43,5.3479586,8.989835,4.6229334,-0.5641534,1.4555645,3.3018847,11.436315114052093,3.652311499410571,stand
10/07/2020, 16:17:43,5.5513487,9.178867,4.56072,-0.5641534,1.4555645,3.3018847,11.65629634572166,3.652311499410571,stand
10/07/2020, 16:17:43,5.5513487,9.178867,4.56072,-0.5287411,1.812129,2.9099078,11.65629634572166,3.4685648717164237,stand
10/07/2020, 16:17:43,5.788238,9.260223,4.7832522,-0.5287411,1.812129,2.9099078,11.922035853783555,3.4685648717164237,stand
10/07/2020, 16:17:43,5.788238,9.260223,4.7832522,-0.5030978,2.1992211,2.4300113,11.922035853783555,3.315816000622122,stand
10/07/2020, 16:17:43,5.9318075,9.2793665,4.989035,-0.5030978,2.1992211,2.4300113,12.090634990359643,3.315816000622122,stand
10/07/2020, 16:17:43,5.9318075,9.2793665,4.989035,-0.5739222,2.6119568,1.9513357,12.090634990359643,3.3105008849529622,stand
10/07/2020, 16:17:43,5.95095,9.305687,5.209175,-0.5739222,2.6119568,1.9513357,12.212498621748296,3.3105008849529622,stand
10/07/2020, 16:17:43,5.95095,9.305687,5.209175,-0.7387723,3.0137024,1.5618012,12.212498621748296,3.473817720553862,stand
10/07/2020, 16:17:43,5.855237,9.238688,5.4843497,-0.7387723,3.0137024,1.5618012,12.23581860648295,3.473817720553862,stand
10/07/2020, 16:17:43,5.855237,9.238688,5.4843497,-0.94391894,3.4093423,1.2650712,12.23581860648295,3.7569938566437244,stand
10/07/2020, 16:17:43,5.790631,8.987442,5.812166,-0.94391894,3.4093423,1.2650712,12.169091805241274,3.7569938566437244,stand
10/07/2020, 16:17:43,5.790631,8.987442,5.812166,-1.2064579,3.7927713,1.0355023,12.169091805241274,4.1125320701977435,stand
10/07/2020, 16:17:43,5.692525,8.566305,6.0825553,-1.2064579,3.7927713,1.0355023,11.949221851605,4.1125320701977435,stand
10/07/2020, 16:17:43,5.692525,8.566305,6.0825553,-1.4457957,4.1273556,0.9170545,11.949221851605,4.468375323626303,stand
10/07/2020, 16:17:43,5.45085,8.267202,6.273981,-1.4457957,4.1273556,0.9170545,11.722680570184064,4.468375323626303,stand
10/07/2020, 16:17:43,5.45085,8.267202,6.273981,-1.6204145,4.4301915,0.83401895,11.722680570184064,4.790399525624327,stand
10/07/2020, 16:17:43,5.1421757,8.063812,6.3314085,-1.6204145,4.4301915,0.83401895,11.469689288158968,4.790399525624327,stand
10/07/2020, 16:17:43,5.1421757,8.063812,6.3314085,-1.7400835,4.647549,0.6899278,11.469689288158968,5.010349683360128,stand
10/07/2020, 16:17:44,-1.6103697,5.300102,7.190432,0.078151114,-1.1820356,-3.6889768,9.07671127561565,3.874514839927655,stand
10/07/2020, 16:17:44,-1.5361922,5.0249276,7.058827,0.078151114,-1.1820356,-3.6889768,8.799819401062562,3.874514839927655,stand
10/07/2020, 16:17:44,-1.5361922,5.0249276,7.058827,0.28085557,-1.5740123,-3.6010568,8.799819401062562,3.9400513555284937,stand
10/07/2020, 16:17:44,-1.2634103,4.7138605,7.0061846,0.28085557,-1.5740123,-3.6010568,8.538343453281806,3.9400513555284937,stand
10/07/2020, 16:17:44,-1.2634103,4.7138605,7.0061846,0.47257003,-1.8756268,-3.4166691,8.538343453281806,3.9261846980495334,stand
10/07/2020, 16:17:44,-1.0097711,4.395615,6.908079,0.47257003,-1.8756268,-3.4166691,8.250007715913377,3.9261846980495334,stand
10/07/2020, 16:17:44,-1.0097711,4.395615,6.908079,0.6752745,-2.119849,-3.1455824,8.250007715913377,3.8528488357327686,stand
10/07/2020, 16:17:44,-0.70348984,4.1443686,6.838687,0.6752745,-2.119849,-3.1455824,8.027348787428942,3.8528488357327686,stand
10/07/2020, 16:17:44,-0.70348984,4.1443686,6.838687,0.93415004,-2.3530812,-2.8610635,8.027348787428942,3.8203811058656543,stand
10/07/2020, 16:17:44,-0.49052864,3.979264,6.862615,0.93415004,-2.3530812,-2.8610635,7.947996390612799,3.8203811058656543,stand
10/07/2020, 16:17:44,-0.49052864,3.979264,6.862615,1.2247745,-2.5960822,-2.515489,7.947996390612799,3.8167264494235638,stand
10/07/2020, 16:17:44,-0.42592242,3.7998023,7.097112,1.2247745,-2.5960822,-2.515489,8.061569867817612,3.8167264494235638,stand
10/07/2020, 16:17:44,-0.42592242,3.7998023,7.097112,1.4287001,-2.823209,-2.0929844,8.061569867817612,3.7937154779889126,stand
10/07/2020, 16:17:44,-0.38763726,3.6921253,7.3268228,1.4287001,-2.823209,-2.0929844,8.213670540526488,3.7937154779889126,stand
10/07/2020, 16:17:44,-0.38763726,3.6921253,7.3268228,1.5898868,-2.9673002,-1.57157,8.213670540526488,3.7151638877322095,stand
10/07/2020, 16:17:44,-0.14117654,3.6634114,7.570891,1.5898868,-2.9673002,-1.57157,8.411831121555036,3.7151638877322095,stand
10/07/2020, 16:17:44,-0.14117654,3.6634114,7.570891,1.7754956,-3.030798,-1.0428289,8.411831121555036,3.6640978716590293,stand
10/07/2020, 16:17:44,0.11006984,3.9361932,7.8317084,1.7754956,-3.030798,-1.0428289,8.765922053513421,3.6640978716590293,stand
10/07/2020, 16:17:44,0.11006984,3.9361932,7.8317084,1.9256923,-3.023471,-0.61299783,8.765922053513421,3.6366790957874935,stand
10/07/2020, 16:17:44,0.38763726,4.2664027,8.003992,1.9256923,-3.023471,-0.61299783,9.078344785939622,3.6366790957874935,stand
10/07/2020, 16:17:45,2.7421749,9.01137,5.625526,1.6411734,-0.29306668,1.8304456,10.971364964180713,2.4758572966184085,stand
10/07/2020, 16:17:45,3.0819557,9.047262,5.682954,1.6411734,-0.29306668,1.8304456,11.11968381798867,2.4758572966184085,stand
10/07/2020, 16:17:45,3.0819557,9.047262,5.682954,1.2528601,-0.28574002,1.845099,11.11968381798867,2.248487475763696,stand
10/07/2020, 16:17:45,3.3930225,9.040084,5.7140603,1.2528601,-0.28574002,1.845099,11.219902128644618,2.248487475763696,stand
10/07/2020, 16:17:45,3.3930225,9.040084,5.7140603,0.7937223,-0.21980001,1.8780689,11.219902128644618,2.050719379287747,stand
10/07/2020, 16:17:45,3.6490545,9.090333,5.757131,0.7937223,-0.21980001,1.8780689,11.361967752947951,2.050719379287747,stand
10/07/2020, 16:17:45,3.6490545,9.090333,5.757131,0.35168,-0.09768889,1.91226,11.361967752947951,1.946782080580802,stand
10/07/2020, 16:17:45,3.7950168,9.097511,5.7427745,0.35168,-0.09768889,1.91226,11.408169123635007,1.946782080580802,stand
10/07/2020, 16:17:45,3.7950168,9.097511,5.7427745,0.0036633336,0.06960334,1.8976067,11.408169123635007,1.8988863442243569,stand
10/07/2020, 16:17:45,3.9026937,9.013762,5.7116675,0.0036633336,0.06960334,1.8976067,11.362309558106794,1.8988863442243569,stand
10/07/2020, 16:17:45,3.9026937,9.013762,5.7116675,-0.26009667,0.26864445,1.801139,11.362309558106794,1.8395439124315,stand
10/07/2020, 16:17:45,4.007978,8.882157,5.548956,-0.26009667,0.26864445,1.801139,11.2137200731917,1.8395439124315,stand
10/07/2020, 16:17:45,4.007978,8.882157,5.548956,-0.46524334,0.46768558,1.6289623,11.2137200731917,1.757469564829443,stand
10/07/2020, 16:17:45,4.065406,8.781659,5.424529,-0.46524334,0.46768558,1.6289623,11.093717924675332,1.757469564829443,stand
10/07/2020, 16:17:45,4.065406,8.781659,5.424529,-0.6252089,0.6569578,1.3969512,11.093717924675332,1.6655186565930733,stand
10/07/2020, 16:17:45,4.074977,8.618947,5.2307105,-0.6252089,0.6569578,1.3969512,10.874374336033766,1.6655186565930733,stand
10/07/2020, 16:17:45,4.074977,8.618947,5.2307105,-0.7888378,0.83768225,1.1673822,10.874374336033766,1.6391332776413152,stand
10/07/2020, 16:17:45,4.141976,8.384451,5.139783,-0.7888378,0.83768225,1.1673822,10.671098800402524,1.6391332776413152,stand
10/07/2020, 16:17:45,4.141976,8.384451,5.139783,-0.97078335,1.0306178,0.9829945,10.671098800402524,1.7236216571331464,stand
10/07/2020, 16:17:45,4.2520456,8.01117,5.1326046,-0.97078335,1.0306178,0.9829945,10.421246230422177,1.7236216571331464,stand
10/07/2020, 16:17:46,1.3974084,6.020342,7.5493555,-1.1087689,3.4423125,-0.8181445,9.756538063333839,3.7078624824494226,stand
10/07/2020, 16:17:46,0.74177504,6.0011992,7.60439,-1.1087689,3.4423125,-0.8181445,9.71552222244928,3.7078624824494226,stand
10/07/2020, 16:17:46,0.74177504,6.0011992,7.60439,-1.1380756,2.9282246,-1.3285689,9.71552222244928,3.4109838111335575,stand
10/07/2020, 16:17:46,0.11964113,5.948557,7.568498,-1.1380756,2.9282246,-1.3285689,9.627139097732593,3.4109838111335575,stand
10/07/2020, 16:17:46,0.11964113,5.948557,7.568498,-1.1331911,2.3762822,-1.856089,9.627139097732593,3.2211652574120633,stand
10/07/2020, 16:17:46,-0.31106696,5.879165,7.4943204,-1.1331911,2.3762822,-1.856089,9.53027722179203,3.2211652574120633,stand
10/07/2020, 16:17:46,-0.31106696,5.879165,7.4943204,-1.0635878,1.8328879,-2.4336746,9.53027722179203,3.226990690621237,stand
10/07/2020, 16:17:46,-0.5407779,5.879165,7.4943204,-1.0635878,1.8328879,-2.4336746,9.540537827296943,3.226990690621237,stand
10/07/2020, 16:17:46,-0.5407779,5.879165,7.4943204,-0.9329289,1.3114734,-3.0271347,9.540537827296943,3.428390730297894,stand
10/07/2020, 16:17:46,-0.77766734,5.804988,7.4010005,-0.9329289,1.3114734,-3.0271347,9.438085584451688,3.428390730297894,stand
10/07/2020, 16:17:46,-0.77766734,5.804988,7.4010005,-0.6996967,0.82425004,-3.60472,9.438085584451688,3.7633722569258836,stand
10/07/2020, 16:17:46,-0.93320084,5.6877394,7.381858,-0.6996967,0.82425004,-3.60472,9.36552553837088,3.7633722569258836,stand
10/07/2020, 16:17:46,-0.93320084,5.6877394,7.381858,-0.40052447,0.3370267,-4.0699635,9.36552553837088,4.103487463394765,stand
10/07/2020, 16:17:46,-1.0767702,5.3814583,7.365108,-0.40052447,0.3370267,-4.0699635,9.185006441247404,4.103487463394765,stand
10/07/2020, 16:17:46,-1.0767702,5.3814583,7.365108,-0.10135223,-0.11478445,-4.3337235,9.185006441247404,4.336427966588501,stand
10/07/2020, 16:17:46,-1.282553,4.910072,7.3627152,-0.10135223,-0.11478445,-4.3337235,8.942221392241033,4.336427966588501,stand
10/07/2020, 16:17:46,-1.282553,4.910072,7.3627152,0.14409111,-0.56659555,-4.3898945,8.942221392241033,4.428652883784481,stand
10/07/2020, 16:17:46,-1.4955142,4.479364,7.448857,0.14409111,-0.56659555,-4.3898945,8.819678666564403,4.428652883784481,stand
