DATE,TIME,ax,ay,az,gx,gy,gz,ma,mg,label
09/07/2020, 21:28:29,9.592826,2.7086751,0.94277215,-0.007326667,0.045181114,-0.40052447,10.012394764587759,0.403131321016764,stand
09/07/2020, 21:28:29,9.592826,2.7086751,0.94277215,-0.05006556,0.036633335,-0.43349445,10.012394764587759,0.4379109480203158,stand
09/07/2020, 21:28:29,9.4636135,2.7182465,0.94277215,-0.05006556,0.036633335,-0.43349445,9.891292322701336,0.4379109480203158,stand
09/07/2020, 21:28:29,9.4636135,2.7182465,0.94277215,-0.051286668,0.026864445,-0.41762,9.891292322701336,0.42161414558899707,stand
09/07/2020, 21:28:29,9.348758,2.6751757,0.97866446,-0.051286668,0.026864445,-0.41762,9.773106994306762,0.42161414558899707,stand
09/07/2020, 21:28:29,9.348758,2.6751757,0.97866446,-0.014653334,0.0036633336,-0.38220778,9.773106994306762,0.3825061151632592,stand
09/07/2020, 21:28:29,9.238688,2.7230322,0.96909314,-0.014653334,0.0036633336,-0.38220778,9.680258814022723,0.3825061151632592,stand
09/07/2020, 21:28:29,9.238688,2.7230322,0.96909314,0.013432222,-0.02075889,-0.35534334,9.680258814022723,0.35620253603565044,stand
09/07/2020, 21:28:29,9.233903,2.7756743,0.9906286,0.013432222,-0.02075889,-0.35534334,9.69281571193026,0.35620253603565044,stand
09/07/2020, 21:28:29,9.233903,2.7756743,0.9906286,0.02198,-0.08425667,-0.31504667,9.69281571193026,0.32685885355959626,stand
09/07/2020, 21:28:29,9.276974,2.8187451,1.0193424,0.02198,-0.08425667,-0.31504667,9.749185842932539,0.32685885355959626,stand
09/07/2020, 21:28:29,9.276974,2.8187451,1.0193424,0.042738892,-0.11234222,-0.2942878,9.749185842932539,0.3178878698234502,stand
09/07/2020, 21:28:29,9.394221,2.8522446,1.0025927,0.042738892,-0.11234222,-0.2942878,9.86873271387342,0.3178878698234502,stand
09/07/2020, 21:28:29,9.394221,2.8522446,1.0025927,-0.0024422223,-0.0012211112,-0.30772,9.86873271387342,0.3077321194720913,stand
09/07/2020, 21:28:29,9.456435,2.952743,0.9499506,-0.0024422223,-0.0012211112,-0.30772,9.952148732566018,0.3077321194720913,stand
09/07/2020, 21:28:29,9.456435,2.952743,0.9499506,-0.02198,-0.008547778,-0.30039334,9.952148732566018,0.30131768192995817,stand
09/07/2020, 21:28:29,9.296116,2.9048867,1.0432707,-0.02198,-0.008547778,-0.30039334,9.795128942757989,0.30131768192995817,stand
09/07/2020, 21:28:29,9.296116,2.9048867,1.0432707,-0.012211111,-0.0012211112,-0.24422224,9.795128942757989,0.24453037481976114,stand
09/07/2020, 21:28:29,9.3104725,2.9790642,0.9595219,-0.012211111,-0.0012211112,-0.24422224,9.82244388518624,0.24453037481976114,stand
09/07/2020, 21:28:29,9.3104725,2.9790642,0.9595219,-0.068382226,-0.012211111,-0.20514667,9.82244388518624,0.2165880800423463,stand
09/07/2020, 21:28:30,9.389436,2.969493,0.99302137,-0.02198,0.03174889,0.10745778,9.897751443595558,0.11418531798480974,stand
09/07/2020, 21:28:30,9.348758,2.952743,0.9810573,-0.02198,0.03174889,0.10745778,9.85294048959336,0.11418531798480974,stand
09/07/2020, 21:28:30,9.348758,2.952743,0.9810573,-0.009768889,0.023201112,0.07326667,9.85294048959336,0.07747081857624001,stand
09/07/2020, 21:28:30,9.32483,2.9240294,0.9762716,-0.009768889,0.023201112,0.07326667,9.821176584024577,0.07747081857624001,stand
09/07/2020, 21:28:30,9.32483,2.9240294,0.9762716,-0.008547778,0.028085556,0.04396,9.821176584024577,0.05286156144161744,stand
09/07/2020, 21:28:30,9.329616,2.9096723,0.971486,-0.008547778,0.028085556,0.04396,9.820982882033,0.05286156144161744,stand
09/07/2020, 21:28:30,9.329616,2.9096723,0.971486,-0.013432222,0.024422223,0.03297,9.820982882033,0.04317279776576725,stand
09/07/2020, 21:28:30,9.38465,2.9120653,0.99302137,-0.013432222,0.024422223,0.03297,9.876126543786754,0.04317279776576725,stand
09/07/2020, 21:28:30,9.38465,2.9120653,0.99302137,-0.009768889,0.02075889,0.02198,9.876126543786754,0.03177236416999237,stand
09/07/2020, 21:28:30,9.387043,2.9383862,0.971486,-0.009768889,0.02075889,0.02198,9.884051534464481,0.03177236416999237,stand
09/07/2020, 21:28:30,9.387043,2.9383862,0.971486,-0.0024422223,0.017095556,0.019537779,9.884051534464481,0.02607579898715561,stand
09/07/2020, 21:28:30,9.341579,2.9240294,0.95712906,-0.0024422223,0.017095556,0.019537779,9.835199543664617,0.02607579898715561,stand
09/07/2020, 21:28:30,9.341579,2.9240294,0.95712906,-0.0061055557,0.013432222,0.0036633336,9.835199543664617,0.01520271102146125,stand
09/07/2020, 21:28:30,9.399008,2.9479575,1.0001999,-0.0061055557,0.013432222,0.0036633336,9.9011211968642,0.01520271102146125,stand
09/07/2020, 21:28:30,9.399008,2.9479575,1.0001999,-0.0036633336,0.015874445,-0.018316668,9.9011211968642,0.024513635803844858,stand
09/07/2020, 21:28:30,9.430114,2.926422,1.0193424,-0.0036633336,0.015874445,-0.018316668,9.926230479474725,0.024513635803844858,stand
09/07/2020, 21:28:30,9.430114,2.926422,1.0193424,-0.0024422223,0.0024422223,-0.037854444,9.926230479474725,0.0380116804169155,stand
09/07/2020, 21:28:30,9.41815,2.8929226,1.0025927,-0.0024422223,0.0024422223,-0.037854444,9.903319743050526,0.0380116804169155,stand
09/07/2020, 21:28:30,9.41815,2.8929226,1.0025927,0.0012211112,0.0048844446,-0.06594,9.903319743050526,0.06613193273557323,stand
09/07/2020, 21:28:30,9.370294,2.8594232,0.9834501,0.0012211112,0.0048844446,-0.06594,9.84610976034251,0.06613193273557323,stand
09/07/2020, 21:28:31,9.322437,2.8929226,0.9451649,-0.007326667,0.017095556,0.0036633336,9.806639336821144,0.018956743304761988,stand
09/07/2020, 21:28:31,9.322437,2.8929226,0.9451649,-0.012211111,0.02075889,-0.0036633336,9.806639336821144,0.02436109094677774,stand
09/07/2020, 21:28:31,9.399008,2.900101,0.97866446,-0.012211111,0.02075889,-0.0036633336,9.884822567604408,0.02436109094677774,stand
09/07/2020, 21:28:31,9.399008,2.900101,0.97866446,-0.008547778,0.017095556,-0.007326667,9.884822567604408,0.020469553403326225,stand
09/07/2020, 21:28:31,9.339187,2.885744,0.96909314,-0.008547778,0.017095556,-0.007326667,9.822783115274953,0.020469553403326225,stand
09/07/2020, 21:28:31,9.339187,2.885744,0.96909314,-0.0036633336,0.009768889,-0.01099,9.822783115274953,0.015153590933515284,stand
09/07/2020, 21:28:31,9.332008,2.9048867,0.9164511,-0.0036633336,0.009768889,-0.01099,9.816548759532736,0.015153590933515284,stand
09/07/2020, 21:28:31,9.332008,2.9048867,0.9164511,-0.0024422223,0.01099,-0.015874445,9.816548759532736,0.019461309696289605,stand
09/07/2020, 21:28:31,9.365508,2.8905299,0.9284152,-0.0024422223,0.01099,-0.015874445,9.845296301678982,0.019461309696289605,stand
09/07/2020, 21:28:31,9.365508,2.8905299,0.9284152,-0.007326667,0.014653334,-0.03052778,9.845296301678982,0.034646004135860456,stand
09/07/2020, 21:28:31,9.288938,2.8761728,0.94755775,-0.007326667,0.014653334,-0.03052778,9.77008683202194,0.034646004135860456,stand
09/07/2020, 21:28:31,9.288938,2.8761728,0.94755775,-0.008547778,0.014653334,-0.036633335,9.77008683202194,0.04037060761124506,stand
09/07/2020, 21:28:31,9.35833,2.900101,0.9810573,-0.008547778,0.014653334,-0.036633335,9.846389949502294,0.04037060761124506,stand
09/07/2020, 21:28:31,9.35833,2.900101,0.9810573,-0.007326667,0.013432222,-0.036633335,9.846389949502294,0.03970020010640796,stand
09/07/2020, 21:28:31,9.355937,2.8977082,0.99302137,-0.007326667,0.013432222,-0.036633335,9.844610776768992,0.03970020010640796,stand
09/07/2020, 21:28:31,9.355937,2.8977082,0.99302137,0.0012211112,0.0036633336,-0.039075557,9.844610776768992,0.03926589221598498,stand
09/07/2020, 21:28:31,9.38465,2.926422,0.99302137,0.0012211112,0.0036633336,-0.039075557,9.880369315250256,0.03926589221598498,stand
09/07/2020, 21:28:31,9.38465,2.926422,0.99302137,0.0,0.012211111,-0.05250778,9.880369315250256,0.053908981192573716,stand
09/07/2020, 21:28:31,9.406186,2.9216363,0.96909314,0.0,0.012211111,-0.05250778,9.897041854114539,0.053908981192573716,stand
09/07/2020, 21:28:31,9.406186,2.9216363,0.96909314,-0.0048844446,0.014653334,-0.06105556,9.897041854114539,0.06297903916650358,stand
09/07/2020, 21:28:32,9.4229355,2.926422,1.0049855,-0.009768889,0.014653334,-0.025643334,9.917946125474796,0.031108390744992758,stand
09/07/2020, 21:28:32,9.370294,2.900101,0.9906286,-0.009768889,0.014653334,-0.025643334,9.858718628518043,0.031108390744992758,stand
09/07/2020, 21:28:32,9.370294,2.900101,0.9906286,-0.0048844446,0.017095556,-0.018316668,9.858718628518043,0.025526773399984416,stand
09/07/2020, 21:28:32,9.38465,2.926422,0.9762716,-0.0048844446,0.017095556,-0.018316668,9.87869994790451,0.025526773399984416,stand
09/07/2020, 21:28:32,9.38465,2.926422,0.9762716,-0.0048844446,0.015874445,-0.02075889,9.87869994790451,0.026585471888137608,stand
09/07/2020, 21:28:32,9.413364,2.9575288,0.98584294,-0.0048844446,0.015874445,-0.02075889,9.916163200018344,0.026585471888137608,stand
09/07/2020, 21:28:32,9.413364,2.9575288,0.98584294,-0.0036633336,0.018316668,-0.023201112,9.916163200018344,0.0297861025757638,stand
09/07/2020, 21:28:32,9.382257,2.955136,0.9834501,-0.0036633336,0.018316668,-0.023201112,9.885684515513503,0.0297861025757638,stand
09/07/2020, 21:28:32,9.382257,2.955136,0.9834501,-0.009768889,0.012211111,-0.029306669,9.885684515513503,0.03321781561645534,stand
09/07/2020, 21:28:32,9.468399,2.955136,1.0193424,-0.009768889,0.012211111,-0.029306669,9.971081618408867,0.03321781561645534,stand
09/07/2020, 21:28:32,9.468399,2.955136,1.0193424,-0.0036633336,0.0061055557,-0.023201112,9.971081618408867,0.02426910397210811,stand
09/07/2020, 21:28:32,9.439685,2.926422,0.98584294,-0.0036633336,0.0061055557,-0.023201112,9.931942565909253,0.02426910397210811,stand
09/07/2020, 21:28:32,9.439685,2.926422,0.98584294,-0.0024422223,0.014653334,-0.019537779,9.931942565909253,0.024544030847265676,stand
09/07/2020, 21:28:32,9.466006,2.9623144,0.97866446,-0.0024422223,0.014653334,-0.019537779,9.96686336845979,0.024544030847265676,stand
09/07/2020, 21:28:32,9.466006,2.9623144,0.97866446,-0.0036633336,0.015874445,-0.02198,9.96686336845979,0.02735943091579534,stand
09/07/2020, 21:28:32,9.427721,2.9431717,1.026521,-0.0036633336,0.015874445,-0.02198,9.92964898087553,0.02735943091579534,stand
09/07/2020, 21:28:32,9.427721,2.9431717,1.026521,-0.0048844446,0.013432222,-0.023201112,9.92964898087553,0.02725021069414038,stand
09/07/2020, 21:28:32,9.387043,2.9120653,1.0145568,-0.0048844446,0.013432222,-0.023201112,9.880588333858494,0.02725021069414038,stand
09/07/2020, 21:28:32,9.387043,2.9120653,1.0145568,-0.0061055557,0.012211111,-0.019537779,9.880588333858494,0.023835138823604465,stand
09/07/2020, 21:28:32,9.389436,2.9216363,1.012164,-0.0061055557,0.012211111,-0.019537779,9.885440755006906,0.023835138823604465,stand
09/07/2020, 21:28:33,9.322437,2.8953154,0.9906286,-0.0036633336,0.015874445,-0.025643334,9.811831291746833,0.030380892005230448,stand
09/07/2020, 21:28:33,9.322437,2.8953154,0.9906286,-0.0048844446,0.01099,-0.024422223,9.811831291746833,0.027222837300556336,stand
09/07/2020, 21:28:33,9.288938,2.8905299,0.96430755,-0.0048844446,0.01099,-0.024422223,9.775960982638754,0.027222837300556336,stand
09/07/2020, 21:28:33,9.288938,2.8905299,0.96430755,-0.0036633336,0.017095556,-0.02198,9.775960982638754,0.028085556670861402,stand
09/07/2020, 21:28:33,9.3511505,2.9192436,0.9499506,-0.0036633336,0.017095556,-0.02198,9.842174813158463,0.028085556670861402,stand
09/07/2020, 21:28:33,9.3511505,2.9192436,0.9499506,-0.007326667,0.017095556,-0.023201112,9.842174813158463,0.029735999865065952,stand
09/07/2020, 21:28:33,9.329616,2.9072795,0.95712906,-0.007326667,0.017095556,-0.023201112,9.81886435355085,0.029735999865065952,stand
09/07/2020, 21:28:33,9.329616,2.9072795,0.95712906,-0.008547778,0.014653334,-0.019537779,9.81886435355085,0.02587488189784484,stand
09/07/2020, 21:28:33,9.336794,2.8905299,0.997807,-0.008547778,0.014653334,-0.019537779,9.824790181903994,0.02587488189784484,stand
09/07/2020, 21:28:33,9.336794,2.8905299,0.997807,-0.0024422223,0.009768889,-0.017095556,9.824790181903994,0.019840708132377885,stand
09/07/2020, 21:28:33,9.296116,2.8881369,0.9667004,-0.0024422223,0.009768889,-0.017095556,9.782311307899484,0.019840708132377885,stand
09/07/2020, 21:28:33,9.296116,2.8881369,0.9667004,-0.0024422223,0.008547778,-0.015874445,9.782311307899484,0.01819414688042557,stand
09/07/2020, 21:28:33,9.387043,2.9312077,0.95712906,-0.0024422223,0.008547778,-0.015874445,9.880518743343947,0.01819414688042557,stand
09/07/2020, 21:28:33,9.387043,2.9312077,0.95712906,-0.009768889,0.017095556,-0.014653334,9.880518743343947,0.02454403100943828,stand
09/07/2020, 21:28:33,9.341579,2.928815,0.9906286,-0.009768889,0.017095556,-0.014653334,9.839939433457484,0.02454403100943828,stand
09/07/2020, 21:28:33,9.341579,2.928815,0.9906286,-0.008547778,0.02075889,-0.015874445,9.839939433457484,0.027495345586286475,stand
09/07/2020, 21:28:33,9.355937,2.902494,1.0073783,-0.008547778,0.02075889,-0.015874445,9.84747883954133,0.027495345586286475,stand
09/07/2020, 21:28:33,9.355937,2.902494,1.0073783,-0.0061055557,0.015874445,-0.015874445,9.84747883954133,0.023265292738343112,stand
09/07/2020, 21:28:33,9.406186,2.900101,0.9954142,-0.0061055557,0.015874445,-0.015874445,9.893319561383311,0.023265292738343112,stand
09/07/2020, 21:28:33,9.406186,2.900101,0.9954142,-0.0024422223,0.008547778,-0.013432222,9.893319561383311,0.016107562255969817,stand
09/07/2020, 21:28:34,9.375079,2.9072795,0.96430755,-0.0048844446,0.018316668,-0.019537779,9.86277203668614,0.027222837843638183,stand
09/07/2020, 21:28:34,9.375079,2.9072795,0.96430755,-0.0048844446,0.02075889,-0.017095556,9.86277203668614,0.027332166928199175,stand
09/07/2020, 21:28:34,9.396614,2.9120653,0.9834501,-0.0048844446,0.02075889,-0.017095556,9.88653904658677,0.027332166928199175,stand
09/07/2020, 21:28:34,9.396614,2.9120653,0.9834501,-0.007326667,0.015874445,-0.023201112,9.88653904658677,0.02905115582036647,stand
09/07/2020, 21:28:34,9.38465,2.9096723,0.9882358,-0.007326667,0.015874445,-0.023201112,9.874941141583621,0.02905115582036647,stand
09/07/2020, 21:28:34,9.38465,2.9096723,0.9882358,-0.009768889,0.02075889,-0.025643334,9.874941141583621,0.03440847662928298,stand
09/07/2020, 21:28:34,9.382257,2.9431717,0.98584294,-0.009768889,0.02075889,-0.025643334,9.8823530230438,0.03440847662928298,stand
09/07/2020, 21:28:34,9.382257,2.9431717,0.98584294,-0.0036633336,0.014653334,-0.018316668,9.8823530230438,0.02374111478453608,stand
09/07/2020, 21:28:34,9.360723,2.8953154,0.94277215,-0.0036633336,0.014653334,-0.018316668,9.843515487239168,0.02374111478453608,stand
09/07/2020, 21:28:34,9.360723,2.8953154,0.94277215,-0.0024422223,0.012211111,-0.017095556,9.843515487239168,0.021150265774039997,stand
09/07/2020, 21:28:34,9.327223,2.8929226,0.9499506,-0.0024422223,0.012211111,-0.017095556,9.811650885911362,0.021150265774039997,stand
09/07/2020, 21:28:34,9.327223,2.8929226,0.9499506,-0.01099,0.01099,-0.023201112,9.811650885911362,0.027925826734576005,stand
09/07/2020, 21:28:34,9.3511505,2.9240294,0.9762716,-0.01099,0.01099,-0.023201112,9.846170313712161,0.027925826734576005,stand
09/07/2020, 21:28:34,9.3511505,2.9240294,0.9762716,-0.0036633336,0.014653334,-0.02075889,9.846170313712161,0.025672392175044974,stand
09/07/2020, 21:28:34,9.353543,2.926422,0.9762716,-0.0036633336,0.014653334,-0.02075889,9.849153498324764,0.025672392175044974,stand
09/07/2020, 21:28:34,9.353543,2.926422,0.9762716,-0.007326667,0.017095556,-0.019537779,9.849153498324764,0.026975227434957446,stand
09/07/2020, 21:28:34,9.329616,2.900101,0.9451649,-0.007326667,0.017095556,-0.019537779,9.815581966226938,0.026975227434957446,stand
09/07/2020, 21:28:34,9.329616,2.900101,0.9451649,-0.0061055557,0.013432222,-0.023201112,9.815581966226938,0.027495344945183416,stand
09/07/2020, 21:28:34,9.334401,2.900101,0.94755775,-0.0061055557,0.013432222,-0.023201112,9.82036127911918,0.027495344945183416,stand
09/07/2020, 21:28:34,9.334401,2.900101,0.94755775,-0.007326667,0.012211111,-0.017095556,9.82036127911918,0.022249704372455444,stand
09/07/2020, 21:28:35,9.353543,2.914458,0.9451649,-0.0036633336,0.017095556,-0.018316668,9.842569496321241,0.025321500228057858,stand
09/07/2020, 21:28:35,9.29133,2.9192436,0.9619147,-0.0036633336,0.017095556,-0.018316668,9.786525553595068,0.025321500228057858,stand
09/07/2020, 21:28:35,9.29133,2.9192436,0.9619147,0.0036633336,0.015874445,-0.02075889,9.786525553595068,0.02638843551824051,stand
09/07/2020, 21:28:35,9.444471,2.9623144,1.0336994,0.0036633336,0.015874445,-0.02075889,9.951978702854971,0.02638843551824051,stand
09/07/2020, 21:28:35,9.444471,2.9623144,1.0336994,-0.0061055557,0.015874445,-0.02075889,9.951978702854971,0.026836678749326184,stand
09/07/2020, 21:28:35,9.353543,2.9359934,0.97866446,-0.0061055557,0.015874445,-0.02075889,9.852239008443425,0.026836678749326184,stand
09/07/2020, 21:28:35,9.353543,2.9359934,0.97866446,-0.007326667,0.018316668,-0.017095556,9.852239008443425,0.02610437536049782,stand
09/07/2020, 21:28:35,9.322437,2.885744,0.9499506,-0.007326667,0.018316668,-0.017095556,9.8049865902969,0.02610437536049782,stand
09/07/2020, 21:28:35,9.322437,2.885744,0.9499506,0.0036633336,0.008547778,-0.01099,9.8049865902969,0.01439668827086979,stand
09/07/2020, 21:28:35,9.348758,2.9168508,0.9738788,0.0036633336,0.008547778,-0.01099,9.841530871362595,0.01439668827086979,stand
09/07/2020, 21:28:35,9.348758,2.9168508,0.9738788,-0.008547778,0.01099,-0.013432222,9.841530871362595,0.019346038850737098,stand
09/07/2020, 21:28:35,9.420543,2.9479575,1.012164,-0.008547778,0.01099,-0.013432222,9.922779577977273,0.019346038850737098,stand
09/07/2020, 21:28:35,9.420543,2.9479575,1.012164,-0.012211111,0.01099,-0.025643334,9.922779577977273,0.030454423590797062,stand
09/07/2020, 21:28:35,9.401401,2.9383862,1.0360922,-0.012211111,0.01099,-0.025643334,9.904238135464537,0.030454423590797062,stand
09/07/2020, 21:28:35,9.401401,2.9383862,1.0360922,-0.01099,0.012211111,-0.02198,9.904238135464537,0.027441060060617174,stand
09/07/2020, 21:28:35,9.339187,2.9072795,1.0097711,-0.01099,0.012211111,-0.02198,9.833225277609671,0.027441060060617174,stand
09/07/2020, 21:28:35,9.339187,2.9072795,1.0097711,-0.0061055557,0.012211111,-0.015874445,9.833225277609671,0.020937694935633192,stand
09/07/2020, 21:28:35,9.391829,2.9455647,1.0025927,-0.0061055557,0.012211111,-0.015874445,9.893835809926056,0.020937694935633192,stand
09/07/2020, 21:28:35,9.391829,2.9455647,1.0025927,-0.0012211112,0.013432222,-0.02075889,9.893835809926056,0.024755751041656917,stand
09/07/2020, 21:28:35,9.363115,2.926422,0.97866446,-0.0012211112,0.013432222,-0.02075889,9.858481569756865,0.024755751041656917,stand
09/07/2020, 21:28:36,9.394221,2.9431717,1.0025927,-0.007326667,0.019537779,-0.019537779,9.89539518763986,0.028585479446994556,stand
09/07/2020, 21:28:36,9.401401,2.9120653,0.97866446,-0.007326667,0.019537779,-0.019537779,9.890613775079313,0.028585479446994556,stand
09/07/2020, 21:28:36,9.401401,2.9120653,0.97866446,-0.0012211112,0.017095556,-0.019537779,9.890613775079313,0.025989881789230312,stand
09/07/2020, 21:28:36,9.410972,2.9336007,0.9906286,-0.0012211112,0.017095556,-0.019537779,9.907257194495982,0.025989881789230312,stand
09/07/2020, 21:28:36,9.410972,2.9336007,0.9906286,-0.0024422223,0.013432222,-0.017095556,9.907257194495982,0.02187800494604416,stand
09/07/2020, 21:28:36,9.348758,2.9048867,1.0145568,-0.0024422223,0.013432222,-0.017095556,9.842101587282672,0.02187800494604416,stand
09/07/2020, 21:28:36,9.348758,2.9048867,1.0145568,-0.008547778,0.018316668,-0.02198,9.842101587282672,0.029861099295941964,stand
09/07/2020, 21:28:36,9.336794,2.885744,1.0313065,-0.008547778,0.018316668,-0.02198,9.82684244358499,0.029861099295941964,stand
09/07/2020, 21:28:36,9.336794,2.885744,1.0313065,-0.009768889,0.02075889,-0.024422223,9.82684244358499,0.03350832224861735,stand
09/07/2020, 21:28:36,9.30808,2.885744,0.96909314,-0.009768889,0.02075889,-0.024422223,9.793212372248517,0.03350832224861735,stand
09/07/2020, 21:28:36,9.30808,2.885744,0.96909314,-0.009768889,0.01099,-0.014653334,9.793212372248517,0.020758889999021507,stand
09/07/2020, 21:28:36,9.317652,2.9072795,0.97866446,-0.009768889,0.01099,-0.014653334,9.809622432666304,0.020758889999021507,stand
09/07/2020, 21:28:36,9.317652,2.9072795,0.97866446,-0.0036633336,0.008547778,-0.017095556,9.809622432666304,0.01946130975472598,stand
09/07/2020, 21:28:36,9.3511505,2.9192436,0.971486,-0.0036633336,0.008547778,-0.017095556,9.844276710395361,0.01946130975472598,stand
09/07/2020, 21:28:36,9.3511505,2.9192436,0.971486,-0.0036633336,0.01099,-0.017095556,9.844276710395361,0.020650863704886266,stand
09/07/2020, 21:28:36,9.382257,2.9503503,1.0001999,-0.0036633336,0.01099,-0.017095556,9.8859355523083,0.020650863704886266,stand
09/07/2020, 21:28:36,9.382257,2.9503503,1.0001999,-0.007326667,0.014653334,-0.017095556,9.8859355523083,0.023678224437947135,stand
09/07/2020, 21:28:36,9.415757,2.955136,1.0169497,-0.007326667,0.014653334,-0.017095556,9.92086180702748,0.023678224437947135,stand
09/07/2020, 21:28:36,9.415757,2.955136,1.0169497,-0.009768889,0.009768889,-0.018316668,9.92086180702748,0.02294259586539336,stand
09/07/2020, 21:28:36,9.403793,2.9336007,1.0145568,-0.009768889,0.009768889,-0.018316668,9.902861575010904,0.02294259586539336,stand
09/07/2020, 21:28:37,9.332008,2.9383862,0.9284152,-0.0061055557,0.019537779,-0.02075889,9.827636963245567,0.029153629273512286,stand
09/07/2020, 21:28:37,9.315259,2.914458,0.9619147,-0.0061055557,0.019537779,-0.02075889,9.807823174984351,0.029153629273512286,stand
09/07/2020, 21:28:37,9.315259,2.914458,0.9619147,-0.0036633336,0.019537779,-0.019537779,9.807823174984351,0.02787238052359928,stand
09/07/2020, 21:28:37,9.317652,2.8953154,0.98584294,-0.0036633336,0.019537779,-0.019537779,9.806802319502003,0.02787238052359928,stand
09/07/2020, 21:28:37,9.317652,2.8953154,0.98584294,-0.0061055557,0.009768889,-0.015874445,9.806802319502003,0.01961394978323637,stand
09/07/2020, 21:28:37,9.372686,2.8881369,0.9810573,-0.0061055557,0.009768889,-0.015874445,9.856523628276982,0.01961394978323637,stand
09/07/2020, 21:28:37,9.372686,2.8881369,0.9810573,0.0012211112,0.012211111,-0.023201112,9.856523628276982,0.02624678909441184,stand
09/07/2020, 21:28:37,9.332008,2.8546374,0.9906286,0.0012211112,0.012211111,-0.023201112,9.809010127677816,0.02624678909441184,stand
09/07/2020, 21:28:37,9.332008,2.8546374,0.9906286,-0.0012211112,0.014653334,-0.014653334,9.809010127677816,0.020758890389355227,stand
09/07/2020, 21:28:37,9.312865,2.8666015,0.9762716,-0.0012211112,0.014653334,-0.014653334,9.792852983964773,0.020758890389355227,stand
09/07/2020, 21:28:37,9.312865,2.8666015,0.9762716,-0.007326667,0.02198,-0.019537779,9.792852983964773,0.030307181867030568,stand
09/07/2020, 21:28:37,9.267402,2.900101,0.9834501,-0.007326667,0.02198,-0.019537779,9.760250704196565,0.030307181867030568,stand
09/07/2020, 21:28:37,9.267402,2.900101,0.9834501,-0.0012211112,0.014653334,-0.02075889,9.760250704196565,0.025439001934078047,stand
09/07/2020, 21:28:37,9.339187,2.926422,1.0169497,-0.0012211112,0.014653334,-0.02075889,9.83964128637574,0.025439001934078047,stand
09/07/2020, 21:28:37,9.339187,2.926422,1.0169497,0.0012211112,0.01099,-0.009768889,9.83964128637574,0.014754742206932413,stand
09/07/2020, 21:28:37,9.305687,2.9216363,0.9906286,0.0012211112,0.01099,-0.009768889,9.80372957441461,0.014754742206932413,stand
09/07/2020, 21:28:37,9.305687,2.9216363,0.9906286,-0.0012211112,0.017095556,-0.019537779,9.80372957441461,0.025989881789230312,stand
09/07/2020, 21:28:37,9.367901,2.9431717,1.0169497,-0.0012211112,0.017095556,-0.019537779,9.871879901614598,0.025989881789230312,stand
09/07/2020, 21:28:37,9.367901,2.9431717,1.0169497,-0.009768889,0.018316668,-0.019537779,9.871879901614598,0.028507127155627313,stand
09/07/2020, 21:28:37,9.382257,2.9479575,1.0145568,-0.009768889,0.018316668,-0.019537779,9.886684682934728,0.028507127155627313,stand
09/07/2020, 21:28:38,9.461221,2.9359934,1.0217353,-0.014653334,0.019537779,-0.023201112,9.95885025484971,0.033685851401901605,stand
09/07/2020, 21:28:38,9.461221,2.9359934,1.0217353,-0.007326667,0.013432222,-0.024422223,9.95885025484971,0.028819257715777875,stand
09/07/2020, 21:28:38,9.45165,2.9192436,1.0169497,-0.007326667,0.013432222,-0.024422223,9.944337637510756,0.028819257715777875,stand
09/07/2020, 21:28:38,9.45165,2.9192436,1.0169497,-0.0012211112,0.01099,-0.013432222,9.944337637510756,0.01739815561540819,stand
09/07/2020, 21:28:38,9.425328,2.9312077,0.97866446,-0.0012211112,0.01099,-0.013432222,9.919000713652279,0.01739815561540819,stand
09/07/2020, 21:28:38,9.425328,2.9312077,0.97866446,-0.0061055557,0.019537779,-0.017095556,9.919000713652279,0.026669470433430945,stand
09/07/2020, 21:28:38,9.3104725,2.9383862,0.92602235,-0.0061055557,0.019537779,-0.017095556,9.80696328242065,0.026669470433430945,stand
09/07/2020, 21:28:38,9.3104725,2.9383862,0.92602235,-0.008547778,0.019537779,-0.017095556,9.80696328242065,0.027332167053024447,stand
09/07/2020, 21:28:38,9.327223,2.9120653,0.95712906,-0.008547778,0.019537779,-0.017095556,9.818009257111743,0.027332167053024447,stand
09/07/2020, 21:28:38,9.327223,2.9120653,0.95712906,-0.0048844446,0.015874445,-0.02075889,9.818009257111743,0.026585471888137608,stand
09/07/2020, 21:28:38,9.375079,2.9120653,0.9834501,-0.0048844446,0.015874445,-0.02075889,9.866073556011175,0.026585471888137608,stand
09/07/2020, 21:28:38,9.375079,2.9120653,0.9834501,-0.0012211112,0.012211111,-0.014653334,9.866073556011175,0.019113413152159163,stand
09/07/2020, 21:28:38,9.391829,2.902494,0.99302137,-0.0012211112,0.012211111,-0.014653334,9.880131874560883,0.019113413152159163,stand
09/07/2020, 21:28:38,9.391829,2.902494,0.99302137,-0.0024422223,0.01099,-0.015874445,9.880131874560883,0.019461309696289605,stand
09/07/2020, 21:28:38,9.379865,2.926422,0.971486,-0.0024422223,0.01099,-0.015874445,9.87368183947148,0.019461309696289605,stand
09/07/2020, 21:28:38,9.379865,2.926422,0.971486,-0.01099,0.014653334,-0.023201112,9.87368183947148,0.02955997125207222,stand
09/07/2020, 21:28:38,9.408579,2.9168508,0.9667004,-0.01099,0.014653334,-0.023201112,9.897670667329292,0.02955997125207222,stand
09/07/2020, 21:28:38,9.408579,2.9168508,0.9667004,-0.012211111,0.018316668,-0.019537779,9.897670667329292,0.029433592063922914,stand
09/07/2020, 21:28:38,9.396614,2.9431717,0.9834501,-0.012211111,0.018316668,-0.019537779,9.89574606009021,0.029433592063922914,stand
09/07/2020, 21:28:38,9.396614,2.9431717,0.9834501,-0.007326667,0.015874445,-0.019537779,9.89574606009021,0.026218368783959296,stand
09/07/2020, 21:28:39,9.317652,2.914458,0.9451649,-0.0048844446,0.014653334,-0.018316668,9.808467590772906,0.023959931502972525,stand
09/07/2020, 21:28:39,9.375079,2.940779,0.95473623,-0.0048844446,0.014653334,-0.018316668,9.871768402402886,0.023959931502972525,stand
09/07/2020, 21:28:39,9.375079,2.940779,0.95473623,-0.009768889,0.02198,-0.019537779,9.871768402402886,0.03098832713103012,stand
09/07/2020, 21:28:39,9.355937,2.8809586,0.94755775,-0.009768889,0.02198,-0.019537779,9.835209459740671,0.03098832713103012,stand
09/07/2020, 21:28:39,9.355937,2.8809586,0.94755775,-0.007326667,0.014653334,-0.025643334,9.835209459740671,0.030429933110092112,stand
09/07/2020, 21:28:39,9.341579,2.8953154,0.9379865,-0.007326667,0.014653334,-0.025643334,9.824855029959158,0.030429933110092112,stand
09/07/2020, 21:28:39,9.341579,2.8953154,0.9379865,-0.0036633336,0.013432222,-0.013432222,9.824855029959158,0.01934603864499114,stand
09/07/2020, 21:28:39,9.284152,2.8809586,0.92602235,-0.0036633336,0.013432222,-0.013432222,9.764881900757956,0.01934603864499114,stand
09/07/2020, 21:28:39,9.284152,2.8809586,0.92602235,-0.0048844446,0.013432222,-0.023201112,9.764881900757956,0.02725021069414038,stand
09/07/2020, 21:28:39,9.284152,2.902494,0.9523434,-0.0048844446,0.013432222,-0.023201112,9.773786781216916,0.02725021069414038,stand
09/07/2020, 21:28:39,9.284152,2.902494,0.9523434,-0.008547778,0.017095556,-0.017095556,9.773786781216916,0.025643334724009037,stand
09/07/2020, 21:28:39,9.298509,2.9048867,0.94755775,-0.008547778,0.017095556,-0.017095556,9.787670589062506,0.025643334724009037,stand
09/07/2020, 21:28:39,9.298509,2.9048867,0.94755775,-0.01099,0.023201112,-0.019537779,9.787670589062506,0.03226137757531783,stand
09/07/2020, 21:28:39,9.339187,2.9216363,0.96909314,-0.01099,0.023201112,-0.019537779,9.833387415816023,0.03226137757531783,stand
09/07/2020, 21:28:39,9.339187,2.9216363,0.96909314,-0.0036633336,0.018316668,-0.017095556,9.833387415816023,0.025321500228057858,stand
09/07/2020, 21:28:39,9.327223,2.902494,0.9523434,-0.0036633336,0.018316668,-0.017095556,9.814709100189555,0.025321500228057858,stand
09/07/2020, 21:28:39,9.327223,2.902494,0.9523434,-0.0012211112,0.013432222,-0.014653334,9.814709100189555,0.01991572043466507,stand
09/07/2020, 21:28:39,9.377472,2.9120653,0.99302137,-0.0012211112,0.013432222,-0.014653334,9.869305712358011,0.01991572043466507,stand
09/07/2020, 21:28:39,9.377472,2.9120653,0.99302137,-0.007326667,0.019537779,-0.025643334,9.869305712358011,0.03306032987915523,stand
09/07/2020, 21:28:39,9.363115,2.914458,0.9810573,-0.007326667,0.019537779,-0.025643334,9.855174649182073,0.03306032987915523,stand
09/07/2020, 21:28:40,9.32483,2.914458,0.9619147,-0.007326667,0.018316668,-0.025643334,9.816914032938893,0.03235368494488146,stand
09/07/2020, 21:28:40,9.32483,2.914458,0.9619147,-0.0048844446,0.015874445,-0.019537779,9.816914032938893,0.025643334590962956,stand
09/07/2020, 21:28:40,9.343972,2.9120653,0.9667004,-0.0048844446,0.015874445,-0.019537779,9.8348589377982,0.025643334590962956,stand
09/07/2020, 21:28:40,9.343972,2.9120653,0.9667004,-0.0012211112,0.017095556,-0.015874445,9.8348589377982,0.023361232456685765,stand
09/07/2020, 21:28:40,9.370294,2.914458,0.971486,-0.0012211112,0.017095556,-0.015874445,9.86104726254247,0.023361232456685765,stand
09/07/2020, 21:28:40,9.370294,2.914458,0.971486,-0.0024422223,0.017095556,-0.015874445,9.86104726254247,0.023456779815134228,stand
09/07/2020, 21:28:40,9.353543,2.926422,0.9810573,-0.0024422223,0.017095556,-0.015874445,9.849629015259927,0.023456779815134228,stand
09/07/2020, 21:28:40,9.353543,2.926422,0.9810573,-0.0061055557,0.014653334,-0.015874445,9.849629015259927,0.02244985605944443,stand
09/07/2020, 21:28:40,9.346365,2.926422,0.997807,-0.0061055557,0.014653334,-0.015874445,9.844496103193912,0.02244985605944443,stand
09/07/2020, 21:28:40,9.346365,2.926422,0.997807,-0.0061055557,0.01099,-0.02198,9.844496103193912,0.025321499689109506,stand
09/07/2020, 21:28:40,9.360723,2.9216363,1.012164,-0.0061055557,0.01099,-0.02198,9.858172314465456,0.025321499689109506,stand
09/07/2020, 21:28:40,9.360723,2.9216363,1.012164,-0.008547778,0.013432222,-0.023201112,9.858172314465456,0.028138597979810772,stand
09/07/2020, 21:28:40,9.370294,2.9312077,1.0456635,-0.008547778,0.013432222,-0.023201112,9.87359067948968,0.028138597979810772,stand
09/07/2020, 21:28:40,9.370294,2.9312077,1.0456635,-0.007326667,0.013432222,-0.02075889,9.87359067948968,0.02578829481346165,stand
09/07/2020, 21:28:40,9.365508,2.9455647,1.0073783,-0.007326667,0.013432222,-0.02075889,9.869341638887416,0.02578829481346165,stand
09/07/2020, 21:28:40,9.365508,2.9455647,1.0073783,-0.008547778,0.012211111,-0.018316668,9.869341638887416,0.023615165956422355,stand
09/07/2020, 21:28:40,9.410972,2.9336007,1.0193424,-0.008547778,0.012211111,-0.018316668,9.91016947729926,0.023615165956422355,stand
09/07/2020, 21:28:40,9.410972,2.9336007,1.0193424,-0.0061055557,0.013432222,-0.015874445,9.91016947729926,0.0216725731588163,stand
09/07/2020, 21:28:40,9.427721,2.9431717,1.052842,-0.0061055557,0.013432222,-0.015874445,9.932404538070237,0.0216725731588163,stand
09/07/2020, 21:28:40,9.427721,2.9431717,1.052842,-0.0012211112,0.015874445,-0.019537779,9.932404538070237,0.025203450595943717,stand
09/07/2020, 21:28:41,9.341579,2.9072795,0.9762716,-0.008547778,0.015874445,-0.024422223,9.832115068389957,0.03035634192078704,stand
09/07/2020, 21:28:41,9.341579,2.9072795,0.9762716,-0.01099,0.019537779,-0.024422223,9.832115068389957,0.03315041270818489,stand
09/07/2020, 21:28:41,9.367901,2.9479575,0.96909314,-0.01099,0.019537779,-0.024422223,9.868493367345511,0.03315041270818489,stand
09/07/2020, 21:28:41,9.367901,2.9479575,0.96909314,-0.01099,0.013432222,-0.019537779,9.868493367345511,0.026132919811040746,stand
09/07/2020, 21:28:41,9.363115,2.926422,0.9834501,-0.01099,0.013432222,-0.019537779,9.858957798288586,0.026132919811040746,stand
09/07/2020, 21:28:41,9.363115,2.926422,0.9834501,-0.009768889,0.007326667,-0.02075889,9.858957798288586,0.024084076651619556,stand
09/07/2020, 21:28:41,9.341579,2.926422,0.9451649,-0.009768889,0.007326667,-0.02075889,9.834754167028038,0.024084076651619556,stand
09/07/2020, 21:28:41,9.341579,2.926422,0.9451649,-0.0061055557,0.01099,-0.018316668,9.834754167028038,0.022216170389897073,stand
09/07/2020, 21:28:41,9.394221,2.928815,0.971486,-0.0061055557,0.01099,-0.018316668,9.888029914294599,0.022216170389897073,stand
09/07/2020, 21:28:41,9.394221,2.928815,0.971486,-0.007326667,0.013432222,-0.018316668,9.888029914294599,0.02386639814905509,stand
09/07/2020, 21:28:41,9.365508,2.9096723,0.9906286,-0.007326667,0.013432222,-0.018316668,9.856991390549393,0.02386639814905509,stand
09/07/2020, 21:28:41,9.365508,2.9096723,0.9906286,-0.008547778,0.017095556,-0.018316668,9.856991390549393,0.02647305939268297,stand
09/07/2020, 21:28:41,9.430114,2.9479575,1.0289137,-0.008547778,0.017095556,-0.018316668,9.933587626295196,0.02647305939268297,stand
09/07/2020, 21:28:41,9.430114,2.9479575,1.0289137,-0.0036633336,0.018316668,-0.019537779,9.933587626295196,0.02703044790317766,stand
09/07/2020, 21:28:41,9.403793,2.928815,1.0145568,-0.0036633336,0.018316668,-0.019537779,9.901444902910141,0.02703044790317766,stand
09/07/2020, 21:28:41,9.403793,2.928815,1.0145568,-0.0036633336,0.017095556,-0.017095556,9.901444902910141,0.024452732280025105,stand
09/07/2020, 21:28:41,9.401401,2.9503503,1.0408778,-0.0036633336,0.017095556,-0.017095556,9.908295819170899,0.024452732280025105,stand
09/07/2020, 21:28:41,9.401401,2.9503503,1.0408778,-0.009768889,0.018316668,-0.018316668,9.908295819170899,0.027684504988552516,stand
09/07/2020, 21:28:41,9.332008,2.940779,0.9906286,-0.009768889,0.018316668,-0.018316668,9.834424540511133,0.027684504988552516,stand
09/07/2020, 21:28:41,9.332008,2.940779,0.9906286,-0.008547778,0.013432222,-0.017095556,9.834424540511133,0.023361232061152554,stand
09/07/2020, 21:28:42,9.372686,2.9479575,0.9523434,-0.014653334,0.023201112,-0.023201112,9.871406260838013,0.03593470992617747,stand
09/07/2020, 21:28:42,9.346365,2.9359934,0.96430755,-0.014653334,0.023201112,-0.023201112,9.844007554269828,0.03593470992617747,stand
09/07/2020, 21:28:42,9.346365,2.9359934,0.96430755,-0.0061055557,0.014653334,-0.014653334,9.844007554269828,0.021603662374207456,stand
09/07/2020, 21:28:42,9.360723,2.9359934,0.9667004,-0.0061055557,0.014653334,-0.014653334,9.857874697850646,0.021603662374207456,stand
09/07/2020, 21:28:42,9.360723,2.9359934,0.9667004,0.0,0.01099,-0.017095556,9.857874697850646,0.020323340244745983,stand
09/07/2020, 21:28:42,9.341579,2.9479575,0.971486,0.0,0.01099,-0.017095556,9.843746486557336,0.020323340244745983,stand
09/07/2020, 21:28:42,9.341579,2.9479575,0.971486,-0.008547778,0.02075889,-0.02198,9.843746486557336,0.03141840925220273,stand
09/07/2020, 21:28:42,9.272188,2.8977082,0.971486,-0.008547778,0.02075889,-0.02198,9.762887454307927,0.03141840925220273,stand
09/07/2020, 21:28:42,9.272188,2.8977082,0.971486,-0.007326667,0.019537779,-0.023201112,9.762887454307927,0.031204109152835457,stand
09/07/2020, 21:28:42,9.332008,2.9192436,0.98584294,-0.007326667,0.019537779,-0.023201112,9.827525091233493,0.031204109152835457,stand
09/07/2020, 21:28:42,9.332008,2.9192436,0.98584294,-0.0036633336,0.018316668,-0.02198,9.827525091233493,0.02884511659454889,stand
09/07/2020, 21:28:42,9.348758,2.9359934,0.9738788,-0.0036633336,0.018316668,-0.02198,9.847221370027006,0.02884511659454889,stand
09/07/2020, 21:28:42,9.348758,2.9359934,0.9738788,-0.007326667,0.017095556,-0.018316668,9.847221370027006,0.02610437536049782,stand
09/07/2020, 21:28:42,9.377472,2.9336007,1.0001999,-0.007326667,0.017095556,-0.018316668,9.876405844574386,0.02610437536049782,stand
09/07/2020, 21:28:42,9.377472,2.9336007,1.0001999,-0.0024422223,0.013432222,-0.017095556,9.876405844574386,0.02187800494604416,stand
09/07/2020, 21:28:42,9.705289,3.022135,1.1078769,-0.0024422223,0.013432222,-0.017095556,10.225131963650934,0.02187800494604416,stand
09/07/2020, 21:28:42,9.705289,3.022135,1.1078769,-0.008547778,0.017095556,-0.014653334,10.225131963650934,0.024084077171038776,stand
09/07/2020, 21:28:42,9.387043,2.955136,1.026521,-0.008547778,0.017095556,-0.014653334,9.89460209933266,0.024084077171038776,stand
09/07/2020, 21:28:42,9.387043,2.955136,1.026521,-0.014653334,0.015874445,-0.013432222,9.89460209933266,0.025439002062604677,stand
09/07/2020, 21:28:42,9.305687,2.914458,1.0408778,-0.014653334,0.015874445,-0.013432222,9.806798759248897,0.025439002062604677,stand
09/07/2020, 21:28:43,9.305687,2.9048867,0.97866446,-0.0048844446,0.02075889,-0.019537779,9.79754870444708,0.028922553293888355,stand
09/07/2020, 21:28:43,9.305687,2.9048867,0.97866446,-0.01099,0.019537779,-0.02198,9.79754870444708,0.031394670371838865,stand
09/07/2020, 21:28:43,9.332008,2.8977082,0.9738788,-0.01099,0.019537779,-0.02198,9.81995583829832,0.031394670371838865,stand
09/07/2020, 21:28:43,9.332008,2.8977082,0.9738788,-0.008547778,0.012211111,-0.014653334,9.81995583829832,0.020902056423266122,stand
09/07/2020, 21:28:43,9.372686,2.9455647,0.9738788,-0.008547778,0.012211111,-0.014653334,9.872793003453918,0.020902056423266122,stand
09/07/2020, 21:28:43,9.372686,2.9455647,0.9738788,-0.0012211112,0.008547778,-0.009768889,9.872793003453918,0.013037899493577806,stand
09/07/2020, 21:28:43,9.329616,2.9383862,0.9738788,-0.0012211112,0.008547778,-0.009768889,9.829765027832172,0.013037899493577806,stand
09/07/2020, 21:28:43,9.329616,2.9383862,0.9738788,0.0,0.012211111,-0.018316668,9.829765027832172,0.022013894482492333,stand
09/07/2020, 21:28:43,9.434899,2.9479575,1.0169497,0.0,0.012211111,-0.018316668,9.936899188496334,0.022013894482492333,stand
09/07/2020, 21:28:43,9.434899,2.9479575,1.0169497,-0.01099,0.017095556,-0.019537779,9.936899188496334,0.02819154040138338,stand
09/07/2020, 21:28:43,9.38465,2.914458,1.0145568,-0.01099,0.017095556,-0.019537779,9.879020752265719,0.02819154040138338,stand
09/07/2020, 21:28:43,9.38465,2.914458,1.0145568,-0.012211111,0.018316668,-0.025643334,9.879020752265719,0.03379633291186252,stand
09/07/2020, 21:28:43,9.365508,2.9096723,1.0073783,-0.012211111,0.018316668,-0.025643334,9.858688826077264,0.03379633291186252,stand
09/07/2020, 21:28:43,9.365508,2.9096723,1.0073783,-0.0012211112,0.013432222,-0.02075889,9.858688826077264,0.024755751041656917,stand
09/07/2020, 21:28:43,9.353543,2.902494,0.971486,-0.0012211112,0.013432222,-0.02075889,9.841596824997342,0.024755751041656917,stand
09/07/2020, 21:28:43,9.353543,2.902494,0.971486,0.0,0.012211111,-0.017095556,9.841596824997342,0.021008790837298418,stand
09/07/2020, 21:28:43,9.372686,2.9312077,1.0049855,0.0,0.012211111,-0.017095556,9.87163736054479,0.021008790837298418,stand
09/07/2020, 21:28:43,9.372686,2.9312077,1.0049855,-0.0048844446,0.015874445,-0.018316668,9.87163736054479,0.02472561681208706,stand
09/07/2020, 21:28:43,9.353543,2.9192436,0.95473623,-0.0048844446,0.015874445,-0.018316668,9.844911184933975,0.02472561681208706,stand
09/07/2020, 21:28:43,9.353543,2.9192436,0.95473623,-0.012211111,0.02075889,-0.024422223,9.844911184933975,0.034299966516536225,stand
09/07/2020, 21:28:44,9.35833,2.940779,0.99302137,-0.0036633336,0.0036633336,-0.019537779,9.859645456766636,0.020212986360438532,stand
09/07/2020, 21:28:44,9.341579,2.902494,0.9667004,-0.0036633336,0.0036633336,-0.019537779,9.82975519273164,0.020212986360438532,stand
09/07/2020, 21:28:44,9.341579,2.902494,0.9667004,-0.0012211112,0.012211111,-0.02198,9.82975519273164,0.02517385116476486,stand
09/07/2020, 21:28:44,9.334401,2.928815,0.9834501,-0.0012211112,0.012211111,-0.02198,9.832404347091321,0.02517385116476486,stand
09/07/2020, 21:28:44,9.334401,2.928815,0.9834501,-0.008547778,0.02075889,-0.023201112,9.832404347091321,0.03228447916940432,stand
09/07/2020, 21:28:44,9.389436,2.9312077,0.96430755,-0.008547778,0.02075889,-0.023201112,9.883489839924332,0.03228447916940432,stand
09/07/2020, 21:28:44,9.389436,2.9312077,0.96430755,-0.008547778,0.02075889,-0.018316668,9.883489839924332,0.02897406288780131,stand
09/07/2020, 21:28:44,9.45165,2.9599216,1.0217353,-0.008547778,0.02075889,-0.018316668,9.956844897825045,0.02897406288780131,stand
09/07/2020, 21:28:44,9.45165,2.9599216,1.0217353,-0.0012211112,0.014653334,-0.017095556,9.956844897825045,0.022549265459971893,stand
09/07/2020, 21:28:44,9.475577,2.9599216,1.0145568,-0.0012211112,0.014653334,-0.017095556,9.978828964323586,0.022549265459971893,stand
09/07/2020, 21:28:44,9.475577,2.9599216,1.0145568,-0.0012211112,0.015874445,-0.019537779,9.978828964323586,0.025203450595943717,stand
09/07/2020, 21:28:44,9.377472,2.9383862,0.9762716,-0.0012211112,0.015874445,-0.019537779,9.875434139707417,0.025203450595943717,stand
09/07/2020, 21:28:44,9.377472,2.9383862,0.9762716,-0.007326667,0.015874445,-0.02198,9.875434139707417,0.028085556772092117,stand
09/07/2020, 21:28:44,9.355937,2.9336007,1.0408778,-0.007326667,0.015874445,-0.02198,9.860172245723593,0.028085556772092117,stand
09/07/2020, 21:28:44,9.355937,2.9336007,1.0408778,-0.009768889,0.018316668,-0.025643334,9.860172245723593,0.03299260637129355,stand
09/07/2020, 21:28:44,9.387043,2.9240294,1.0145568,-0.009768889,0.018316668,-0.025643334,9.884121070785095,0.03299260637129355,stand
09/07/2020, 21:28:44,9.387043,2.9240294,1.0145568,-0.008547778,0.014653334,-0.02198,9.884121070785095,0.027765178744862,stand
09/07/2020, 21:28:44,9.396614,2.9479575,0.9882358,-0.008547778,0.014653334,-0.02198,9.897647171112567,0.027765178744862,stand
09/07/2020, 21:28:44,9.396614,2.9479575,0.9882358,-0.0048844446,0.012211111,-0.015874445,9.897647171112567,0.02061472916237464,stand
09/07/2020, 21:28:44,9.425328,2.9575288,0.9810573,-0.0048844446,0.012211111,-0.015874445,9.927047037540127,0.02061472916237464,stand
09/07/2020, 21:28:45,9.370294,2.9120653,0.97866446,-0.0036633336,0.015874445,-0.023201112,9.861050183269107,0.028349772756355224,stand
09/07/2020, 21:28:45,9.370294,2.9120653,0.97866446,-0.008547778,0.018316668,-0.02198,9.861050183269107,0.029861099295941964,stand
09/07/2020, 21:28:45,9.391829,2.955136,0.97866446,-0.008547778,0.018316668,-0.02198,9.894294139879948,0.029861099295941964,stand
09/07/2020, 21:28:45,9.391829,2.955136,0.97866446,-0.008547778,0.014653334,-0.018316668,9.894294139879948,0.024965677059144688,stand
09/07/2020, 21:28:45,9.406186,2.9336007,0.9834501,-0.008547778,0.014653334,-0.018316668,9.901995960638628,0.024965677059144688,stand
09/07/2020, 21:28:45,9.406186,2.9336007,0.9834501,-0.0024422223,0.012211111,-0.015874445,9.901995960638628,0.020176067724820366,stand
09/07/2020, 21:28:45,9.3511505,2.9168508,0.971486,-0.0024422223,0.012211111,-0.015874445,9.84356741867186,0.020176067724820366,stand
09/07/2020, 21:28:45,9.3511505,2.9168508,0.971486,-0.0036633336,0.012211111,-0.018316668,9.84356741867186,0.022316620786767508,stand
09/07/2020, 21:28:45,9.403793,2.9240294,1.0049855,-0.0036633336,0.012211111,-0.018316668,9.899054120777617,0.022316620786767508,stand
09/07/2020, 21:28:45,9.403793,2.9240294,1.0049855,-0.008547778,0.019537779,-0.024422223,9.899054120777617,0.032422743072334115,stand
09/07/2020, 21:28:45,9.365508,2.9431717,0.9954142,-0.008547778,0.019537779,-0.024422223,9.86741358719935,0.032422743072334115,stand
09/07/2020, 21:28:45,9.365508,2.9431717,0.9954142,-0.01099,0.02198,-0.024422223,9.86741358719935,0.03464600265874412,stand
09/07/2020, 21:28:45,9.415757,2.9647074,1.0169497,-0.01099,0.02198,-0.024422223,9.923717029099837,0.03464600265874412,stand
09/07/2020, 21:28:45,9.415757,2.9647074,1.0169497,-0.009768889,0.034191113,-0.009768889,9.923717029099837,0.036876748793224286,stand
09/07/2020, 21:28:45,9.396614,2.9120653,0.997807,-0.009768889,0.034191113,-0.009768889,9.887977500605595,0.036876748793224286,stand
09/07/2020, 21:28:45,9.396614,2.9120653,0.997807,-0.0048844446,0.02198,-0.014653334,9.887977500605595,0.026864445598965347,stand
09/07/2020, 21:28:45,9.432507,2.9312077,0.9954142,-0.0048844446,0.02198,-0.014653334,9.927487485798641,0.026864445598965347,stand
09/07/2020, 21:28:45,9.432507,2.9312077,0.9954142,-0.0036633336,0.019537779,-0.02075889,9.927487485798641,0.028741543149650026,stand
09/07/2020, 21:28:45,9.427721,2.940779,0.98584294,-0.0036633336,0.019537779,-0.02075889,9.924816923315367,0.028741543149650026,stand
09/07/2020, 21:28:45,9.427721,2.940779,0.98584294,-0.012211111,0.018316668,-0.019537779,9.924816923315367,0.029433592063922914,stand
09/07/2020, 21:28:46,9.391829,2.928815,0.99302137,-0.0024422223,-0.007326667,-0.017095556,9.887896204734055,0.01875906590253723,stand
09/07/2020, 21:28:46,9.391829,2.928815,0.99302137,-0.0061055557,0.007326667,-0.015874445,9.887896204734055,0.018519068023009337,stand
09/07/2020, 21:28:46,9.45165,2.9623144,1.0145568,-0.0061055557,0.007326667,-0.015874445,9.956822447289417,0.018519068023009337,stand
09/07/2020, 21:28:46,9.45165,2.9623144,1.0145568,-0.007326667,0.013432222,-0.019537779,9.956822447289417,0.024815911081705933,stand
09/07/2020, 21:28:46,9.466006,2.9455647,1.0552348,-0.007326667,0.013432222,-0.019537779,9.969711480957782,0.024815911081705933,stand
09/07/2020, 21:28:46,9.466006,2.9455647,1.0552348,-0.0048844446,0.02075889,-0.023201112,9.969711480957782,0.03151318584093543,stand
09/07/2020, 21:28:46,9.432507,2.926422,0.9906286,-0.0048844446,0.02075889,-0.023201112,9.925596781622215,0.03151318584093543,stand
09/07/2020, 21:28:46,9.432507,2.926422,0.9906286,0.0,0.012211111,-0.015874445,9.925596781622215,0.020027712274979497,stand
09/07/2020, 21:28:46,9.377472,2.9096723,1.0097711,0.0,0.012211111,-0.015874445,9.870299389394015,0.020027712274979497,stand
09/07/2020, 21:28:46,9.377472,2.9096723,1.0097711,-0.0061055557,0.018316668,-0.02198,9.870299389394015,0.02925574385564855,stand
09/07/2020, 21:28:46,9.389436,2.9312077,0.9906286,-0.0061055557,0.018316668,-0.02198,9.886092625238977,0.02925574385564855,stand
09/07/2020, 21:28:46,9.389436,2.9312077,0.9906286,-0.0036633336,0.02198,-0.026864445,9.886092625238977,0.034903278333972325,stand
09/07/2020, 21:28:46,9.339187,2.9192436,0.9762716,-0.0036633336,0.02198,-0.026864445,9.83338685126132,0.034903278333972325,stand
09/07/2020, 21:28:46,9.339187,2.9192436,0.9762716,-0.007326667,0.014653334,-0.019537779,9.83338685126132,0.025497549932898735,stand
09/07/2020, 21:28:46,9.367901,2.928815,1.0073783,-0.007326667,0.014653334,-0.019537779,9.86662728964904,0.025497549932898735,stand
09/07/2020, 21:28:46,9.367901,2.928815,1.0073783,-0.008547778,0.013432222,-0.023201112,9.86662728964904,0.028138597979810772,stand
09/07/2020, 21:28:46,9.300901,2.8929226,0.94755775,-0.008547778,0.013432222,-0.023201112,9.78640047098018,0.028138597979810772,stand
09/07/2020, 21:28:46,9.300901,2.8929226,0.94755775,-0.007326667,0.017095556,-0.02198,9.78640047098018,0.02879337654173958,stand
09/07/2020, 21:28:46,9.353543,2.926422,0.9451649,-0.007326667,0.017095556,-0.02198,9.846118781694635,0.02879337654173958,stand
09/07/2020, 21:28:46,9.353543,2.926422,0.9451649,-0.007326667,0.018316668,-0.02198,9.846118781694635,0.029534738707416245,stand
09/07/2020, 21:28:47,9.29133,2.8881369,0.9284152,-0.0061055557,0.018316668,-0.019537779,9.774052830304335,0.027468216378946045,stand
09/07/2020, 21:28:47,9.341579,2.885744,0.9451649,-0.0061055557,0.018316668,-0.019537779,9.822726815270473,0.027468216378946045,stand
09/07/2020, 21:28:47,9.341579,2.885744,0.9451649,-0.0061055557,0.015874445,-0.018316668,9.822726815270473,0.02499552234936775,stand
09/07/2020, 21:28:47,9.317652,2.8809586,0.9212367,-0.0061055557,0.015874445,-0.018316668,9.796286712998032,0.02499552234936775,stand
09/07/2020, 21:28:47,9.317652,2.8809586,0.9212367,-0.008547778,0.013432222,-0.018316668,9.796286712998032,0.02426910425326766,stand
09/07/2020, 21:28:47,9.375079,2.9312077,0.9667004,-0.008547778,0.013432222,-0.018316668,9.870085972509925,0.02426910425326766,stand
09/07/2020, 21:28:47,9.375079,2.9312077,0.9667004,-0.007326667,0.01099,-0.025643334,9.870085972509925,0.028845116180575593,stand
09/07/2020, 21:28:47,9.360723,2.9120653,0.99302137,-0.007326667,0.01099,-0.025643334,9.853392414114563,0.028845116180575593,stand
09/07/2020, 21:28:47,9.360723,2.9120653,0.99302137,-0.008547778,0.015874445,-0.018316668,9.853392414114563,0.02570141708413235,stand
09/07/2020, 21:28:47,9.343972,2.9072795,0.9667004,-0.008547778,0.015874445,-0.018316668,9.8334429497049,0.02570141708413235,stand
09/07/2020, 21:28:47,9.343972,2.9072795,0.9667004,-0.0061055557,0.015874445,-0.02075889,9.8334429497049,0.026836678749326184,stand
09/07/2020, 21:28:47,9.379865,2.9216363,0.9595219,-0.0061055557,0.015874445,-0.02075889,9.87109430765781,0.026836678749326184,stand
09/07/2020, 21:28:47,9.379865,2.9216363,0.9595219,-0.0036633336,0.026864445,-0.018316668,9.87109430765781,0.032720310492813307,stand
09/07/2020, 21:28:47,9.365508,2.8881369,0.9523434,-0.0036633336,0.026864445,-0.018316668,9.846879408773717,0.032720310492813307,stand
09/07/2020, 21:28:47,9.365508,2.8881369,0.9523434,0.0012211112,0.0012211112,-0.017095556,9.846879408773717,0.01718255732962469,stand
09/07/2020, 21:28:47,9.377472,2.9072795,0.9451649,0.0012211112,0.0012211112,-0.017095556,9.863193724517478,0.01718255732962469,stand
09/07/2020, 21:28:47,9.377472,2.9072795,0.9451649,-0.0012211112,0.013432222,-0.017095556,9.863193724517478,0.021775531291308426,stand
09/07/2020, 21:28:47,9.399008,2.9240294,0.9667004,-0.0012211112,0.013432222,-0.017095556,9.890692838678412,0.021775531291308426,stand
09/07/2020, 21:28:47,9.399008,2.9240294,0.9667004,-0.0061055557,0.02075889,-0.023201112,9.890692838678412,0.0317253982264197,stand
09/07/2020, 21:28:47,9.367901,2.9312077,0.9834501,-0.0061055557,0.02075889,-0.023201112,9.864923657131591,0.0317253982264197,stand
09/07/2020, 21:28:48,9.341579,2.885744,0.9882358,-0.0048844446,0.015874445,-0.02198,9.826964704520712,0.02754952352493225,stand
09/07/2020, 21:28:48,9.367901,2.9096723,0.9738788,-0.0048844446,0.015874445,-0.02198,9.85759599934446,0.02754952352493225,stand
09/07/2020, 21:28:48,9.367901,2.9096723,0.9738788,-0.0061055557,0.014653334,-0.015874445,9.85759599934446,0.02244985605944443,stand
09/07/2020, 21:28:48,9.379865,2.914458,0.96430755,-0.0061055557,0.014653334,-0.015874445,9.869438501944453,0.02244985605944443,stand
09/07/2020, 21:28:48,9.379865,2.914458,0.96430755,-0.007326667,0.017095556,-0.017095556,9.869438501944453,0.025262544510021422,stand
09/07/2020, 21:28:48,9.336794,2.8905299,0.9595219,-0.007326667,0.017095556,-0.017095556,9.82097579236761,0.025262544510021422,stand
09/07/2020, 21:28:48,9.336794,2.8905299,0.9595219,-0.0061055557,0.018316668,-0.02075889,9.82097579236761,0.028349772796470125,stand
09/07/2020, 21:28:48,9.396614,2.8929226,0.9954142,-0.0061055557,0.018316668,-0.02075889,9.882115506995218,0.028349772796470125,stand
09/07/2020, 21:28:48,9.396614,2.8929226,0.9954142,-0.0048844446,0.009768889,-0.018316668,9.882115506995218,0.021325789707222556,stand
09/07/2020, 21:28:48,9.382257,2.8953154,1.0241281,-0.0048844446,0.009768889,-0.018316668,9.872104371090773,0.021325789707222556,stand
09/07/2020, 21:28:48,9.382257,2.8953154,1.0241281,-0.0048844446,0.0061055557,-0.015874445,9.872104371090773,0.017695582151860192,stand
09/07/2020, 21:28:48,9.410972,2.928815,1.0313065,-0.0048844446,0.0061055557,-0.015874445,9.909991775663986,0.017695582151860192,stand
09/07/2020, 21:28:48,9.410972,2.928815,1.0313065,-0.0024422223,0.012211111,-0.015874445,9.909991775663986,0.020176067724820366,stand
09/07/2020, 21:28:48,9.377472,2.9216363,1.0145568,-0.0024422223,0.012211111,-0.015874445,9.874323472191543,0.020176067724820366,stand
09/07/2020, 21:28:48,9.377472,2.9216363,1.0145568,-0.0036633336,0.018316668,-0.024422223,9.874323472191543,0.03074679310626864,stand
09/07/2020, 21:28:48,9.32483,2.914458,1.0001999,-0.0036633336,0.018316668,-0.024422223,9.820739334339326,0.03074679310626864,stand
09/07/2020, 21:28:48,9.32483,2.914458,1.0001999,-0.01099,0.014653334,-0.017095556,9.820739334339326,0.0250551066165951,stand
09/07/2020, 21:28:48,9.341579,2.928815,1.0073783,-0.01099,0.014653334,-0.017095556,9.841639810019846,0.0250551066165951,stand
09/07/2020, 21:28:48,9.341579,2.928815,1.0073783,-0.0061055557,0.013432222,-0.02075889,9.841639810019846,0.02546829219672924,stand
09/07/2020, 21:28:48,9.399008,2.9336007,0.9810573,-0.0061055557,0.013432222,-0.02075889,9.894939809223976,0.02546829219672924,stand
09/07/2020, 21:28:49,9.401401,2.9168508,0.98584294,0.0,0.01099,-0.012211111,9.89273660486338,0.016428370224844616,stand
09/07/2020, 21:28:49,9.401401,2.9168508,0.98584294,-0.0024422223,0.013432222,-0.023201112,9.89273660486338,0.026919892891197048,stand
09/07/2020, 21:28:49,9.353543,2.9072795,0.9762716,-0.0024422223,0.013432222,-0.023201112,9.843482729980547,0.026919892891197048,stand
09/07/2020, 21:28:49,9.353543,2.9072795,0.9762716,-0.007326667,0.018316668,-0.023201112,9.843482729980547,0.030454424076251294,stand
09/07/2020, 21:28:49,9.312865,2.902494,0.9523434,-0.007326667,0.018316668,-0.023201112,9.801065677309445,0.030454424076251294,stand
09/07/2020, 21:28:49,9.312865,2.902494,0.9523434,-0.009768889,0.015874445,-0.02075889,9.801065677309445,0.02789911672295451,stand
09/07/2020, 21:28:49,9.329616,2.8977082,0.97866446,-0.009768889,0.015874445,-0.02075889,9.818157867728083,0.02789911672295451,stand
09/07/2020, 21:28:49,9.329616,2.8977082,0.97866446,-0.007326667,0.013432222,-0.017095556,9.818157867728083,0.022942595815824064,stand
09/07/2020, 21:28:49,9.370294,2.9120653,0.971486,-0.007326667,0.013432222,-0.017095556,9.860340338475813,0.022942595815824064,stand
09/07/2020, 21:28:49,9.370294,2.9120653,0.971486,0.0,0.009768889,-0.008547778,9.860340338475813,0.012980589768490605,stand
09/07/2020, 21:28:49,9.437292,2.9671001,1.0193424,0.0,0.009768889,-0.008547778,9.945110577427762,0.012980589768490605,stand
09/07/2020, 21:28:49,9.437292,2.9671001,1.0193424,-0.0024422223,0.018316668,-0.019537779,9.945110577427762,0.026892183820945038,stand
09/07/2020, 21:28:49,9.430114,2.9599216,1.026521,-0.0024422223,0.018316668,-0.019537779,9.9368972674342,0.026892183820945038,stand
09/07/2020, 21:28:49,9.430114,2.9599216,1.026521,-0.012211111,0.019537779,-0.023201112,9.9368972674342,0.032697516982163374,stand
09/07/2020, 21:28:49,9.430114,2.9312077,1.0145568,-0.012211111,0.019537779,-0.023201112,9.92715215437701,0.032697516982163374,stand
09/07/2020, 21:28:49,9.430114,2.9312077,1.0145568,-0.012211111,0.012211111,-0.02198,9.92715215437701,0.02795251171168776,stand
09/07/2020, 21:28:49,9.355937,2.8809586,0.9738788,-0.012211111,0.012211111,-0.02198,9.837780204454905,0.02795251171168776,stand
09/07/2020, 21:28:49,9.355937,2.8809586,0.9738788,-0.0048844446,0.01099,-0.014653334,9.837780204454905,0.01895674327476611,stand
09/07/2020, 21:28:49,9.35833,2.8905299,0.94277215,-0.0048844446,0.01099,-0.014653334,9.839833250681943,0.01895674327476611,stand
09/07/2020, 21:28:49,9.35833,2.8905299,0.94277215,0.0,0.015874445,-0.019537779,9.839833250681943,0.025173851701227254,stand
09/07/2020, 21:28:50,9.353543,2.885744,0.95712906,-0.01099,0.018316668,-0.02198,9.835262423581568,0.030649646744301998,stand
09/07/2020, 21:28:50,9.32483,2.8905299,0.9523434,-0.01099,0.018316668,-0.02198,9.808902917952452,0.030649646744301998,stand
09/07/2020, 21:28:50,9.32483,2.8905299,0.9523434,-0.012211111,0.019537779,-0.023201112,9.808902917952452,0.032697516982163374,stand
09/07/2020, 21:28:50,9.24826,2.8713872,0.930808,-0.012211111,0.019537779,-0.023201112,9.728390043996344,0.032697516982163374,stand
09/07/2020, 21:28:50,9.24826,2.8713872,0.930808,-0.0036633336,0.015874445,-0.017095556,9.728390043996344,0.023615166365761477,stand
09/07/2020, 21:28:50,9.265009,2.902494,0.94277215,-0.0036633336,0.015874445,-0.017095556,9.754674822068628,0.023615166365761477,stand
09/07/2020, 21:28:50,9.265009,2.902494,0.94277215,-0.0012211112,0.013432222,-0.02075889,9.754674822068628,0.024755751041656917,stand
09/07/2020, 21:28:50,9.293723,2.9096723,0.9667004,-0.0012211112,0.013432222,-0.02075889,9.786418724722017,0.024755751041656917,stand
09/07/2020, 21:28:50,9.293723,2.9096723,0.9667004,-0.01099,0.013432222,-0.019537779,9.786418724722017,0.026132919811040746,stand
09/07/2020, 21:28:50,9.296116,2.9168508,0.971486,-0.01099,0.013432222,-0.019537779,9.79130093403438,0.026132919811040746,stand
09/07/2020, 21:28:50,9.296116,2.9168508,0.971486,-0.015874445,0.014653334,-0.025643334,9.79130093403438,0.03353056508388479,stand
09/07/2020, 21:28:50,9.372686,2.9120653,0.9954142,-0.015874445,0.014653334,-0.025643334,9.864999931037131,0.03353056508388479,stand
09/07/2020, 21:28:50,9.372686,2.9120653,0.9954142,-0.0061055557,0.01099,-0.013432222,9.864999931037131,0.01839789435232852,stand
09/07/2020, 21:28:50,9.365508,2.9120653,0.9667004,-0.0061055557,0.01099,-0.013432222,9.855322182731795,0.01839789435232852,stand
09/07/2020, 21:28:50,9.365508,2.9120653,0.9667004,-0.0024422223,0.014653334,-0.018316668,9.855322182731795,0.023583574114743804,stand
09/07/2020, 21:28:50,9.363115,2.9120653,1.0001999,-0.0024422223,0.014653334,-0.018316668,9.856391444709974,0.023583574114743804,stand
09/07/2020, 21:28:50,9.363115,2.9120653,1.0001999,-0.0048844446,0.014653334,-0.019537779,9.856391444709974,0.024905878820733276,stand
09/07/2020, 21:28:50,9.401401,2.9479575,0.9954142,-0.0048844446,0.014653334,-0.019537779,9.902910458205215,0.024905878820733276,stand
09/07/2020, 21:28:50,9.401401,2.9479575,0.9954142,-0.008547778,0.019537779,-0.019537779,9.902910458205215,0.028922553411849763,stand
09/07/2020, 21:28:50,9.3511505,2.9216363,1.012164,-0.008547778,0.019537779,-0.019537779,9.849083753732748,0.028922553411849763,stand
09/07/2020, 21:28:51,9.442079,2.9383862,0.98584294,-0.0036633336,0.012211111,-0.018316668,9.937748632717181,0.022316620786767508,stand
09/07/2020, 21:28:51,9.444471,2.9240294,0.9834501,-0.0036633336,0.012211111,-0.018316668,9.935550363478049,0.022316620786767508,stand
09/07/2020, 21:28:51,9.444471,2.9240294,0.9834501,-0.0024422223,0.014653334,-0.018316668,9.935550363478049,0.023583574114743804,stand
09/07/2020, 21:28:51,9.408579,2.8977082,0.9906286,-0.0024422223,0.014653334,-0.018316668,9.894413277661576,0.023583574114743804,stand
09/07/2020, 21:28:51,9.408579,2.8977082,0.9906286,-0.0048844446,0.017095556,-0.023201112,9.894413277661576,0.029230248634378536,stand
09/07/2020, 21:28:51,9.382257,2.914458,1.0097711,-0.0048844446,0.017095556,-0.023201112,9.87625730794099,0.029230248634378536,stand
09/07/2020, 21:28:51,9.382257,2.914458,1.0097711,-0.01099,0.014653334,-0.02075889,9.87625730794099,0.027684504947473643,stand
09/07/2020, 21:28:51,9.406186,2.9383862,1.0025927,-0.01099,0.014653334,-0.02075889,9.905334046798485,0.027684504947473643,stand
09/07/2020, 21:28:51,9.406186,2.9383862,1.0025927,-0.0024422223,0.012211111,-0.014653334,9.905334046798485,0.019230077995824955,stand
09/07/2020, 21:28:51,9.439685,2.9503503,0.9954142,-0.0024422223,0.012211111,-0.014653334,9.939973170520084,0.019230077995824955,stand
09/07/2020, 21:28:51,9.439685,2.9503503,0.9954142,-0.0024422223,0.013432222,-0.02198,9.939973170520084,0.025874881216591473,stand
09/07/2020, 21:28:51,9.444471,2.952743,1.0169497,-0.0024422223,0.013432222,-0.02198,9.947407571491885,0.025874881216591473,stand
09/07/2020, 21:28:51,9.444471,2.952743,1.0169497,-0.0048844446,0.018316668,-0.023201112,9.947407571491885,0.029960802610553353,stand
09/07/2020, 21:28:51,9.475577,2.9671001,1.0480564,-0.0048844446,0.018316668,-0.023201112,9.984421445592721,0.029960802610553353,stand
09/07/2020, 21:28:51,9.475577,2.9671001,1.0480564,-0.009768889,0.017095556,-0.024422223,9.984421445592721,0.03137091349163169,stand
09/07/2020, 21:28:51,9.3511505,2.9359934,0.98584294,-0.009768889,0.017095556,-0.024422223,9.850683207693443,0.03137091349163169,stand
09/07/2020, 21:28:51,9.3511505,2.9359934,0.98584294,-0.007326667,0.012211111,-0.019537779,9.850683207693443,0.02417676745779986,stand
09/07/2020, 21:28:51,9.379865,2.952743,1.0025927,-0.007326667,0.012211111,-0.019537779,9.884621655907328,0.02417676745779986,stand
09/07/2020, 21:28:51,9.379865,2.952743,1.0025927,-0.0012211112,0.007326667,-0.013432222,9.884621655907328,0.01534912908874015,stand
09/07/2020, 21:28:51,9.35833,2.9336007,0.971486,-0.0012211112,0.007326667,-0.013432222,9.855360672775097,0.01534912908874015,stand
09/07/2020, 21:28:52,9.288938,2.900101,0.94755775,-0.0036633336,0.018316668,-0.019537779,9.777157681995345,0.02703044790317766,stand
09/07/2020, 21:28:52,9.288938,2.900101,0.94755775,-0.0036633336,0.014653334,-0.017095556,9.777157681995345,0.02281223955186262,stand
09/07/2020, 21:28:52,9.288938,2.9096723,0.95712906,-0.0036633336,0.014653334,-0.017095556,9.780932974755128,0.02281223955186262,stand
09/07/2020, 21:28:52,9.288938,2.9096723,0.95712906,-0.0061055557,0.014653334,-0.019537779,9.780932974755128,0.025173851723815147,stand
09/07/2020, 21:28:52,9.348758,2.902494,0.9906286,-0.0061055557,0.014653334,-0.019537779,9.838957644364223,0.025173851723815147,stand
09/07/2020, 21:28:52,9.348758,2.902494,0.9906286,-0.0061055557,0.018316668,-0.023201112,9.838957644364223,0.030183931219245133,stand
09/07/2020, 21:28:52,9.372686,2.9072795,0.96909314,-0.0061055557,0.018316668,-0.023201112,9.86096677082075,0.030183931219245133,stand
09/07/2020, 21:28:52,9.372686,2.9072795,0.96909314,-0.0061055557,0.02075889,-0.024422223,9.86096677082075,0.032629040321325416,stand
09/07/2020, 21:28:52,9.38465,2.9336007,0.9595219,-0.0061055557,0.02075889,-0.024422223,9.879187975765765,0.032629040321325416,stand
09/07/2020, 21:28:52,9.38465,2.9336007,0.9595219,-0.007326667,0.012211111,-0.018316668,9.879187975765765,0.023201112096246923,stand
09/07/2020, 21:28:52,9.293723,2.900101,0.94755775,-0.007326667,0.012211111,-0.018316668,9.781704368983654,0.023201112096246923,stand
09/07/2020, 21:28:52,9.293723,2.900101,0.94755775,-0.008547778,0.015874445,-0.017095556,9.781704368983654,0.024845936937285703,stand
09/07/2020, 21:28:52,9.260223,2.902494,0.9403793,-0.008547778,0.015874445,-0.017095556,9.74989854448983,0.024845936937285703,stand
09/07/2020, 21:28:52,9.260223,2.902494,0.9403793,-0.012211111,0.02075889,-0.02198,9.74989854448983,0.03260618297300279,stand
09/07/2020, 21:28:52,9.346365,2.9216363,1.0097711,-0.012211111,0.02075889,-0.02198,9.844294533282758,0.03260618297300279,stand
09/07/2020, 21:28:52,9.346365,2.9216363,1.0097711,-0.0061055557,0.018316668,-0.02075889,9.844294533282758,0.028349772796470125,stand
09/07/2020, 21:28:52,9.343972,2.926422,1.012164,-0.0061055557,0.018316668,-0.02075889,9.843690312289757,0.028349772796470125,stand
09/07/2020, 21:28:52,9.343972,2.926422,1.012164,-0.009768889,0.015874445,-0.02075889,9.843690312289757,0.02789911672295451,stand
09/07/2020, 21:28:52,9.365508,2.9192436,0.9834501,-0.009768889,0.015874445,-0.02075889,9.859102330387286,0.02789911672295451,stand
09/07/2020, 21:28:52,9.365508,2.9192436,0.9834501,-0.008547778,0.013432222,-0.019537779,9.859102330387286,0.025203450229321567,stand
09/07/2020, 21:28:53,9.389436,2.9120653,0.9738788,-0.008547778,0.015874445,-0.025643334,9.878768551045164,0.03134713860693606,stand
09/07/2020, 21:28:53,9.382257,2.9168508,0.9906286,-0.008547778,0.015874445,-0.025643334,9.875024998369616,0.03134713860693606,stand
09/07/2020, 21:28:53,9.382257,2.9168508,0.9906286,-0.013432222,0.013432222,-0.018316668,9.875024998369616,0.026388435108824056,stand
09/07/2020, 21:28:53,9.32483,2.8929226,0.930808,-0.013432222,0.013432222,-0.018316668,9.807541002025756,0.026388435108824056,stand
09/07/2020, 21:28:53,9.32483,2.8929226,0.930808,-0.0061055557,0.009768889,-0.017095556,9.807541002025756,0.02061472918995803,stand
09/07/2020, 21:28:53,9.391829,2.900101,0.9595219,-0.0061055557,0.009768889,-0.017095556,9.876118216405677,0.02061472918995803,stand
09/07/2020, 21:28:53,9.391829,2.900101,0.9595219,-0.0061055557,0.009768889,-0.02198,9.876118216405677,0.02481591096713746,stand
09/07/2020, 21:28:53,9.4229355,2.940779,1.0336994,-0.0061055557,0.009768889,-0.02198,9.92514123630344,0.02481591096713746,stand
09/07/2020, 21:28:53,9.4229355,2.940779,1.0336994,-0.009768889,0.009768889,-0.017095556,9.92514123630344,0.02198000107374456,stand
09/07/2020, 21:28:53,9.367901,2.9336007,1.0145568,-0.009768889,0.009768889,-0.017095556,9.868784352310719,0.02198000107374456,stand
09/07/2020, 21:28:53,9.367901,2.9336007,1.0145568,-0.01099,0.008547778,-0.024422223,9.868784352310719,0.028112089642837464,stand
09/07/2020, 21:28:53,9.403793,2.9336007,0.971486,-0.01099,0.008547778,-0.024422223,9.898541657126568,0.028112089642837464,stand
09/07/2020, 21:28:53,9.403793,2.9336007,0.971486,-0.01099,0.014653334,-0.02198,9.898541657126568,0.028611549156285353,stand
09/07/2020, 21:28:53,9.365508,2.9096723,0.9451649,-0.01099,0.014653334,-0.02198,9.85252612145263,0.028611549156285353,stand
09/07/2020, 21:28:53,9.365508,2.9096723,0.9451649,-0.008547778,0.018316668,-0.02198,9.85252612145263,0.029861099295941964,stand
09/07/2020, 21:28:53,9.420543,2.9336007,0.96430755,-0.008547778,0.018316668,-0.02198,9.913754434296823,0.029861099295941964,stand
09/07/2020, 21:28:53,9.420543,2.9336007,0.96430755,-0.0012211112,0.017095556,-0.02075889,9.913754434296823,0.02691989342454838,stand
09/07/2020, 21:28:53,9.367901,2.914458,0.9954142,-0.0012211112,0.017095556,-0.02075889,9.861160244909579,0.02691989342454838,stand
09/07/2020, 21:28:53,9.367901,2.914458,0.9954142,-0.007326667,0.02075889,-0.014653334,9.861160244909579,0.026444881530298864,stand
09/07/2020, 21:28:53,9.394221,2.9312077,1.0097711,-0.007326667,0.02075889,-0.014653334,9.892573475223122,0.026444881530298864,stand
09/07/2020, 21:28:54,9.363115,2.902494,0.9810573,-0.0024422223,0.014653334,-0.02075889,9.851643155895625,0.025526773333157615,stand
09/07/2020, 21:28:54,9.363115,2.902494,0.9810573,-0.0061055557,0.015874445,-0.02075889,9.851643155895625,0.026836678749326184,stand
09/07/2020, 21:28:54,9.363115,2.9192436,0.99302137,-0.0061055557,0.015874445,-0.02075889,9.857788941000257,0.026836678749326184,stand
09/07/2020, 21:28:54,9.363115,2.9192436,0.99302137,-0.01099,0.014653334,-0.018316668,9.857788941000257,0.025903679765815122,stand
09/07/2020, 21:28:54,9.3511505,2.885744,0.9810573,-0.01099,0.014653334,-0.018316668,9.835344848604157,0.025903679765815122,stand
09/07/2020, 21:28:54,9.3511505,2.885744,0.9810573,-0.0048844446,0.012211111,-0.015874445,9.835344848604157,0.02061472916237464,stand
09/07/2020, 21:28:54,9.353543,2.8881369,0.9595219,-0.0048844446,0.012211111,-0.015874445,9.836197879273557,0.02061472916237464,stand
09/07/2020, 21:28:54,9.353543,2.8881369,0.9595219,0.0,0.017095556,-0.023201112,9.836197879273557,0.02881925807093051,stand
09/07/2020, 21:28:54,9.317652,2.8809586,0.96909314,0.0,0.017095556,-0.023201112,9.800902909364055,0.02881925807093051,stand
09/07/2020, 21:28:54,9.317652,2.8809586,0.96909314,-0.0024422223,0.019537779,-0.025643334,9.800902909364055,0.03233063267814951,stand
09/07/2020, 21:28:54,9.312865,2.902494,0.99302137,-0.0024422223,0.019537779,-0.025643334,9.805101829684611,0.03233063267814951,stand
09/07/2020, 21:28:54,9.312865,2.902494,0.99302137,-0.0061055557,0.014653334,-0.02075889,9.805101829684611,0.02613292018094244,stand
09/07/2020, 21:28:54,9.355937,2.9336007,1.0289137,-0.0061055557,0.014653334,-0.02075889,9.858916449486738,0.02613292018094244,stand
09/07/2020, 21:28:54,9.355937,2.9336007,1.0289137,-0.007326667,0.009768889,-0.018316668,9.858916449486738,0.02201389468913426,stand
09/07/2020, 21:28:54,9.355937,2.9312077,1.0193424,-0.007326667,0.009768889,-0.018316668,9.85721028112942,0.02201389468913426,stand
09/07/2020, 21:28:54,9.355937,2.9312077,1.0193424,-0.0012211112,0.01099,-0.017095556,9.85721028112942,0.020359991924617876,stand
09/07/2020, 21:28:54,9.382257,2.9072795,0.9906286,-0.0012211112,0.01099,-0.017095556,9.87220209170198,0.020359991924617876,stand
09/07/2020, 21:28:54,9.382257,2.9072795,0.9906286,-0.007326667,0.02075889,-0.02198,9.87220209170198,0.03110839081810797,stand
09/07/2020, 21:28:54,9.430114,2.928815,1.0193424,-0.007326667,0.02075889,-0.02198,9.92693617187251,0.03110839081810797,stand
09/07/2020, 21:28:54,9.430114,2.928815,1.0193424,-0.007326667,0.02075889,-0.02198,9.92693617187251,0.03110839081810797,stand
09/07/2020, 21:28:55,9.363115,2.9216363,0.97866446,-0.0012211112,0.009768889,-0.018316668,9.85706200460321,0.020794773853898434,stand
09/07/2020, 21:28:55,9.363115,2.9216363,0.97866446,-0.0024422223,0.024422223,-0.02075889,9.85706200460321,0.03214562041568926,stand
09/07/2020, 21:28:55,9.375079,2.926422,1.026521,-0.0024422223,0.024422223,-0.02075889,9.874705103343555,0.03214562041568926,stand
09/07/2020, 21:28:55,9.375079,2.926422,1.026521,-0.007326667,0.02075889,-0.025643334,9.874705103343555,0.03379633291186252,stand
09/07/2020, 21:28:55,9.399008,2.9216363,1.0025927,-0.007326667,0.02075889,-0.025643334,9.893558438753685,0.03379633291186252,stand
09/07/2020, 21:28:55,9.399008,2.9216363,1.0025927,-0.007326667,0.012211111,-0.018316668,9.893558438753685,0.023201112096246923,stand
09/07/2020, 21:28:55,9.379865,2.8977082,0.97866446,-0.007326667,0.012211111,-0.018316668,9.865919037597447,0.023201112096246923,stand
09/07/2020, 21:28:55,9.379865,2.8977082,0.97866446,0.0,0.012211111,-0.018316668,9.865919037597447,0.022013894482492333,stand
09/07/2020, 21:28:55,9.363115,2.9168508,0.9810573,0.0,0.012211111,-0.018316668,9.855882524669706,0.022013894482492333,stand
09/07/2020, 21:28:55,9.363115,2.9168508,0.9810573,-0.0012211112,0.014653334,-0.02075889,9.855882524669706,0.025439001934078047,stand
09/07/2020, 21:28:55,9.35833,2.9072795,0.9810573,-0.0012211112,0.014653334,-0.02075889,9.848506667482862,0.025439001934078047,stand
09/07/2020, 21:28:55,9.35833,2.9072795,0.9810573,-0.0061055557,0.02198,-0.024422223,9.848506667482862,0.033419204108214785,stand
09/07/2020, 21:28:55,9.387043,2.9120653,0.9667004,-0.0061055557,0.02198,-0.024422223,9.87578908279356,0.033419204108214785,stand
09/07/2020, 21:28:55,9.387043,2.9120653,0.9667004,-0.013432222,0.009768889,-0.02075889,9.87578908279356,0.026585471503144043,stand
09/07/2020, 21:28:55,9.434899,2.9096723,1.0001999,-0.013432222,0.009768889,-0.02075889,9.923906383075758,0.026585471503144043,stand
09/07/2020, 21:28:55,9.434899,2.9096723,1.0001999,-0.008547778,0.009768889,-0.02198,9.923906383075758,0.02552677299902361,stand
09/07/2020, 21:28:55,9.379865,2.8713872,0.971486,-0.008547778,0.009768889,-0.02198,9.857510403166314,0.02552677299902361,stand
09/07/2020, 21:28:55,9.379865,2.8713872,0.971486,-0.0024422223,0.012211111,-0.017095556,9.857510403166314,0.021150265774039997,stand
09/07/2020, 21:28:55,9.329616,2.8666015,0.9403793,-0.0024422223,0.012211111,-0.017095556,9.805276352665977,0.021150265774039997,stand
09/07/2020, 21:28:55,9.329616,2.8666015,0.9403793,-0.0024422223,0.015874445,-0.023201112,9.805276352665977,0.028217973920004913,stand
09/07/2020, 21:28:56,9.700503,-1.550549,0.9212367,0.18683001,-0.03052778,0.5421733,9.866744375494429,0.5742728575440721,stand
09/07/2020, 21:28:56,9.707682,-1.4069797,0.94755775,0.18683001,-0.03052778,0.5421733,9.85477248020865,0.5742728575440721,stand
09/07/2020, 21:28:56,9.707682,-1.4069797,0.94755775,0.22224224,-0.06227667,0.5238567,9.85477248020865,0.5724472347580408,stand
09/07/2020, 21:28:56,9.702896,-1.3543376,0.96430755,0.22224224,-0.06227667,0.5238567,9.844303550080216,0.5724472347580408,stand
09/07/2020, 21:28:56,9.702896,-1.3543376,0.96430755,0.22590557,-0.081814446,0.54950005,9.844303550080216,0.5997309661971023,stand
09/07/2020, 21:28:56,9.846465,-1.3567305,0.9954142,0.22590557,-0.081814446,0.54950005,9.98921629290265,0.5997309661971023,stand
09/07/2020, 21:28:56,9.846465,-1.3567305,0.9954142,0.1306589,-0.04151778,0.50554,9.98921629290265,0.5237997497493769,stand
09/07/2020, 21:28:56,9.836894,-1.3304094,0.91405827,0.1306589,-0.04151778,0.50554,9.968449025389797,0.5237997497493769,stand
09/07/2020, 21:28:56,9.836894,-1.3304094,0.91405827,-0.02198,-0.036633335,0.46158,9.968449025389797,0.4635528294587301,stand
09/07/2020, 21:28:56,9.79143,-1.4093726,1.012164,-0.02198,-0.036633335,0.46158,9.943989023828234,0.4635528294587301,stand
09/07/2020, 21:28:56,9.79143,-1.4093726,1.012164,-0.085477784,-0.08425667,0.44692668,9.943989023828234,0.46276246435930674,stand
09/07/2020, 21:28:56,9.698111,-1.4835501,0.97866446,-0.085477784,-0.08425667,0.44692668,9.859617323546228,0.46276246435930674,stand
09/07/2020, 21:28:56,9.698111,-1.4835501,0.97866446,-0.037854444,-0.081814446,0.5128667,9.859617323546228,0.52072909430062,stand
09/07/2020, 21:28:56,9.755538,-1.5074782,0.9403793,-0.037854444,-0.081814446,0.5128667,9.916013579809198,0.52072909430062,stand
09/07/2020, 21:28:56,9.755538,-1.5074782,0.9403793,0.06227667,-0.035412222,0.5360678,9.916013579809198,0.5408336877665436,stand
09/07/2020, 21:28:56,9.745967,-1.6175481,0.930808,0.06227667,-0.035412222,0.5360678,9.923040686488987,0.5408336877665436,stand
09/07/2020, 21:28:56,9.745967,-1.6175481,0.930808,0.10013112,-0.036633335,0.47379112,9.923040686488987,0.4856400616608384,stand
09/07/2020, 21:28:56,9.765109,-1.6486548,1.0001999,0.10013112,-0.036633335,0.47379112,9.953683618397784,0.4856400616608384,stand
09/07/2020, 21:28:56,9.765109,-1.6486548,1.0001999,0.047623336,-0.07937223,0.44326335,9.953683618397784,0.45282483563086917,stand
09/07/2020, 21:28:56,9.647861,-1.6223338,0.94755775,0.047623336,-0.07937223,0.44326335,9.829091783015091,0.45282483563086917,stand
09/07/2020, 21:28:57,9.829716,0.61016977,1.4835501,-0.0012211112,0.014653334,-0.07204556,9.959745944034148,0.07353076657917712,stand
09/07/2020, 21:28:57,9.932607,0.6029913,1.5337993,-0.0012211112,0.014653334,-0.07204556,10.068406753317532,0.07353076657917712,stand
09/07/2020, 21:28:57,9.932607,0.6029913,1.5337993,-0.0012211112,-0.0024422223,-0.13920668,10.068406753317532,0.13923345385256422,stand
09/07/2020, 21:28:57,9.851251,0.6029913,1.5266209,-0.0012211112,-0.0024422223,-0.13920668,9.987057078634082,0.13923345385256422,stand
09/07/2020, 21:28:57,9.851251,0.6029913,1.5266209,0.0048844446,-0.009768889,-0.19293556,9.987057078634082,0.19324445097661552,stand
09/07/2020, 21:28:57,9.7196455,0.59342,1.4548361,0.0048844446,-0.009768889,-0.19293556,9.845821659223935,0.19324445097661552,stand
09/07/2020, 21:28:57,9.7196455,0.59342,1.4548361,0.009768889,-0.02075889,-0.21247335,9.845821659223935,0.21370841399930451,stand
09/07/2020, 21:28:57,9.729217,0.6364908,1.4739788,0.009768889,-0.02075889,-0.21247335,9.860800632822402,0.21370841399930451,stand
09/07/2020, 21:28:57,9.729217,0.6364908,1.4739788,0.0061055557,-0.029306669,-0.2185789,9.860800632822402,0.2206193470633107,stand
09/07/2020, 21:28:57,9.769895,0.6771688,1.4452649,0.0061055557,-0.029306669,-0.2185789,9.899403456403379,0.2206193470633107,stand
09/07/2020, 21:28:57,9.769895,0.6771688,1.4452649,-0.0012211112,-0.028085556,-0.2075889,9.899403456403379,0.20948374487922927,stand
09/07/2020, 21:28:57,9.767502,0.7106683,1.3998013,-0.0012211112,-0.028085556,-0.2075889,9.89285525214438,0.20948374487922927,stand
09/07/2020, 21:28:57,9.767502,0.7106683,1.3998013,-0.0061055557,-0.015874445,-0.19171445,9.89285525214438,0.19246741657209138,stand
09/07/2020, 21:28:57,9.803394,0.73459655,1.3806586,-0.0061055557,-0.015874445,-0.19171445,9.9273556641192,0.19246741657209138,stand
09/07/2020, 21:28:57,9.803394,0.73459655,1.3806586,0.0,0.0,-0.1746189,9.9273556641192,0.1746188998222351,stand
09/07/2020, 21:28:57,9.698111,0.7704889,1.308874,0.0,0.0,-0.1746189,9.816320755751452,0.1746188998222351,stand
09/07/2020, 21:28:57,9.698111,0.7704889,1.308874,-0.0012211112,0.009768889,-0.14897557,9.816320755751452,0.14930050764872163,stand
09/07/2020, 21:28:57,9.789038,0.7704889,1.4261223,-0.0012211112,0.009768889,-0.14897557,9.922335268913624,0.14930050764872163,stand
09/07/2020, 21:28:57,9.789038,0.7704889,1.4261223,-0.012211111,0.008547778,-0.13188,9.922335268913624,0.13271966777943556,stand
09/07/2020, 21:28:57,9.779466,0.8039884,1.4380864,-0.012211111,0.008547778,-0.13188,9.917279803689157,0.13271966777943556,stand
09/07/2020, 21:28:58,9.779466,0.7537391,1.4500505,-0.008547778,0.009768889,-0.07693,9.915075286106745,0.07801743922204869,stand
09/07/2020, 21:28:58,9.779466,0.7537391,1.4500505,-0.0048844446,0.013432222,-0.059834447,9.915075286106745,0.061517830077207285,stand
09/07/2020, 21:28:58,9.717253,0.7465607,1.4452649,-0.0048844446,0.013432222,-0.059834447,9.852468941650656,0.061517830077207285,stand
09/07/2020, 21:28:58,9.717253,0.7465607,1.4452649,-0.0036633336,0.009768889,-0.045181114,9.852468941650656,0.046370079724797716,stand
09/07/2020, 21:28:58,9.767502,0.7322037,1.457229,-0.0036633336,0.009768889,-0.045181114,9.902713300994064,0.046370079724797716,stand
09/07/2020, 21:28:58,9.767502,0.7322037,1.457229,-0.007326667,0.015874445,-0.03297,9.902713300994064,0.037318882272172824,stand
09/07/2020, 21:28:58,9.705289,0.7585248,1.4189439,-0.007326667,0.015874445,-0.03297,9.837753501479787,0.037318882272172824,stand
09/07/2020, 21:28:58,9.705289,0.7585248,1.4189439,-0.0061055557,0.017095556,-0.015874445,9.837753501479787,0.02411501357405362,stand
09/07/2020, 21:28:58,9.74836,0.76331043,1.4285151,-0.0061055557,0.017095556,-0.015874445,9.881994464404418,0.02411501357405362,stand
09/07/2020, 21:28:58,9.74836,0.76331043,1.4285151,-0.0036633336,0.012211111,-0.0012211112,9.881994464404418,0.012807121710750326,stand
09/07/2020, 21:28:58,9.793823,0.7537391,1.4261223,-0.0036633336,0.012211111,-0.0012211112,9.92577055924749,0.012807121710750326,stand
09/07/2020, 21:28:58,9.793823,0.7537391,1.4261223,0.0,0.0061055557,0.018316668,9.92577055924749,0.01930746279399445,stand
09/07/2020, 21:28:58,9.793823,0.74895346,1.4141582,0.0,0.0061055557,0.018316668,9.923696310973478,0.01930746279399445,stand
09/07/2020, 21:28:58,9.793823,0.74895346,1.4141582,-0.0048844446,0.014653334,0.023201112,9.923696310973478,0.027872380462396314,stand
09/07/2020, 21:28:58,9.700503,0.7704889,1.3806586,-0.0048844446,0.014653334,0.023201112,9.828511415542119,0.027872380462396314,stand
09/07/2020, 21:28:58,9.700503,0.7704889,1.3806586,-0.008547778,0.02075889,0.03174889,9.828511415542119,0.03888429095197842,stand
09/07/2020, 21:28:58,9.710074,0.74895346,1.4213367,-0.008547778,0.02075889,0.03174889,9.842086897442979,0.03888429095197842,stand
09/07/2020, 21:28:58,9.710074,0.74895346,1.4213367,-0.007326667,0.025643334,0.045181114,9.842086897442979,0.05246516656768264,stand
09/07/2020, 21:28:58,9.717253,0.72023964,1.4452649,-0.007326667,0.025643334,0.045181114,9.85050945465103,0.05246516656768264,stand
09/07/2020, 21:28:58,9.717253,0.72023964,1.4452649,-0.0061055557,0.03174889,0.05250778,9.85050945465103,0.06166309183280944,stand
09/07/2020, 21:28:59,9.68136,0.715454,1.4596218,-0.009768889,0.017095556,0.0048844446,9.816878646026076,0.020286622409748923,stand
09/07/2020, 21:28:59,9.68136,0.715454,1.4596218,-0.007326667,0.015874445,0.01099,9.816878646026076,0.020650863842561915,stand
09/07/2020, 21:28:59,9.815358,0.72263247,1.4715859,-0.007326667,0.015874445,0.01099,9.951332498841419,0.020650863842561915,stand
09/07/2020, 21:28:59,9.815358,0.72263247,1.4715859,-0.0048844446,0.017095556,0.014653334,9.951332498841419,0.023039879769351727,stand
09/07/2020, 21:28:59,9.750752,0.72502524,1.4500505,-0.0048844446,0.017095556,0.014653334,9.884608302353557,0.023039879769351727,stand
09/07/2020, 21:28:59,9.750752,0.72502524,1.4500505,-0.0036633336,0.017095556,0.017095556,9.884608302353557,0.024452732280025105,stand
09/07/2020, 21:28:59,9.688539,0.6987042,1.402194,-0.0036633336,0.017095556,0.017095556,9.81438306133454,0.024452732280025105,stand
09/07/2020, 21:28:59,9.688539,0.6987042,1.402194,-0.0061055557,0.015874445,0.0061055557,9.81438306133454,0.018070795180976776,stand
09/07/2020, 21:28:59,9.695718,0.6939186,1.4069797,-0.0061055557,0.015874445,0.0061055557,9.821815448564948,0.018070795180976776,stand
09/07/2020, 21:28:59,9.695718,0.6939186,1.4069797,-0.0048844446,0.018316668,-0.007326667,9.821815448564948,0.020323340300703735,stand
09/07/2020, 21:28:59,9.753145,0.6963114,1.4404793,-0.0048844446,0.018316668,-0.007326667,9.883505035104449,0.020323340300703735,stand
09/07/2020, 21:28:59,9.753145,0.6963114,1.4404793,-0.0012211112,0.018316668,-0.017095556,9.883505035104449,0.025084845489104578,stand
09/07/2020, 21:28:59,9.762716,0.6867401,1.4261223,-0.0012211112,0.018316668,-0.017095556,9.890200514972554,0.025084845489104578,stand
09/07/2020, 21:28:59,9.762716,0.6867401,1.4261223,-0.0048844446,0.01099,-0.03052778,9.890200514972554,0.03281132804719537,stand
09/07/2020, 21:28:59,9.734002,0.70348984,1.4668003,-0.0048844446,0.01099,-0.03052778,9.869001890350278,0.03281132804719537,stand
09/07/2020, 21:28:59,9.734002,0.70348984,1.4668003,-0.007326667,0.008547778,-0.045181114,9.869001890350278,0.04656262071484606,stand
09/07/2020, 21:28:59,9.738789,0.6891329,1.4285151,-0.007326667,0.008547778,-0.045181114,9.867094962832025,0.04656262071484606,stand
09/07/2020, 21:28:59,9.738789,0.6891329,1.4285151,0.0,0.01099,-0.045181114,9.867094962832025,0.04649852890153299,stand
09/07/2020, 21:28:59,9.705289,0.701097,1.3806586,0.0,0.01099,-0.045181114,9.828040885308816,0.04649852890153299,stand
09/07/2020, 21:28:59,9.705289,0.701097,1.3806586,0.0,0.008547778,-0.046402223,9.828040885308816,0.047182950841269215,stand
09/07/2020, 21:29:00,9.803394,0.72263247,1.4787644,0.013432222,0.009768889,0.0,9.940597669394098,0.016608907157741794,stand
09/07/2020, 21:29:00,9.803394,0.72263247,1.4787644,-0.0036633336,0.017095556,-0.0012211112,9.940597669394098,0.017526242522946066,stand
09/07/2020, 21:29:00,9.77468,0.7178468,1.4404793,-0.0036633336,0.017095556,-0.0012211112,9.906293776626898,0.017526242522946066,stand
09/07/2020, 21:29:00,9.77468,0.7178468,1.4404793,-0.026864445,0.025643334,-0.017095556,9.906293776626898,0.04088443488485825,stand
09/07/2020, 21:29:00,9.698111,0.6891329,1.3998013,-0.026864445,0.025643334,-0.017095556,9.822815104419513,0.04088443488485825,stand
09/07/2020, 21:29:00,9.698111,0.6891329,1.3998013,-0.018316668,0.019537779,-0.008547778,9.822815104419513,0.02811209016874034,stand
09/07/2020, 21:29:00,9.738789,0.66041905,1.4524434,-0.018316668,0.019537779,-0.008547778,9.868624449382784,0.02811209016874034,stand
09/07/2020, 21:29:00,9.738789,0.66041905,1.4524434,0.007326667,0.012211111,0.0036633336,9.868624449382784,0.014704125484485226,stand
09/07/2020, 21:29:00,9.753145,0.66759753,1.4715859,0.007326667,0.012211111,0.0036633336,9.886106062480675,0.014704125484485226,stand
09/07/2020, 21:29:00,9.753145,0.66759753,1.4715859,0.007326667,0.017095556,0.0,9.886106062480675,0.018599411379626,stand
09/07/2020, 21:29:00,9.781859,0.72023964,1.4715859,0.007326667,0.017095556,0.0,9.918118944145093,0.018599411379626,stand
09/07/2020, 21:29:00,9.781859,0.72023964,1.4715859,-0.012211111,0.02075889,-0.019537779,9.918118944145093,0.031012377054366838,stand
09/07/2020, 21:29:00,9.767502,0.715454,1.4644074,-0.012211111,0.02075889,-0.019537779,9.90254793386859,0.031012377054366838,stand
09/07/2020, 21:29:00,9.767502,0.715454,1.4644074,-0.017095556,0.017095556,-0.029306669,9.90254793386859,0.03799206414983855,stand
09/07/2020, 21:29:00,9.755538,0.701097,1.4644074,-0.017095556,0.017095556,-0.029306669,9.889719287861379,0.03799206414983855,stand
09/07/2020, 21:29:00,9.755538,0.701097,1.4644074,0.0,0.008547778,-0.025643334,9.889719287861379,0.027030447293121113,stand
09/07/2020, 21:29:00,9.793823,0.70588267,1.4644074,0.0,0.008547778,-0.025643334,9.92782620732944,0.027030447293121113,stand
09/07/2020, 21:29:00,9.793823,0.70588267,1.4644074,0.009768889,0.009768889,-0.02198,9.92782620732944,0.02596117918653538,stand
09/07/2020, 21:29:00,9.853643,0.72263247,1.4787644,0.009768889,0.009768889,-0.02198,9.990156679168422,0.02596117918653538,stand
09/07/2020, 21:29:00,9.853643,0.72263247,1.4787644,-0.0024422223,0.014653334,-0.03297,9.990156679168422,0.03616221180437022,stand
09/07/2020, 21:29:01,9.729217,0.6628119,1.4476577,-0.008547778,0.013432222,-0.017095556,9.858635178686674,0.023361232061152554,stand
09/07/2020, 21:29:01,9.729217,0.6628119,1.4476577,-0.013432222,0.017095556,-0.018316668,9.858635178686674,0.028428558877388835,stand
09/07/2020, 21:29:01,9.633504,0.65084773,1.3830515,-0.013432222,0.017095556,-0.018316668,9.754016194492191,0.028428558877388835,stand
09/07/2020, 21:29:01,9.633504,0.65084773,1.3830515,-0.007326667,0.013432222,-0.015874445,9.754016194492191,0.02204773614891738,stand
09/07/2020, 21:29:01,9.760324,0.6963114,1.4811572,-0.007326667,0.013432222,-0.015874445,9.896594944257089,0.02204773614891738,stand
09/07/2020, 21:29:01,9.760324,0.6963114,1.4811572,0.008547778,0.012211111,-0.013432222,9.896594944257089,0.02006490351224923,stand
09/07/2020, 21:29:01,9.786645,0.7106683,1.4883357,0.008547778,0.012211111,-0.013432222,9.924646684168833,0.02006490351224923,stand
09/07/2020, 21:29:01,9.786645,0.7106683,1.4883357,-0.0012211112,0.012211111,-0.017095556,9.924646684168833,0.02104424873717633,stand
09/07/2020, 21:29:01,9.765109,0.715454,1.4644074,-0.0012211112,0.012211111,-0.017095556,9.900187804252395,0.02104424873717633,stand
09/07/2020, 21:29:01,9.765109,0.715454,1.4644074,-0.009768889,0.015874445,-0.026864445,9.900187804252395,0.03269751691260162,stand
09/07/2020, 21:29:01,9.856036,0.715454,1.5146568,-0.009768889,0.015874445,-0.026864445,9.997375099125904,0.03269751691260162,stand
09/07/2020, 21:29:01,9.856036,0.715454,1.5146568,-0.013432222,0.018316668,-0.024422223,9.997375099125904,0.03335220940755377,stand
09/07/2020, 21:29:01,9.767502,0.71306115,1.430908,-0.013432222,0.018316668,-0.024422223,9.897476740680021,0.03335220940755377,stand
09/07/2020, 21:29:01,9.767502,0.71306115,1.430908,-0.0024422223,0.014653334,-0.023201112,9.897476740680021,0.02754952346301203,stand
09/07/2020, 21:29:01,9.722038,0.72263247,1.4117653,-0.0024422223,0.014653334,-0.023201112,9.850548571267757,0.02754952346301203,stand
09/07/2020, 21:29:01,9.722038,0.72263247,1.4117653,0.0,0.017095556,-0.02198,9.850548571267757,0.027845618694115778,stand
09/07/2020, 21:29:01,9.757931,0.71306115,1.457229,0.0,0.017095556,-0.02198,9.891874708672974,0.027845618694115778,stand
09/07/2020, 21:29:01,9.757931,0.71306115,1.457229,-0.01099,0.014653334,-0.03052778,9.891874708672974,0.035601203036094306,stand
09/07/2020, 21:29:01,9.8321085,0.7298109,1.4524434,-0.01099,0.014653334,-0.03052778,9.965569384988523,0.035601203036094306,stand
09/07/2020, 21:29:01,9.8321085,0.7298109,1.4524434,-0.013432222,0.014653334,-0.034191113,9.965569384988523,0.03954967779608263,stand
09/07/2020, 21:29:02,9.705289,0.7178468,1.4380864,-0.02075889,0.018316668,-0.024422223,9.837480820358385,0.03691716093276417,stand
09/07/2020, 21:29:02,9.829716,0.6891329,1.5194423,-0.02075889,0.018316668,-0.024422223,9.970301924478617,0.03691716093276417,stand
09/07/2020, 21:29:02,9.829716,0.6891329,1.5194423,-0.009768889,0.018316668,-0.02198,9.970301924478617,0.030233291851431303,stand
09/07/2020, 21:29:02,9.77468,0.69152576,1.4333007,-0.009768889,0.018316668,-0.02198,9.903379759401874,0.030233291851431303,stand
09/07/2020, 21:29:02,9.77468,0.69152576,1.4333007,0.0024422223,0.026864445,-0.01099,9.903379759401874,0.029128044107311082,stand
09/07/2020, 21:29:02,9.815358,0.701097,1.4524434,0.0024422223,0.026864445,-0.01099,9.946978666120321,0.029128044107311082,stand
09/07/2020, 21:29:02,9.815358,0.701097,1.4524434,0.0012211112,0.018316668,-0.017095556,9.946978666120321,0.025084845489104578,stand
09/07/2020, 21:29:02,9.769895,0.70348984,1.4285151,0.0012211112,0.018316668,-0.017095556,9.898807694497648,0.025084845489104578,stand
09/07/2020, 21:29:02,9.769895,0.70348984,1.4285151,-0.014653334,0.018316668,-0.023201112,9.898807694497648,0.03299260678493109,stand
09/07/2020, 21:29:02,9.712467,0.73459655,1.4189439,-0.014653334,0.018316668,-0.023201112,9.843020512983387,0.03299260678493109,stand
09/07/2020, 21:29:02,9.712467,0.73459655,1.4189439,-0.019537779,0.015874445,-0.028085556,9.843020512983387,0.03771632615506,stand
09/07/2020, 21:29:02,9.846465,0.7082755,1.4907285,-0.019537779,0.015874445,-0.028085556,9.98382696217497,0.03771632615506,stand
09/07/2020, 21:29:02,9.846465,0.7082755,1.4907285,-0.0036633336,0.019537779,-0.019537779,9.98382696217497,0.02787238052359928,stand
09/07/2020, 21:29:02,9.786645,0.6843473,1.442872,-0.0036633336,0.019537779,-0.019537779,9.916079367849054,0.02787238052359928,stand
09/07/2020, 21:29:02,9.786645,0.6843473,1.442872,0.013432222,0.013432222,-0.012211111,9.916079367849054,0.022582303673286192,stand
09/07/2020, 21:29:02,9.743574,0.69152576,1.4333007,0.013432222,0.013432222,-0.012211111,9.872679268334757,0.022582303673286192,stand
09/07/2020, 21:29:02,9.743574,0.69152576,1.4333007,0.0012211112,0.017095556,-0.026864445,9.872679268334757,0.03186608793557616,stand
09/07/2020, 21:29:02,9.734002,0.72263247,1.4644074,0.0012211112,0.017095556,-0.026864445,9.870029583949439,0.03186608793557616,stand
09/07/2020, 21:29:02,9.734002,0.72263247,1.4644074,-0.019537779,0.023201112,-0.03297,9.870029583949439,0.044799969639024134,stand
09/07/2020, 21:29:02,9.736395,0.72023964,1.4931214,-0.019537779,0.023201112,-0.03297,9.87651466420341,0.044799969639024134,stand
09/07/2020, 21:29:03,9.664611,0.6723832,1.375873,0.0061055557,0.014653334,-0.014653334,9.785184142861489,0.021603662374207456,stand
09/07/2020, 21:29:03,9.777073,0.72502524,1.4715859,0.0061055557,0.014653334,-0.014653334,9.913747080936716,0.021603662374207456,stand
09/07/2020, 21:29:03,9.777073,0.72502524,1.4715859,-0.009768889,0.015874445,-0.02198,9.913747080936716,0.028819258228776127,stand
09/07/2020, 21:29:03,9.777073,0.74177504,1.4739788,-0.009768889,0.015874445,-0.02198,9.91534155747252,0.028819258228776127,stand
09/07/2020, 21:29:03,9.777073,0.74177504,1.4739788,-0.018316668,0.019537779,-0.03052778,9.91534155747252,0.040609979589909175,stand
09/07/2020, 21:29:03,9.74836,0.72263247,1.442872,-0.018316668,0.019537779,-0.03052778,9.881021904780752,0.040609979589909175,stand
09/07/2020, 21:29:03,9.74836,0.72263247,1.442872,-0.008547778,0.017095556,-0.02198,9.881021904780752,0.02912804479056487,stand
09/07/2020, 21:29:03,9.803394,0.68195444,1.4500505,-0.008547778,0.017095556,-0.02198,9.933491248533615,0.02912804479056487,stand
09/07/2020, 21:29:03,9.803394,0.68195444,1.4500505,0.007326667,0.008547778,-0.007326667,9.933491248533615,0.013432223095812582,stand
09/07/2020, 21:29:03,9.738789,0.6843473,1.3926228,0.007326667,0.008547778,-0.007326667,9.861629328804602,0.013432223095812582,stand
09/07/2020, 21:29:03,9.738789,0.6843473,1.3926228,0.0061055557,0.014653334,-0.015874445,9.861629328804602,0.02244985605944443,stand
09/07/2020, 21:29:03,9.757931,0.71306115,1.4644074,0.0061055557,0.014653334,-0.015874445,9.892934751761487,0.02244985605944443,stand
09/07/2020, 21:29:03,9.757931,0.71306115,1.4644074,-0.014653334,0.019537779,-0.026864445,9.892934751761487,0.036306244597357935,stand
09/07/2020, 21:29:03,9.736395,0.6867401,1.4548361,-0.014653334,0.019537779,-0.026864445,9.86841149492736,0.036306244597357935,stand
09/07/2020, 21:29:03,9.736395,0.6867401,1.4548361,-0.015874445,0.018316668,-0.028085556,9.86841149492736,0.03709847404447989,stand
09/07/2020, 21:29:03,9.750752,0.7082755,1.4691931,-0.015874445,0.018316668,-0.028085556,9.886220504813062,0.03709847404447989,stand
09/07/2020, 21:29:03,9.750752,0.7082755,1.4691931,0.0,0.015874445,-0.015874445,9.886220504813062,0.022449856034115794,stand
09/07/2020, 21:29:03,9.664611,0.6843473,1.3950156,0.0,0.015874445,-0.015874445,9.788723248383873,0.022449856034115794,stand
09/07/2020, 21:29:03,9.664611,0.6843473,1.3950156,0.012211111,0.01099,-0.009768889,9.788723248383873,0.01911341272822154,stand
09/07/2020, 21:29:03,9.690931,0.68195444,1.3830515,0.012211111,0.01099,-0.009768889,9.81285092150612,0.01911341272822154,stand
09/07/2020, 21:29:04,9.738789,0.7298109,1.4524434,-0.0024422223,0.015874445,-0.014653334,9.873510983728057,0.02174126667672958,stand
09/07/2020, 21:29:04,9.738789,0.7298109,1.4524434,-0.0061055557,0.017095556,-0.02198,9.873510983728057,0.02850712701600015,stand
09/07/2020, 21:29:04,9.705289,0.70588267,1.4285151,-0.0061055557,0.017095556,-0.02198,9.835220284592102,0.02850712701600015,stand
09/07/2020, 21:29:04,9.705289,0.70588267,1.4285151,-0.014653334,0.01099,-0.024422223,9.835220284592102,0.030527778826653963,stand
09/07/2020, 21:29:04,9.772287,0.6987042,1.4859428,-0.014653334,0.01099,-0.024422223,9.909279190680385,0.030527778826653963,stand
09/07/2020, 21:29:04,9.772287,0.6987042,1.4859428,-0.0036633336,0.019537779,-0.023201112,9.909279190680385,0.030552191228450994,stand
09/07/2020, 21:29:04,9.786645,0.69152576,1.4907285,-0.0036633336,0.019537779,-0.023201112,9.923653481554112,0.030552191228450994,stand
09/07/2020, 21:29:04,9.786645,0.69152576,1.4907285,0.0012211112,0.02198,-0.01099,9.923653481554112,0.024604707856914106,stand
09/07/2020, 21:29:04,9.829716,0.6723832,1.4811572,0.0012211112,0.02198,-0.01099,9.96339485637387,0.024604707856914106,stand
09/07/2020, 21:29:04,9.829716,0.6723832,1.4811572,0.0024422223,0.013432222,-0.013432222,9.96339485637387,0.01915237969722267,stand
09/07/2020, 21:29:04,9.817751,0.7178468,1.4835501,0.0024422223,0.013432222,-0.013432222,9.955122209096311,0.01915237969722267,stand
09/07/2020, 21:29:04,9.817751,0.7178468,1.4835501,-0.007326667,0.012211111,-0.02075889,9.955122209096311,0.02517385133982101,stand
09/07/2020, 21:29:04,9.745967,0.6963114,1.4069797,-0.007326667,0.012211111,-0.02075889,9.871591180867128,0.02517385133982101,stand
09/07/2020, 21:29:04,9.745967,0.6963114,1.4069797,-0.013432222,0.018316668,-0.02198,9.871591180867128,0.03160767845633002,stand
09/07/2020, 21:29:04,9.710074,0.701097,1.4237294,-0.013432222,0.018316668,-0.02198,9.838906840408164,0.03160767845633002,stand
09/07/2020, 21:29:04,9.710074,0.701097,1.4237294,-0.0061055557,0.01099,-0.018316668,9.838906840408164,0.022216170389897073,stand
09/07/2020, 21:29:04,9.676575,0.6939186,1.3950156,-0.0061055557,0.01099,-0.018316668,9.801208577582438,0.022216170389897073,stand
09/07/2020, 21:29:04,9.676575,0.6939186,1.3950156,0.0024422223,0.01099,-0.014653334,9.801208577582438,0.018478765272167644,stand
09/07/2020, 21:29:04,9.793823,0.72502524,1.4691931,0.0024422223,0.01099,-0.014653334,9.929912570649686,0.018478765272167644,stand
09/07/2020, 21:29:04,9.793823,0.72502524,1.4691931,-0.0061055557,0.013432222,-0.01099,9.929912570649686,0.01839789435232852,stand
09/07/2020, 21:29:05,9.693324,0.70588267,1.3686945,-0.008547778,0.015874445,-0.02198,9.814893121750123,0.028428558877388835,stand
09/07/2020, 21:29:05,9.693324,0.70588267,1.3686945,-0.007326667,0.02075889,-0.02075889,9.814893121750123,0.03025794190549489,stand
09/07/2020, 21:29:05,9.729217,0.72023964,1.3974084,-0.007326667,0.02075889,-0.02075889,9.855412241773408,0.03025794190549489,stand
09/07/2020, 21:29:05,9.729217,0.72023964,1.3974084,-0.0036633336,0.015874445,-0.019537779,9.855412241773408,0.0254390019955473,stand
09/07/2020, 21:29:05,9.777073,0.7513463,1.4620147,-0.0036633336,0.015874445,-0.019537779,9.914290835803234,0.0254390019955473,stand
09/07/2020, 21:29:05,9.777073,0.7513463,1.4620147,-0.0012211112,0.012211111,-0.02075889,9.914290835803234,0.024115012990456642,stand
09/07/2020, 21:29:05,9.755538,0.72741807,1.4285151,-0.0012211112,0.012211111,-0.02075889,9.886370101134126,0.024115012990456642,stand
09/07/2020, 21:29:05,9.755538,0.72741807,1.4285151,-0.0061055557,0.02075889,-0.02075889,9.886370101134126,0.029985676687183004,stand
09/07/2020, 21:29:05,9.741181,0.68195444,1.4213367,-0.0061055557,0.02075889,-0.02075889,9.867921477762678,0.029985676687183004,stand
09/07/2020, 21:29:05,9.741181,0.68195444,1.4213367,-0.007326667,0.02198,-0.015874445,9.867921477762678,0.028085556772092117,stand
09/07/2020, 21:29:05,9.753145,0.6987042,1.4117653,-0.007326667,0.02198,-0.015874445,9.879529874623046,0.028085556772092117,stand
09/07/2020, 21:29:05,9.753145,0.6987042,1.4117653,-0.0024422223,0.013432222,-0.015874445,9.879529874623046,0.02093769488131736,stand
09/07/2020, 21:29:05,9.786645,0.72263247,1.4620147,-0.0024422223,0.013432222,-0.015874445,9.921597839533081,0.02093769488131736,stand
09/07/2020, 21:29:05,9.786645,0.72263247,1.4620147,-0.0012211112,0.013432222,-0.014653334,9.921597839533081,0.01991572043466507,stand
09/07/2020, 21:29:05,9.717253,0.7178468,1.4500505,-0.0012211112,0.013432222,-0.014653334,9.851038070329238,0.01991572043466507,stand
09/07/2020, 21:29:05,9.717253,0.7178468,1.4500505,-0.0061055557,0.017095556,-0.02075889,9.851038070329238,0.027576572661781686,stand
09/07/2020, 21:29:05,9.77468,0.701097,1.5050855,-0.0061055557,0.017095556,-0.02075889,9.91469571290786,0.027576572661781686,stand
09/07/2020, 21:29:05,9.77468,0.701097,1.5050855,-0.009768889,0.02075889,-0.025643334,9.91469571290786,0.03440847662928298,stand
09/07/2020, 21:29:05,9.688539,0.6891329,1.3998013,-0.009768889,0.02075889,-0.025643334,9.813364713782136,0.03440847662928298,stand
09/07/2020, 21:29:05,9.688539,0.6891329,1.3998013,-0.009768889,0.01099,-0.018316668,9.813364713782136,0.023488542194428415,stand
09/07/2020, 21:29:06,9.827323,0.715454,1.4931214,-0.014653334,0.014653334,-0.026864445,9.965819706933308,0.03392843665908139,stand
09/07/2020, 21:29:06,9.827323,0.715454,1.4931214,-0.014653334,0.017095556,-0.023201112,9.965819706933308,0.03233063322337082,stand
09/07/2020, 21:29:06,9.796216,0.6963114,1.4739788,-0.014653334,0.017095556,-0.023201112,9.93092700100658,0.03233063322337082,stand
09/07/2020, 21:29:06,9.796216,0.6963114,1.4739788,0.0,0.012211111,-0.02075889,9.93092700100658,0.02408407646273984,stand
09/07/2020, 21:29:06,9.8321085,0.7106683,1.5170496,0.0,0.012211111,-0.02075889,9.973808014893077,0.02408407646273984,stand
09/07/2020, 21:29:06,9.8321085,0.7106683,1.5170496,0.0036633336,0.012211111,-0.02075889,9.973808014893077,0.02436109094677774,stand
09/07/2020, 21:29:06,9.836894,0.7178468,1.5050855,0.0036633336,0.012211111,-0.02075889,9.97722759954691,0.02436109094677774,stand
09/07/2020, 21:29:06,9.836894,0.7178468,1.5050855,-0.0048844446,0.015874445,-0.02075889,9.97722759954691,0.026585471888137608,stand
09/07/2020, 21:29:06,9.793823,0.72263247,1.4524434,-0.0048844446,0.015874445,-0.02075889,9.927273699278517,0.026585471888137608,stand
09/07/2020, 21:29:06,9.793823,0.72263247,1.4524434,-0.014653334,0.017095556,-0.026864445,9.927273699278517,0.035052484315898566,stand
09/07/2020, 21:29:06,9.729217,0.7082755,1.4189439,-0.014653334,0.017095556,-0.026864445,9.8576219797269,0.035052484315898566,stand
09/07/2020, 21:29:06,9.729217,0.7082755,1.4189439,-0.012211111,0.015874445,-0.023201112,9.8576219797269,0.03064964670719722,stand
09/07/2020, 21:29:06,9.762716,0.70348984,1.4476577,-0.012211111,0.015874445,-0.023201112,9.89450555652721,0.03064964670719722,stand
09/07/2020, 21:29:06,9.762716,0.70348984,1.4476577,-0.0036633336,0.015874445,-0.015874445,9.89450555652721,0.02274678106912278,stand
09/07/2020, 21:29:06,9.745967,0.6867401,1.4141582,-0.0036633336,0.015874445,-0.015874445,9.871946438643358,0.02274678106912278,stand
09/07/2020, 21:29:06,9.745967,0.6867401,1.4141582,0.0036633336,0.017095556,-0.017095556,9.871946438643358,0.024452732280025105,stand
09/07/2020, 21:29:06,9.812965,0.72502524,1.4739788,0.0036633336,0.017095556,-0.017095556,9.949500730079516,0.024452732280025105,stand
09/07/2020, 21:29:06,9.812965,0.72502524,1.4739788,-0.007326667,0.018316668,-0.025643334,9.949500730079516,0.03235368494488146,stand
09/07/2020, 21:29:06,9.930214,0.7082755,1.5194423,-0.007326667,0.018316668,-0.025643334,10.070725286853605,0.03235368494488146,stand
09/07/2020, 21:29:06,9.930214,0.7082755,1.5194423,-0.013432222,0.018316668,-0.024422223,10.070725286853605,0.03335220940755377,stand
09/07/2020, 21:29:07,9.786645,0.6843473,1.4237294,0.0024422223,0.012211111,-0.017095556,9.913312047181106,0.021150265774039997,stand
09/07/2020, 21:29:07,9.647861,0.6652047,1.3351951,0.0024422223,0.012211111,-0.017095556,9.762502543279647,0.021150265774039997,stand
09/07/2020, 21:29:07,9.647861,0.6652047,1.3351951,-0.01099,0.017095556,-0.02198,9.762502543279647,0.029935907998748755,stand
09/07/2020, 21:29:07,9.705289,0.6987042,1.4356936,-0.01099,0.017095556,-0.02198,9.835752949890443,0.029935907998748755,stand
09/07/2020, 21:29:07,9.705289,0.6987042,1.4356936,-0.014653334,0.019537779,-0.024422223,9.835752949890443,0.034538239160917895,stand
09/07/2020, 21:29:07,9.793823,0.6939186,1.4955142,-0.014653334,0.019537779,-0.024422223,9.931619167538205,0.034538239160917895,stand
09/07/2020, 21:29:07,9.793823,0.6939186,1.4955142,-0.0036633336,0.015874445,-0.023201112,9.931619167538205,0.028349772756355224,stand
09/07/2020, 21:29:07,9.736395,0.71306115,1.4093726,-0.0036633336,0.015874445,-0.023201112,9.863679462916261,0.028349772756355224,stand
09/07/2020, 21:29:07,9.736395,0.71306115,1.4093726,0.0036633336,0.015874445,-0.02198,9.863679462916261,0.02735943091579534,stand
09/07/2020, 21:29:07,9.722038,0.6987042,1.4069797,0.0036633336,0.015874445,-0.02198,9.84813725840198,0.02735943091579534,stand
09/07/2020, 21:29:07,9.722038,0.6987042,1.4069797,-0.0012211112,0.013432222,-0.023201112,9.84813725840198,0.02683667818253856,stand
09/07/2020, 21:29:07,9.745967,0.701097,1.3878372,-0.0012211112,0.013432222,-0.023201112,9.869219830910664,0.02683667818253856,stand
09/07/2020, 21:29:07,9.745967,0.701097,1.3878372,-0.012211111,0.014653334,-0.02198,9.869219830910664,0.029102437679070378,stand
09/07/2020, 21:29:07,9.779466,0.71306115,1.457229,-0.012211111,0.014653334,-0.02198,9.913118657422068,0.029102437679070378,stand
09/07/2020, 21:29:07,9.779466,0.71306115,1.457229,-0.01099,0.018316668,-0.02198,9.913118657422068,0.030649646744301998,stand
09/07/2020, 21:29:07,9.745967,0.6987042,1.4452649,-0.01099,0.018316668,-0.02198,9.87728957283907,0.030649646744301998,stand
09/07/2020, 21:29:07,9.745967,0.6987042,1.4452649,0.0,0.012211111,-0.018316668,9.87728957283907,0.022013894482492333,stand
09/07/2020, 21:29:07,9.781859,0.72263247,1.4644074,0.0,0.012211111,-0.018316668,9.917230466493073,0.022013894482492333,stand
09/07/2020, 21:29:07,9.781859,0.72263247,1.4644074,-0.0012211112,0.013432222,-0.02075889,9.917230466493073,0.024755751041656917,stand
09/07/2020, 21:29:07,9.805787,0.70348984,1.4237294,-0.0012211112,0.013432222,-0.02075889,9.933547392602543,0.024755751041656917,stand
09/07/2020, 21:29:08,9.827323,0.7298109,1.4691931,0.0048844446,0.01099,-0.009768889,9.963304113913074,0.01549416356551506,stand
09/07/2020, 21:29:08,9.827323,0.7298109,1.4691931,-0.017095556,0.018316668,-0.024422223,9.963304113913074,0.03498861707352641,stand
09/07/2020, 21:29:08,9.817751,0.7298109,1.4356936,-0.017095556,0.018316668,-0.024422223,9.948973487474971,0.03498861707352641,stand
09/07/2020, 21:29:08,9.817751,0.7298109,1.4356936,-0.019537779,0.026864445,-0.03052778,9.948973487474971,0.045115058787487596,stand
09/07/2020, 21:29:08,9.801002,0.73459655,1.4524434,-0.019537779,0.026864445,-0.03052778,9.93523302034847,0.045115058787487596,stand
09/07/2020, 21:29:08,9.801002,0.73459655,1.4524434,0.0012211112,0.019537779,-0.014653334,9.93523302034847,0.024452732216076568,stand
09/07/2020, 21:29:08,9.68136,0.6628119,1.3591232,0.0012211112,0.019537779,-0.014653334,9.798738272094697,0.024452732216076568,stand
09/07/2020, 21:29:08,9.68136,0.6628119,1.3591232,0.009768889,0.013432222,-0.012211111,9.798738272094697,0.020614728665873543,stand
09/07/2020, 21:29:08,9.757931,0.7322037,1.4404793,0.009768889,0.013432222,-0.012211111,9.890819757424866,0.020614728665873543,stand
09/07/2020, 21:29:08,9.757931,0.7322037,1.4404793,-0.008547778,0.013432222,-0.02075889,9.890819757424866,0.026161433638712678,stand
09/07/2020, 21:29:08,9.846465,0.7513463,1.4859428,-0.008547778,0.013432222,-0.02075889,9.986261690488002,0.026161433638712678,stand
09/07/2020, 21:29:08,9.846465,0.7513463,1.4859428,-0.023201112,0.019537779,-0.03174889,9.986261690488002,0.04390909299576582,stand
09/07/2020, 21:29:08,9.731609,0.7178468,1.4261223,-0.023201112,0.019537779,-0.03174889,9.861711277164785,0.04390909299576582,stand
09/07/2020, 21:29:08,9.731609,0.7178468,1.4261223,-0.014653334,0.018316668,-0.024422223,9.861711277164785,0.03386244944080164,stand
09/07/2020, 21:29:08,9.734002,0.6843473,1.4452649,-0.014653334,0.018316668,-0.024422223,9.864477637711099,0.03386244944080164,stand
09/07/2020, 21:29:08,9.734002,0.6843473,1.4452649,0.008547778,0.014653334,-0.012211111,9.864477637711099,0.020902056423266122,stand
09/07/2020, 21:29:08,9.726824,0.6891329,1.3974084,0.008547778,0.014653334,-0.012211111,9.850825128047067,0.020902056423266122,stand
09/07/2020, 21:29:08,9.726824,0.6891329,1.3974084,0.009768889,0.013432222,-0.012211111,9.850825128047067,0.020614728665873543,stand
09/07/2020, 21:29:08,9.753145,0.7298109,1.4093726,0.009768889,0.013432222,-0.012211111,9.881436971285098,0.020614728665873543,stand
09/07/2020, 21:29:08,9.753145,0.7298109,1.4093726,-0.014653334,-0.0048844446,-0.024422223,9.881436971285098,0.02889676404558714,stand
09/07/2020, 21:29:09,9.762716,0.7082755,1.39023,-0.0012211112,0.008547778,-0.015874445,9.886608260215741,0.018070795314709287,stand
09/07/2020, 21:29:09,9.762716,0.7082755,1.39023,0.0012211112,0.009768889,-0.012211111,9.886608260215741,0.0156854566823754,stand
09/07/2020, 21:29:09,9.796216,0.76331043,1.4668003,0.0012211112,0.009768889,-0.012211111,9.93478707197705,0.0156854566823754,stand
09/07/2020, 21:29:09,9.796216,0.76331043,1.4668003,-0.013432222,0.017095556,-0.018316668,9.93478707197705,0.028428558877388835,stand
09/07/2020, 21:29:09,9.844072,0.715454,1.4883357,-0.013432222,0.017095556,-0.018316668,9.981622008218945,0.028428558877388835,stand
09/07/2020, 21:29:09,9.844072,0.715454,1.4883357,-0.017095556,0.02075889,-0.029306669,9.981622008218945,0.03977524839624754,stand
09/07/2020, 21:29:09,9.798609,0.6963114,1.4835501,-0.017095556,0.02075889,-0.029306669,9.93471209560538,0.03977524839624754,stand
09/07/2020, 21:29:09,9.798609,0.6963114,1.4835501,0.0,0.015874445,-0.017095556,9.93471209560538,0.023329296376627284,stand
09/07/2020, 21:29:09,9.779466,0.69152576,1.5026926,0.0,0.015874445,-0.017095556,9.918378988479502,0.023329296376627284,stand
09/07/2020, 21:29:09,9.779466,0.69152576,1.5026926,0.007326667,0.013432222,-0.015874445,9.918378988479502,0.02204773614891738,stand
09/07/2020, 21:29:09,9.801002,0.70348984,1.4907285,0.007326667,0.013432222,-0.015874445,9.938651858639346,0.02204773614891738,stand
09/07/2020, 21:29:09,9.801002,0.70348984,1.4907285,-0.0024422223,0.015874445,-0.019537779,9.938651858639346,0.025292039446089674,stand
09/07/2020, 21:29:09,9.769895,0.72023964,1.4380864,-0.0024422223,0.015874445,-0.019537779,9.901397785058466,0.025292039446089674,stand
09/07/2020, 21:29:09,9.769895,0.72023964,1.4380864,-0.02198,0.019537779,-0.03297,9.901397785058466,0.04417992897636529,stand
09/07/2020, 21:29:09,9.707682,0.72502524,1.4261223,-0.02198,0.019537779,-0.03297,9.83862640628454,0.04417992897636529,stand
09/07/2020, 21:29:09,9.707682,0.72502524,1.4261223,-0.01099,0.017095556,-0.025643334,9.83862640628454,0.03272031061446158,stand
09/07/2020, 21:29:09,9.717253,0.72263247,1.4739788,-0.01099,0.017095556,-0.025643334,9.854938442550932,0.03272031061446158,stand
09/07/2020, 21:29:09,9.717253,0.72263247,1.4739788,0.009768889,0.01099,-0.015874445,9.854938442550932,0.021638145093849936,stand
09/07/2020, 21:29:09,9.726824,0.72502524,1.4524434,0.009768889,0.01099,-0.015874445,9.86135663482744,0.021638145093849936,stand
09/07/2020, 21:29:09,9.726824,0.72502524,1.4524434,0.0024422223,0.012211111,-0.014653334,9.86135663482744,0.019230077995824955,stand
09/07/2020, 21:29:10,9.781859,0.70588267,1.4715859,-0.01099,0.018316668,-0.03052778,9.917086698920114,0.037258901728918145,stand
09/07/2020, 21:29:10,9.781859,0.70588267,1.4715859,0.007326667,0.013432222,-0.01099,9.917086698920114,0.018838385243100723,stand
09/07/2020, 21:29:10,9.760324,0.69152576,1.4285151,0.007326667,0.013432222,-0.01099,9.888517507676719,0.018838385243100723,stand
09/07/2020, 21:29:10,9.760324,0.69152576,1.4285151,0.0024422223,0.015874445,-0.013432222,9.888517507676719,0.02093769488131736,stand
09/07/2020, 21:29:10,9.717253,0.6939186,1.3615161,0.0024422223,0.015874445,-0.013432222,9.836678798649729,0.02093769488131736,stand
09/07/2020, 21:29:10,9.717253,0.6939186,1.3615161,-0.012211111,0.019537779,-0.028085556,9.836678798649729,0.036326773620178575,stand
09/07/2020, 21:29:10,9.690931,0.69152576,1.3710874,-0.012211111,0.019537779,-0.028085556,9.811841747175194,0.036326773620178575,stand
09/07/2020, 21:29:10,9.690931,0.69152576,1.3710874,-0.009768889,0.018316668,-0.025643334,9.811841747175194,0.03299260637129355,stand
09/07/2020, 21:29:10,9.700503,0.6771688,1.4404793,-0.009768889,0.018316668,-0.025643334,9.8302239723864,0.03299260637129355,stand
09/07/2020, 21:29:10,9.700503,0.6771688,1.4404793,0.0036633336,0.013432222,-0.017095556,9.8302239723864,0.022047736019964414,stand
09/07/2020, 21:29:10,9.736395,0.6771688,1.4524434,0.0036633336,0.013432222,-0.017095556,9.867397558898196,0.022047736019964414,stand
09/07/2020, 21:29:10,9.736395,0.6771688,1.4524434,0.01099,0.008547778,-0.009768889,9.867397558898196,0.01700811035915814,stand
09/07/2020, 21:29:10,9.805787,0.7178468,1.4644074,0.01099,0.008547778,-0.009768889,9.940485581265943,0.01700811035915814,stand
09/07/2020, 21:29:10,9.805787,0.7178468,1.4644074,-0.0048844446,0.012211111,-0.015874445,9.940485581265943,0.02061472916237464,stand
09/07/2020, 21:29:10,9.77468,0.72502524,1.402194,-0.0048844446,0.012211111,-0.015874445,9.901322207931955,0.02061472916237464,stand
09/07/2020, 21:29:10,9.77468,0.72502524,1.402194,-0.02198,0.018316668,-0.028085556,9.901322207931955,0.040092632583287956,stand
09/07/2020, 21:29:10,9.734002,0.6987042,1.4237294,-0.02198,0.018316668,-0.028085556,9.86235216054358,0.040092632583287956,stand
09/07/2020, 21:29:10,9.734002,0.6987042,1.4237294,-0.009768889,0.018316668,-0.025643334,9.86235216054358,0.03299260637129355,stand
09/07/2020, 21:29:10,9.674182,0.6652047,1.3639089,-0.009768889,0.018316668,-0.025643334,9.792473687613372,0.03299260637129355,stand
09/07/2020, 21:29:10,9.674182,0.6652047,1.3639089,0.007326667,0.012211111,-0.013432222,9.792473687613372,0.019575900804538148,stand
09/07/2020, 21:29:11,9.729217,0.715454,1.4356936,-0.0024422223,0.015874445,-0.018316668,9.86056518417877,0.024361091460290547,stand
09/07/2020, 21:29:11,9.779466,0.72023964,1.5002998,-0.0024422223,0.015874445,-0.018316668,9.920060158960583,0.024361091460290547,stand
09/07/2020, 21:29:11,9.779466,0.72023964,1.5002998,-0.0012211112,0.017095556,-0.017095556,9.920060158960583,0.024207585905482148,stand
09/07/2020, 21:29:11,9.793823,0.7322037,1.4644074,-0.0012211112,0.017095556,-0.017095556,9.92973238067201,0.024207585905482148,stand
09/07/2020, 21:29:11,9.793823,0.7322037,1.4644074,-0.007326667,0.014653334,-0.025643334,9.92973238067201,0.030429933110092112,stand
09/07/2020, 21:29:11,9.896714,0.7082755,1.5146568,-0.007326667,0.014653334,-0.025643334,10.036971231991396,0.030429933110092112,stand
09/07/2020, 21:29:11,9.896714,0.7082755,1.5146568,-0.0036633336,0.017095556,-0.02075889,10.036971231991396,0.02714055199468734,stand
09/07/2020, 21:29:11,9.812965,0.715454,1.3998013,-0.0036633336,0.017095556,-0.02075889,9.938088737672187,0.02714055199468734,stand
09/07/2020, 21:29:11,9.812965,0.715454,1.3998013,0.0,0.015874445,-0.017095556,9.938088737672187,0.023329296376627284,stand
09/07/2020, 21:29:11,9.743574,0.7178468,1.4261223,0.0,0.015874445,-0.017095556,9.873518417974402,0.023329296376627284,stand
09/07/2020, 21:29:11,9.743574,0.7178468,1.4261223,-0.0061055557,0.013432222,-0.014653334,9.873518417974402,0.020794773819717727,stand
09/07/2020, 21:29:11,9.743574,0.66999036,1.4668003,-0.0061055557,0.013432222,-0.014653334,9.876113981074612,0.020794773819717727,stand
09/07/2020, 21:29:11,9.743574,0.66999036,1.4668003,-0.0061055557,0.014653334,-0.017095556,9.876113981074612,0.02332929640100111,stand
09/07/2020, 21:29:11,9.786645,0.6963114,1.4955142,-0.0061055557,0.014653334,-0.017095556,9.924708120009193,0.02332929640100111,stand
09/07/2020, 21:29:11,9.786645,0.6963114,1.4955142,-0.007326667,0.018316668,-0.02075889,9.924708120009193,0.0286375952129279,stand
09/07/2020, 21:29:11,9.722038,0.68195444,1.4596218,-0.007326667,0.018316668,-0.02075889,9.854622556393354,0.0286375952129279,stand
09/07/2020, 21:29:11,9.722038,0.68195444,1.4596218,-0.0048844446,0.013432222,-0.023201112,9.854622556393354,0.02725021069414038,stand
09/07/2020, 21:29:11,9.724431,0.6963114,1.457229,-0.0048844446,0.013432222,-0.023201112,9.85763282984554,0.02725021069414038,stand
09/07/2020, 21:29:11,9.724431,0.6963114,1.457229,-0.0024422223,0.01099,-0.015874445,9.85763282984554,0.019461309696289605,stand
09/07/2020, 21:29:11,9.779466,0.701097,1.4979069,-0.0024422223,0.01099,-0.015874445,9.918327029590547,0.019461309696289605,stand
09/07/2020, 21:29:12,9.815358,0.72502524,1.4883357,-0.015874445,0.013432222,-0.023201112,9.953997221306187,0.031156286707221873,stand
09/07/2020, 21:29:12,9.815358,0.72502524,1.4883357,0.0036633336,0.009768889,-0.015874445,9.953997221306187,0.018996031925250068,stand
09/07/2020, 21:29:12,9.77468,0.7322037,1.4739788,0.0036633336,0.009768889,-0.015874445,9.912270550292215,0.018996031925250068,stand
09/07/2020, 21:29:12,9.77468,0.7322037,1.4739788,0.0048844446,0.017095556,-0.013432222,9.912270550292215,0.022283187609061995,stand
09/07/2020, 21:29:12,9.750752,0.76331043,1.4093726,0.0048844446,0.017095556,-0.013432222,9.881606507771703,0.022283187609061995,stand
09/07/2020, 21:29:12,9.750752,0.76331043,1.4093726,-0.01099,0.015874445,-0.02198,9.881606507771703,0.029255743952830187,stand
09/07/2020, 21:29:12,9.698111,0.7322037,1.3926228,-0.01099,0.015874445,-0.02198,9.824910659311403,0.029255743952830187,stand
09/07/2020, 21:29:12,9.698111,0.7322037,1.3926228,-0.02198,0.015874445,-0.029306669,9.824910659311403,0.0399249205690261,stand
09/07/2020, 21:29:12,9.7196455,0.701097,1.4380864,-0.02198,0.015874445,-0.029306669,9.850438474270295,0.0399249205690261,stand
09/07/2020, 21:29:12,9.7196455,0.701097,1.4380864,-0.0048844446,0.012211111,-0.018316668,9.850438474270295,0.0225492649493282,stand
09/07/2020, 21:29:12,9.7196455,0.70588267,1.4476577,-0.0048844446,0.012211111,-0.018316668,9.852182084182424,0.0225492649493282,stand
09/07/2020, 21:29:12,9.7196455,0.70588267,1.4476577,0.0061055557,0.012211111,-0.014653334,9.852182084182424,0.02002771230337137,stand
09/07/2020, 21:29:12,9.688539,0.72502524,1.3806586,0.0061055557,0.012211111,-0.014653334,9.81323897076901,0.02002771230337137,stand
09/07/2020, 21:29:12,9.688539,0.72502524,1.3806586,-0.0012211112,0.017095556,-0.015874445,9.81323897076901,0.023361232456685765,stand
09/07/2020, 21:29:12,9.7196455,0.72741807,1.442872,-0.0012211112,0.017095556,-0.015874445,9.853046505312959,0.023361232456685765,stand
09/07/2020, 21:29:12,9.7196455,0.72741807,1.442872,-0.017095556,0.02198,-0.026864445,9.853046505312959,0.038692077701474197,stand
09/07/2020, 21:29:12,9.724431,0.72741807,1.3926228,-0.017095556,0.02198,-0.026864445,9.850537771854558,0.038692077701474197,stand
09/07/2020, 21:29:12,9.724431,0.72741807,1.3926228,-0.008547778,0.013432222,-0.02198,9.850537771854558,0.027140551596616595,stand
09/07/2020, 21:29:12,9.796216,0.69152576,1.4691931,-0.008547778,0.013432222,-0.02198,9.929883401931054,0.027140551596616595,stand
09/07/2020, 21:29:12,9.796216,0.69152576,1.4691931,0.0012211112,0.009768889,-0.015874445,9.929883401931054,0.018679409206873648,stand
09/07/2020, 21:29:13,9.882358,0.72502524,1.5290136,-0.008547778,0.019537779,-0.024422223,10.026192496045802,0.032422743072334115,stand
09/07/2020, 21:29:13,9.848858,0.71306115,1.5074782,-0.008547778,0.019537779,-0.024422223,9.989041414369701,0.032422743072334115,stand
09/07/2020, 21:29:13,9.848858,0.71306115,1.5074782,0.0048844446,0.013432222,-0.015874445,9.989041414369701,0.021360721348883897,stand
09/07/2020, 21:29:13,9.8632145,0.7106683,1.5122639,0.0048844446,0.013432222,-0.015874445,10.003748881546366,0.021360721348883897,stand
09/07/2020, 21:29:13,9.8632145,0.7106683,1.5122639,-0.0024422223,0.012211111,-0.02198,10.003748881546366,0.025262543812255196,stand
09/07/2020, 21:29:13,9.820144,0.7322037,1.5026926,-0.0024422223,0.012211111,-0.02198,9.961396968440987,0.025262543812255196,stand
09/07/2020, 21:29:13,9.820144,0.7322037,1.5026926,-0.014653334,0.018316668,-0.024422223,9.961396968440987,0.03386244944080164,stand
09/07/2020, 21:29:13,9.856036,0.75613195,1.5218352,-0.014653334,0.018316668,-0.024422223,10.001458254949743,0.03386244944080164,stand
09/07/2020, 21:29:13,9.856036,0.75613195,1.5218352,-0.012211111,0.014653334,-0.018316668,10.001458254949743,0.026444881530298864,stand
09/07/2020, 21:29:13,9.724431,0.7082755,1.4907285,-0.012211111,0.014653334,-0.018316668,9.863492517551554,0.026444881530298864,stand
09/07/2020, 21:29:13,9.724431,0.7082755,1.4907285,0.0012211112,0.013432222,-0.019537779,9.863492517551554,0.02374111419174803,stand
09/07/2020, 21:29:13,9.726824,0.68195444,1.4237294,0.0012211112,0.013432222,-0.019537779,9.854094006619583,0.02374111419174803,stand
09/07/2020, 21:29:13,9.726824,0.68195444,1.4237294,0.0061055557,0.017095556,-0.015874445,9.854094006619583,0.02411501357405362,stand
09/07/2020, 21:29:13,9.712467,0.70348984,1.3974084,0.0061055557,0.017095556,-0.015874445,9.837665733485048,0.02411501357405362,stand
09/07/2020, 21:29:13,9.712467,0.70348984,1.3974084,-0.0036633336,0.02198,-0.023201112,9.837665733485048,0.032168805174680584,stand
09/07/2020, 21:29:13,9.738789,0.72023964,1.4045869,-0.0036633336,0.02198,-0.023201112,9.865881259008445,0.032168805174680584,stand
09/07/2020, 21:29:13,9.738789,0.72023964,1.4045869,-0.014653334,0.023201112,-0.026864445,9.865881259008445,0.03840195554357491,stand
09/07/2020, 21:29:13,9.798609,0.7106683,1.4811572,-0.014653334,0.023201112,-0.026864445,9.935371663561751,0.03840195554357491,stand
09/07/2020, 21:29:13,9.798609,0.7106683,1.4811572,-0.008547778,0.015874445,-0.017095556,9.935371663561751,0.024845936937285703,stand
09/07/2020, 21:29:13,9.82493,0.7178468,1.4811572,-0.008547778,0.015874445,-0.017095556,9.96184641044424,0.024845936937285703,stand
09/07/2020, 21:29:14,9.796216,0.6867401,1.4476577,0.0061055557,0.013432222,-0.070824444,9.9263877080008,0.07234503658785768,stand
09/07/2020, 21:29:14,9.796216,0.6867401,1.4476577,-0.012211111,0.0012211112,-0.11478445,9.9263877080008,0.11543860776836046,stand
09/07/2020, 21:29:14,9.74836,0.66041905,1.4093726,-0.012211111,0.0012211112,-0.11478445,9.871828645562884,0.11543860776836046,stand
09/07/2020, 21:29:14,9.74836,0.66041905,1.4093726,-0.014653334,-0.008547778,-0.14531223,9.871828645562884,0.1462991124117954,stand
09/07/2020, 21:29:14,9.743574,0.6939186,1.4476577,-0.014653334,-0.008547778,-0.14531223,9.874941665761826,0.1462991124117954,stand
09/07/2020, 21:29:14,9.743574,0.6939186,1.4476577,0.015874445,-0.018316668,-0.14653334,9.874941665761826,0.1485244697753019,stand
09/07/2020, 21:29:14,9.652647,0.6939186,1.3998013,0.015874445,-0.018316668,-0.14653334,9.778269837635182,0.1485244697753019,stand
09/07/2020, 21:29:14,9.652647,0.6939186,1.3998013,0.023201112,-0.03297,-0.14531223,9.778269837635182,0.1508010545682928,stand
09/07/2020, 21:29:14,9.77468,0.7393822,1.4404793,0.023201112,-0.03297,-0.14531223,9.907877592786758,0.1508010545682928,stand
09/07/2020, 21:29:14,9.77468,0.7393822,1.4404793,-0.0024422223,-0.03052778,-0.16851334,9.907877592786758,0.17127363040513102,stand
09/07/2020, 21:29:14,9.844072,0.7752745,1.4596218,-0.0024422223,-0.03052778,-0.16851334,9.981848857204294,0.17127363040513102,stand
09/07/2020, 21:29:14,9.844072,0.7752745,1.4596218,-0.018316668,-0.024422223,-0.18316667,9.981848857204294,0.1856932240906759,stand
09/07/2020, 21:29:14,9.803394,0.782453,1.457229,-0.018316668,-0.024422223,-0.18316667,9.9419459491822,0.1856932240906759,stand
09/07/2020, 21:29:14,9.803394,0.782453,1.457229,0.0024422223,-0.007326667,-0.1746189,9.9419459491822,0.1747896011701247,stand
09/07/2020, 21:29:14,9.731609,0.7609176,1.4213367,0.0024422223,-0.007326667,-0.1746189,9.864249282570535,0.1747896011701247,stand
09/07/2020, 21:29:14,9.731609,0.7609176,1.4213367,0.018316668,0.018316668,-0.14287001,9.864249282570535,0.14519931155024007,stand
09/07/2020, 21:29:14,9.717253,0.7968099,1.39023,0.018316668,0.018316668,-0.14287001,9.848484450262465,0.14519931155024007,stand
