DATE,TIME,ax,ay,az,gx,gy,gz,ma,mg,label
23/10/2020, 15:39:07,0.6466553,2.3303542,9.553733,0.26228967,0.14515139,-0.040768337,9.855076136459951,0.3025340581848611,stand
23/10/2020, 15:39:07,0.4981641,2.7782228,9.508228,0.26228967,0.14515139,-0.040768337,9.918321169616165,0.3025340581848611,stand
23/10/2020, 15:39:07,0.4981641,2.7782228,9.508228,0.30993715,0.16836426,-0.034659687,9.918321169616165,0.35441339329625254,stand
23/10/2020, 15:39:07,0.44307864,3.2213013,9.352551,0.30993715,0.16836426,-0.034659687,9.901682668713008,0.35441339329625254,stand
23/10/2020, 15:39:07,0.44307864,3.2213013,9.352551,0.25251582,0.1659208,-0.028551036,9.901682668713008,0.30349483069375655,stand
23/10/2020, 15:39:07,0.4023633,3.5829494,9.251961,0.25251582,0.1659208,-0.028551036,9.92966265433486,0.30349483069375655,stand
23/10/2020, 15:39:07,0.4023633,3.5829494,9.251961,0.11812553,0.14270793,-0.024885846,9.92966265433486,0.18691842803263004,stand
23/10/2020, 15:39:07,0.35925296,3.8200562,9.2256155,0.11812553,0.14270793,-0.024885846,9.991690219377936,0.18691842803263004,stand
23/10/2020, 15:39:07,0.35925296,3.8200562,9.2256155,-0.044364564,0.10849948,-0.026107576,9.991690219377936,0.12009145562700552,stand
23/10/2020, 15:39:07,0.34727785,3.8535867,9.14179,-0.044364564,0.10849948,-0.026107576,9.926885901026777,0.12009145562700552,stand
23/10/2020, 15:39:07,0.34727785,3.8535867,9.14179,-0.18119833,0.05596509,-0.024885846,9.926885901026777,0.19127004676964465,stand
23/10/2020, 15:39:07,0.52690434,3.647615,9.144185,-0.18119833,0.05596509,-0.024885846,9.858947387027374,0.19127004676964465,stand
23/10/2020, 15:39:07,0.52690434,3.647615,9.144185,-0.20685466,0.021756649,-0.018777195,9.858947387027374,0.20884152769793757,stand
23/10/2020, 15:39:07,-0.13172609,3.2284865,7.8700347,-0.20685466,0.021756649,-0.018777195,8.507521565222255,0.20884152769793757,stand
23/10/2020, 15:39:07,-0.13172609,3.2284865,7.8700347,-0.3461319,-0.07231656,-0.029772766,8.507521565222255,0.3548568556584978,stand
23/10/2020, 15:39:07,1.4585669,3.2548318,8.238868,-0.3461319,-0.07231656,-0.029772766,8.977766390520095,0.3548568556584978,stand
23/10/2020, 15:39:07,1.4585669,3.2548318,8.238868,-0.12988566,0.14881657,-0.050542176,8.977766390520095,0.20389008691963356,stand
23/10/2020, 15:39:07,-1.7579445,2.095642,9.105865,-0.12988566,0.14881657,-0.050542176,9.507831154075022,0.20389008691963356,stand
23/10/2020, 15:39:07,-1.7579445,2.095642,9.105865,0.20975529,-0.1309596,-0.016333736,9.507831154075022,0.247819466710105,stand
23/10/2020, 15:39:07,-0.48139894,2.572251,15.0287485,0.20975529,-0.1309596,-0.016333736,15.254884542684103,0.247819466710105,stand
23/10/2020, 15:39:07,-0.48139894,2.572251,15.0287485,0.27084178,-0.106525004,-0.041990068,15.254884542684103,0.2940510340010765,stand
23/10/2020, 15:39:07,-0.9148975,2.550696,15.2538805,0.27084178,-0.106525004,-0.041990068,15.492706584884068,0.2940510340010765,stand
23/10/2020, 15:39:07,-0.9148975,2.550696,15.2538805,0.42355803,0.030308757,-0.041990068,15.492706584884068,0.42671206732523737,stand
23/10/2020, 15:39:07,-3.1901662,2.5411158,10.851834,0.42355803,0.030308757,-0.041990068,11.592960688711136,0.42671206732523737,stand
23/10/2020, 15:39:07,-3.1901662,2.5411158,10.851834,0.33315003,0.34673682,-0.018777195,11.592960688711136,0.48121507286199783,stand
23/10/2020, 15:39:07,-1.5040723,2.9770093,2.3471193,0.33315003,0.34673682,-0.018777195,4.078453998259108,0.48121507286199783,stand
23/10/2020, 15:39:07,-1.5040723,2.9770093,2.3471193,0.26962006,0.22822903,-0.009003356,4.078453998259108,0.35336175266709846,stand
23/10/2020, 15:39:07,4.493057,3.8080812,6.0402393,0.26962006,0.22822903,-0.009003356,8.436440744433067,0.35336175266709846,stand
23/10/2020, 15:39:07,4.493057,3.8080812,6.0402393,0.05948249,-0.046660233,0.0081008645,8.436440744433067,0.0760326761825042,stand
23/10/2020, 15:39:07,1.5208374,3.8200562,16.916023,0.05948249,-0.046660233,0.0081008645,17.408550157651604,0.0760326761825042,stand
23/10/2020, 15:39:08,1.2933106,-0.44547364,10.34888,-0.035812456,-0.053990614,-0.17027172,10.438889432788443,0.18218116953208108,stand
23/10/2020, 15:39:08,1.2741505,-0.2682422,10.370435,-0.035812456,-0.053990614,-0.17027172,10.451857753028957,0.18218116953208108,stand
23/10/2020, 15:39:08,1.2741505,-0.2682422,10.370435,0.035047885,-0.013673522,-0.18737595,10.451857753028957,0.19111531928080058,stand
23/10/2020, 15:39:08,1.2957057,-0.06945557,10.31535,0.035047885,-0.013673522,-0.18737595,10.396639563313975,0.19111531928080058,stand
23/10/2020, 15:39:08,1.2957057,-0.06945557,10.31535,0.07047805,0.015647998,-0.20081498,10.396639563313975,0.2133979164540287,stand
23/10/2020, 15:39:08,1.3052857,0.1820215,10.200389,0.07047805,0.015647998,-0.20081498,10.285175567126295,0.2133979164540287,stand
23/10/2020, 15:39:08,1.3052857,0.1820215,10.200389,0.047265187,0.03153049,-0.21058881,10.285175567126295,0.21811881549492365,stand
23/10/2020, 15:39:08,1.3220508,0.38080812,10.099798,0.047265187,0.03153049,-0.21058881,10.193073966955417,0.21811881549492365,stand
23/10/2020, 15:39:08,1.3220508,0.38080812,10.099798,-0.011377855,0.03275222,-0.22524957,10.193073966955417,0.22790246571439143,stand
23/10/2020, 15:39:08,1.21188,0.5029541,10.047108,-0.011377855,0.03275222,-0.22524957,10.132422660765618,0.22790246571439143,stand
23/10/2020, 15:39:08,1.21188,0.5029541,10.047108,-0.09079031,0.016869728,-0.24724072,10.132422660765618,0.263923175604098,stand
23/10/2020, 15:39:08,1.1472144,0.38320315,9.984837,-0.09079031,0.016869728,-0.24724072,10.05782814819892,0.263923175604098,stand
23/10/2020, 15:39:08,1.1472144,0.38320315,9.984837,-0.15432027,0.0022089682,-0.27778396,10.05782814819892,0.3177790957719646,stand
23/10/2020, 15:39:08,1.1639795,0.15328126,10.123748,-0.15432027,0.0022089682,-0.27778396,10.191595239580833,0.3177790957719646,stand
23/10/2020, 15:39:08,1.1639795,0.15328126,10.123748,-0.1763114,-0.0051214118,-0.3107707,10.191595239580833,0.3573378819889333,stand
23/10/2020, 15:39:08,1.21188,-0.17004639,10.267449,-0.1763114,-0.0051214118,-0.3107707,10.340120191878876,0.3573378819889333,stand
23/10/2020, 15:39:08,1.21188,-0.17004639,10.267449,-0.14210296,0.009539349,-0.33764875,10.340120191878876,0.36645726550495294,stand
23/10/2020, 15:39:08,1.22625,-0.43349856,10.36325,-0.14210296,0.009539349,-0.33764875,10.444546719248786,0.36645726550495294,stand
23/10/2020, 15:39:08,1.22625,-0.43349856,10.36325,-0.06757744,0.037639137,-0.35963988,10.444546719248786,0.3678644588267708,stand
23/10/2020, 15:39:08,1.2909156,-0.51732427,10.490186,-0.06757744,0.037639137,-0.35963988,10.581969774890107,0.3678644588267708,stand
23/10/2020, 15:39:08,1.2909156,-0.51732427,10.490186,0.035047885,0.068182394,-0.3767441,10.581969774890107,0.38446495753512194,stand
23/10/2020, 15:39:08,1.2334352,-0.48139894,10.542876,0.035047885,0.068182394,-0.3767441,10.62569276359078,0.38446495753512194,stand
23/10/2020, 15:39:08,1.2334352,-0.48139894,10.542876,0.14500359,0.08650834,-0.39140487,10.62569276359078,0.42627163097824644,stand
23/10/2020, 15:39:08,1.096919,-0.42152345,10.406361,0.14500359,0.08650834,-0.39140487,10.472499924349615,0.42627163097824644,stand
23/10/2020, 15:39:08,1.096919,-0.42152345,10.406361,0.22930296,0.09261699,-0.4011787,10.472499924349615,0.4712770870919255,stand
23/10/2020, 15:39:08,1.0011182,-0.39517823,10.370435,0.22930296,0.09261699,-0.4011787,10.426136416818919,0.4712770870919255,stand
23/10/2020, 15:39:08,1.0011182,-0.39517823,10.370435,0.274507,0.08528661,-0.40850908,10.426136416818919,0.4995073133978544,stand
23/10/2020, 15:39:08,0.87897223,-0.30416748,10.34888,0.274507,0.08528661,-0.40850908,10.390593026789004,0.4995073133978544,stand
23/10/2020, 15:39:08,0.87897223,-0.30416748,10.34888,0.2830591,0.068182394,-0.41217428,10.390593026789004,0.5046374225640847,stand
23/10/2020, 15:39:08,0.80233157,-0.15567628,10.284214,0.2830591,0.068182394,-0.41217428,10.316638456900408,0.5046374225640847,stand
23/10/2020, 15:39:09,0.6993457,1.5663428,9.508228,0.20486836,0.112164676,-0.13361983,9.661724469539246,0.269084037135281,stand
23/10/2020, 15:39:09,0.5963599,1.7387843,9.489068,0.20486836,0.112164676,-0.13361983,9.665476094391241,0.269084037135281,stand
23/10/2020, 15:39:09,0.5963599,1.7387843,9.489068,0.15233397,0.10239083,-0.1446154,9.665476094391241,0.23367313842501528,stand
23/10/2020, 15:39:09,0.52690434,1.7387843,9.381292,0.15233397,0.10239083,-0.1446154,9.55560804468258,0.23367313842501528,stand
23/10/2020, 15:39:09,0.52690434,1.7387843,9.381292,0.09002573,0.09139527,-0.15072405,9.55560804468258,0.19792793415722484,stand
23/10/2020, 15:39:09,0.45984375,1.7986598,9.333391,0.09002573,0.09139527,-0.15072405,9.516240037846396,0.19792793415722484,stand
23/10/2020, 15:39:09,0.45984375,1.7986598,9.333391,0.039934807,0.07795623,-0.14950232,9.516240037846396,0.17327119434194532,stand
23/10/2020, 15:39:09,0.4239185,1.7268091,9.366921,0.039934807,0.07795623,-0.14950232,9.53419077226528,0.17327119434194532,stand
23/10/2020, 15:39:09,0.4239185,1.7268091,9.366921,0.026495777,0.0645172,-0.14828059,9.53419077226528,0.16386466640921896,stand
23/10/2020, 15:39:09,0.48379397,1.6238233,9.527389,0.026495777,0.0645172,-0.14828059,9.676879232765327,0.16386466640921896,stand
23/10/2020, 15:39:09,0.48379397,1.6238233,9.527389,0.043599997,0.06696066,-0.1409502,9.676879232765327,0.16202360864781742,stand
23/10/2020, 15:39:09,0.52690434,1.468147,9.560919,0.043599997,0.06696066,-0.1409502,9.687324314303925,0.16202360864781742,stand
23/10/2020, 15:39:09,0.52690434,1.468147,9.560919,0.09002573,0.076734506,-0.12506771,9.687324314303925,0.1721474623462391,stand
23/10/2020, 15:39:09,0.5292993,1.453777,9.637559,0.09002573,0.076734506,-0.12506771,9.760951156064134,0.1721474623462391,stand
23/10/2020, 15:39:09,0.5292993,1.453777,9.637559,0.13400802,0.08650834,-0.10918522,9.760951156064134,0.19329576963915965,stand
23/10/2020, 15:39:09,0.51492923,1.5256275,9.656719,0.13400802,0.08650834,-0.10918522,9.790041737635596,0.19329576963915965,stand
23/10/2020, 15:39:09,0.51492923,1.5256275,9.656719,0.17310338,0.090173535,-0.099411376,9.790041737635596,0.21904033252301175,stand
23/10/2020, 15:39:09,0.44307864,1.6573536,9.671089,0.17310338,0.090173535,-0.099411376,9.82207236509594,0.21904033252301175,stand
23/10/2020, 15:39:09,0.44307864,1.6573536,9.671089,0.18776414,0.088951804,-0.092080995,9.82207236509594,0.2272591133996892,stand
23/10/2020, 15:39:09,0.34488282,1.7890797,9.599238,0.18776414,0.088951804,-0.092080995,9.770625772483502,0.2272591133996892,stand
23/10/2020, 15:39:09,0.34488282,1.7890797,9.599238,0.165773,0.08039969,-0.078641966,9.770625772483502,0.20032313458414644,stand
23/10/2020, 15:39:09,0.3065625,1.9423609,9.522598,0.165773,0.08039969,-0.078641966,9.723508836931149,0.20032313458414644,stand
23/10/2020, 15:39:09,0.3065625,1.9423609,9.522598,0.13400802,0.07184758,-0.06642467,9.723508836931149,0.16592908355804428,stand
23/10/2020, 15:39:09,0.31853762,2.0285816,9.474698,0.13400802,0.07184758,-0.06642467,9.694664153977941,0.16592908355804428,stand
23/10/2020, 15:39:09,0.31853762,2.0285816,9.474698,0.086360544,0.06573893,-0.059094287,9.694664153977941,0.1235794701890842,stand
23/10/2020, 15:39:09,0.23231691,2.0860622,9.410032,0.086360544,0.06573893,-0.059094287,9.641282797761674,0.1235794701890842,stand
23/10/2020, 15:39:09,0.23231691,2.0860622,9.410032,0.041156538,0.06207374,-0.044433527,9.641282797761674,0.08672570689202252,stand
23/10/2020, 15:39:09,0.16765137,2.1315675,9.441168,0.041156538,0.06207374,-0.044433527,9.680255002685119,0.08672570689202252,stand
23/10/2020, 15:39:09,0.16765137,2.1315675,9.441168,0.013056746,0.05718682,-0.035881415,9.680255002685119,0.06876253987587877,stand
23/10/2020, 15:39:09,0.17962648,2.0190015,9.558523,0.013056746,0.05718682,-0.035881415,9.771079674763259,0.06876253987587877,stand
23/10/2020, 15:39:10,0.49097902,1.3579761,9.721385,-0.048029754,0.011982808,-0.019998927,9.828045878242689,0.05338915668939964,stand
23/10/2020, 15:39:10,0.58677983,1.2933106,9.68067,-0.048029754,0.011982808,-0.019998927,9.784289982772647,0.05338915668939964,stand
23/10/2020, 15:39:10,0.58677983,1.2933106,9.68067,0.010613285,0.02908703,-0.016333736,9.784289982772647,0.035006971379202084,stand
23/10/2020, 15:39:10,0.5748047,1.2645704,9.778865,0.010613285,0.02908703,-0.016333736,9.877030759002434,0.035006971379202084,stand
23/10/2020, 15:39:10,0.5748047,1.2645704,9.778865,0.07047805,0.04741298,-0.016333736,9.877030759002434,0.08649819334866564,stand
23/10/2020, 15:39:10,0.55803955,1.3268409,9.716595,0.07047805,0.04741298,-0.016333736,9.822633421665241,0.08649819334866564,stand
23/10/2020, 15:39:10,0.55803955,1.3268409,9.716595,0.10957342,0.06085201,-0.017555466,9.822633421665241,0.12656024282914402,stand
23/10/2020, 15:39:10,0.5748047,1.4418018,9.707015,0.10957342,0.06085201,-0.017555466,9.830327247868153,0.12656024282914402,stand
23/10/2020, 15:39:10,0.5748047,1.4418018,9.707015,0.12423418,0.07062586,-0.016333736,9.830327247868153,0.14383648123487539,stand
23/10/2020, 15:39:10,0.56522465,1.6238233,9.718989,0.12423418,0.07062586,-0.016333736,9.869905540651512,0.14383648123487539,stand
23/10/2020, 15:39:10,0.56522465,1.6238233,9.718989,0.09857784,0.07306931,-0.011446816,9.869905540651512,0.12323856888196542,stand
23/10/2020, 15:39:10,0.5412744,1.8058448,9.649534,0.09857784,0.07306931,-0.011446816,9.8319664441209,0.12323856888196542,stand
23/10/2020, 15:39:10,0.5412744,1.8058448,9.649534,0.043599997,0.0645172,-0.006559896,9.8319664441209,0.07814384839322136,stand
23/10/2020, 15:39:10,0.51971924,1.8130299,9.630374,0.043599997,0.0645172,-0.006559896,9.813321963806516,0.07814384839322136,stand
23/10/2020, 15:39:10,0.51971924,1.8130299,9.630374,-0.022373427,0.048634708,-0.006559896,9.813321963806516,0.05393456471407047,stand
23/10/2020, 15:39:10,0.49097902,1.7483643,9.656719,-0.022373427,0.048634708,-0.006559896,9.825989216342354,0.05393456471407047,stand
23/10/2020, 15:39:10,0.49097902,1.7483643,9.656719,-0.06757744,0.03275222,-0.010225086,9.825989216342354,0.07578898465558595,stand
23/10/2020, 15:39:10,0.51732427,1.5208374,9.721385,-0.06757744,0.03275222,-0.010225086,9.85321760826148,0.07578898465558595,stand
23/10/2020, 15:39:10,0.51732427,1.5208374,9.721385,-0.06391225,0.027865298,-0.012668546,9.85321760826148,0.07086425485322824,stand
23/10/2020, 15:39:10,0.5245093,1.3100758,9.82437,-0.06391225,0.027865298,-0.012668546,9.92520337121342,0.07086425485322824,stand
23/10/2020, 15:39:10,0.5245093,1.3100758,9.82437,-0.027260344,0.030308757,-0.013890276,9.92520337121342,0.04306607586413867,stand
23/10/2020, 15:39:10,0.5676197,1.1783496,9.922566,-0.027260344,0.030308757,-0.013890276,10.00839768163039,0.04306607586413867,stand
23/10/2020, 15:39:10,0.5676197,1.1783496,9.922566,0.028939236,0.04374779,-0.012668546,10.00839768163039,0.05396147316798313,stand
23/10/2020, 15:39:10,0.55803955,1.2837305,9.891431,0.028939236,0.04374779,-0.012668546,9.989983809020389,0.05396147316798313,stand
23/10/2020, 15:39:10,0.55803955,1.2837305,9.891431,0.08269536,0.05596509,-0.005338166,9.989983809020389,0.09999554628522649,stand
23/10/2020, 15:39:10,0.5556446,1.4202466,9.79563,0.08269536,0.05596509,-0.005338166,9.913637945242792,0.09999554628522649,stand
23/10/2020, 15:39:10,0.5556446,1.4202466,9.79563,0.102243036,0.063295476,-0.0016729758,9.913637945242792,0.12026119309544976,stand
23/10/2020, 15:39:10,0.4526587,1.6286134,9.72378,0.102243036,0.063295476,-0.0016729758,9.869608533075686,0.12026119309544976,stand
23/10/2020, 15:39:10,0.4526587,1.6286134,9.72378,0.08269536,0.05718682,7.704842E-4,9.869608533075686,0.10054575145511174,stand
23/10/2020, 15:39:10,0.4382886,1.7627344,9.616004,0.08269536,0.05718682,7.704842E-4,9.786054478008852,0.10054575145511174,stand
23/10/2020, 15:39:40,0.46942386,1.6525636,9.632769,0.027717505,0.022978378,-0.006559896,9.784761449208649,0.036596422964780655,stand
23/10/2020, 15:39:40,-3.03928,1.7459693,9.278306,0.027717505,0.022978378,-0.006559896,9.918295906429192,0.036596422964780655,stand
23/10/2020, 15:39:40,-3.03928,1.7459693,9.278306,0.030160967,0.022978378,-0.0016729758,9.918295906429192,0.037953770180089476,stand
23/10/2020, 15:39:40,-3.1111305,1.81782,9.242381,0.030160967,0.022978378,-0.0016729758,9.919940047282298,0.037953770180089476,stand
23/10/2020, 15:39:40,-3.1111305,1.81782,9.242381,0.022830587,0.018091459,0.0019922145,9.919940047282298,0.029197696797911604,stand
23/10/2020, 15:39:40,-3.1183155,1.8633252,9.220825,0.022830587,0.018091459,0.0019922145,9.910574631341275,0.029197696797911604,stand
23/10/2020, 15:39:40,-3.1183155,1.8633252,9.220825,0.010613285,0.013204537,0.010544324,9.910574631341275,0.01995455836555739,stand
23/10/2020, 15:39:40,-3.0704153,1.9160157,9.09868,0.010613285,0.013204537,0.010544324,9.792064930798984,0.01995455836555739,stand
23/10/2020, 15:39:40,-3.0704153,1.9160157,9.09868,-0.010156126,0.009539349,0.019096434,9.792064930798984,0.02363937109733407,stand
23/10/2020, 15:39:40,-3.0368848,1.9711012,9.057964,-0.010156126,0.009539349,0.019096434,9.754723302563095,0.02363937109733407,stand
23/10/2020, 15:39:40,-3.0368848,1.9711012,9.057964,-0.027260344,0.0034306985,0.020318165,9.754723302563095,0.03417197564437664,stand
23/10/2020, 15:39:40,-2.9770093,1.8920655,9.005274,-0.027260344,0.0034306985,0.020318165,9.671476250122193,0.03417197564437664,stand
23/10/2020, 15:39:40,-2.9770093,1.8920655,9.005274,-0.035812456,0.0034306985,0.020318165,9.671476250122193,0.04131742434838581,stand
23/10/2020, 15:39:40,-2.955454,1.8609302,9.017249,-0.035812456,0.0034306985,0.020318165,9.669981990295007,0.04131742434838581,stand
23/10/2020, 15:39:40,-2.955454,1.8609302,9.017249,-0.032147266,0.0070958887,0.022761624,9.669981990295007,0.04002361661848763,stand
23/10/2020, 15:39:40,-2.9746144,1.7459693,9.067544,-0.032147266,0.0070958887,0.022761624,9.701396466136186,0.04002361661848763,stand
23/10/2020, 15:39:40,-2.9746144,1.7459693,9.067544,-0.016264774,0.011982808,0.020318165,9.701396466136186,0.028652371650585075,stand
23/10/2020, 15:39:40,-3.0009596,1.7028589,9.105865,-0.016264774,0.011982808,0.020318165,9.73767200065511,0.028652371650585075,stand
23/10/2020, 15:39:40,-3.0009596,1.7028589,9.105865,-3.8228463E-4,0.019313188,0.016652975,9.73767200065511,0.02550425389501487,stand
23/10/2020, 15:39:40,-3.0225148,1.7148341,9.125025,-3.8228463E-4,0.019313188,0.016652975,9.76433967695221,0.02550425389501487,stand
23/10/2020, 15:39:40,-3.0225148,1.7148341,9.125025,0.009391556,0.024200108,0.012987785,9.76433967695221,0.029026351797081715,stand
23/10/2020, 15:39:41,-3.1302907,1.6693287,9.148975,0.009391556,0.024200108,0.012987785,9.81270242063118,0.029026351797081715,stand
23/10/2020, 15:39:41,-3.1302907,1.6693287,9.148975,0.019165397,0.022978378,0.009322595,9.81270242063118,0.0313405341642762,stand
23/10/2020, 15:39:41,-3.1398706,1.6932789,9.1849,0.019165397,0.022978378,0.009322595,9.853343307983593,0.0313405341642762,stand
23/10/2020, 15:39:41,-3.1398706,1.6932789,9.1849,0.020387124,0.019313188,0.0056574047,9.853343307983593,0.028646820149034666,stand
23/10/2020, 15:39:41,-3.1039455,1.7244141,9.16095,0.020387124,0.019313188,0.0056574047,9.825023215545372,0.028646820149034666,stand
23/10/2020, 15:39:41,-3.1039455,1.7244141,9.16095,0.014278475,0.015647998,0.0032139444,9.825023215545372,0.02142578204577107,stand
23/10/2020, 15:39:41,-3.0943654,1.7579445,9.201666,0.014278475,0.015647998,0.0032139444,9.865906985557865,0.02142578204577107,stand
23/10/2020, 15:39:41,-3.0943654,1.7579445,9.201666,-0.001604015,0.013204537,0.0019922145,9.865906985557865,0.013449966126248566,stand
23/10/2020, 15:39:41,-3.0895753,1.8250049,9.223221,-0.001604015,0.013204537,0.0019922145,9.896662108046156,0.013449966126248566,stand
23/10/2020, 15:39:41,-3.0895753,1.8250049,9.223221,-0.017486505,0.010761078,0.0019922145,9.896662108046156,0.020628804917321702,stand
23/10/2020, 15:39:41,-3.051255,1.8058448,9.086704,-0.017486505,0.010761078,0.0019922145,9.753944155344382,0.020628804917321702,stand
23/10/2020, 15:39:41,-3.051255,1.8058448,9.086704,-0.028482076,0.004652428,-0.0016729758,9.753944155344382,0.028908001919585195,stand
23/10/2020, 15:39:41,-3.04886,1.829795,9.079519,-0.028482076,0.004652428,-0.0016729758,9.75096752665911,0.028908001919585195,stand
23/10/2020, 15:39:41,-3.04886,1.829795,9.079519,-0.035812456,0.004652428,-0.005338166,9.75096752665911,0.03650579567142741,stand
23/10/2020, 15:39:41,-3.027305,1.8226099,9.034014,-0.035812456,0.004652428,-0.005338166,9.700509581378475,0.03650579567142741,stand
23/10/2020, 15:39:41,-3.027305,1.8226099,9.034014,-0.029703803,0.0058741583,-0.006559896,9.700509581378475,0.030981509058101243,stand
23/10/2020, 15:39:41,-3.0416749,1.8010547,9.010064,-0.029703803,0.0058741583,-0.006559896,9.678679638033394,0.030981509058101243,stand
23/10/2020, 15:39:41,-3.0416749,1.8010547,9.010064,-0.011377855,0.009539349,-0.006559896,9.678679638033394,0.016232282698643713,stand
23/10/2020, 15:39:41,-3.0081446,1.7603394,9.06994,-0.011377855,0.009539349,-0.006559896,9.716559749072651,0.016232282698643713,stand
23/10/2020, 15:39:41,-3.0081446,1.7603394,9.06994,0.010613285,0.018091459,-0.0077816257,9.716559749072651,0.022371776863422486,stand
23/10/2020, 15:39:41,-3.0344899,1.7315992,9.077125,0.010613285,0.018091459,-0.0077816257,9.726291972088426,0.022371776863422486,stand
23/10/2020, 15:39:41,-3.0344899,1.7315992,9.077125,0.032604426,0.024200108,-0.005338166,9.726291972088426,0.04095350829948303,stand
23/10/2020, 15:39:41,-3.04886,1.7866846,9.065149,0.032604426,0.024200108,-0.005338166,9.729579727991057,0.04095350829948303,stand
23/10/2020, 15:39:41,-3.04886,1.7866846,9.065149,0.043599997,0.030308757,-0.0016729758,9.729579727991057,0.05312606997767112,stand
23/10/2020, 15:39:41,-3.056045,1.9016455,9.134604,0.043599997,0.030308757,-0.0016729758,9.818180364847606,0.05312606997767112,stand
23/10/2020, 15:39:41,-3.056045,1.9016455,9.134604,0.035047885,0.02908703,0.0044356743,9.818180364847606,0.04576117055611376,stand
23/10/2020, 15:39:41,-3.0608351,1.9303858,9.101074,0.035047885,0.02908703,0.0044356743,9.794113182457112,0.04576117055611376,stand
23/10/2020, 15:39:41,-3.0608351,1.9303858,9.101074,0.013056746,0.018091459,0.009322595,9.794113182457112,0.024180369453534852,stand
23/10/2020, 15:39:41,-3.0943654,1.8848804,9.081915,0.013056746,0.018091459,0.009322595,9.777988006965773,0.024180369453534852,stand
23/10/2020, 15:39:41,-3.0943654,1.8848804,9.081915,-0.017486505,0.009539349,0.009322595,9.777988006965773,0.02199290382523535,stand
23/10/2020, 15:39:42,-3.0033545,1.7651294,9.271121,0.037491348,0.011982808,-0.0028947059,9.904014619124846,0.03946603799286132,stand
23/10/2020, 15:39:42,-3.0033545,1.7651294,9.271121,0.032604426,0.008317618,-0.005338166,9.904014619124846,0.034069449419509595,stand
23/10/2020, 15:39:42,-3.04407,1.7531544,9.244776,0.032604426,0.008317618,-0.005338166,9.889681067352305,0.034069449419509595,stand
23/10/2020, 15:39:42,-3.04407,1.7531544,9.244776,0.024052314,0.004652428,-0.005338166,9.889681067352305,0.025072992087743048,stand
23/10/2020, 15:39:42,-3.046465,1.7651294,9.196876,0.024052314,0.004652428,-0.005338166,9.847799285336778,0.025072992087743048,stand
23/10/2020, 15:39:42,-3.046465,1.7651294,9.196876,0.015500206,-0.002677952,-0.0077816257,9.847799285336778,0.017549401647895688,stand
23/10/2020, 15:39:42,-3.0416749,1.7603394,9.115445,0.015500206,-0.002677952,-0.0077816257,9.769438094588258,0.017549401647895688,stand
23/10/2020, 15:39:42,-3.0416749,1.7603394,9.115445,0.0069480953,-0.008786602,-0.010225086,9.769438094588258,0.015166831446143326,stand
23/10/2020, 15:39:42,-3.056045,1.8369801,9.108259,0.0069480953,-0.008786602,-0.010225086,9.781323681292344,0.015166831446143326,stand
23/10/2020, 15:39:42,-3.056045,1.8369801,9.108259,-0.001604015,-0.012451792,-0.010225086,9.781323681292344,0.016191737580378708,stand
23/10/2020, 15:39:42,-3.0201197,1.8226099,9.08431,-0.001604015,-0.012451792,-0.010225086,9.745137770395692,0.016191737580378708,stand
23/10/2020, 15:39:42,-3.0201197,1.8226099,9.08431,-0.008934394,-0.013673522,-0.005338166,9.745137770395692,0.01718384741344329,stand
23/10/2020, 15:39:42,-3.0129347,1.8058448,9.043594,-0.008934394,-0.013673522,-0.005338166,9.70182713473544,0.01718384741344329,stand
23/10/2020, 15:39:42,-3.0129347,1.8058448,9.043594,-0.013821316,-0.013673522,-0.0016729758,9.70182713473544,0.01951391337311839,stand
23/10/2020, 15:39:42,-3.0344899,1.7914747,9.036409,-0.013821316,-0.013673522,-0.0016729758,9.699185781288804,0.01951391337311839,stand
23/10/2020, 15:39:42,-3.0344899,1.7914747,9.036409,-0.013821316,-0.011230063,-0.0028947059,9.699185781288804,0.018042239460431223,stand
23/10/2020, 15:39:42,-3.06323,1.8226099,9.005274,-0.013821316,-0.011230063,-0.0028947059,9.685052486755414,0.018042239460431223,stand
23/10/2020, 15:39:42,-3.06323,1.8226099,9.005274,-0.015043045,-0.007564872,-0.005338166,9.685052486755414,0.01766398932709574,stand
23/10/2020, 15:39:42,-3.0009596,1.7723145,9.053174,-0.015043045,-0.007564872,-0.005338166,9.700866837769777,0.01766398932709574,stand
23/10/2020, 15:39:42,-3.0009596,1.7723145,9.053174,-0.016264774,-0.006343142,-0.010225086,9.700866837769777,0.020231922711342627,stand
23/10/2020, 15:39:42,-3.056045,1.7483643,9.163345,-0.016264774,-0.006343142,-0.010225086,9.816470189035186,0.020231922711342627,stand
23/10/2020, 15:39:42,-3.056045,1.7483643,9.163345,-0.013821316,-2.3449166E-4,-0.0077816257,9.816470189035186,0.015863084816697185,stand
23/10/2020, 15:39:42,-3.0847852,1.7483643,9.2328005,-0.013821316,-2.3449166E-4,-0.0077816257,9.89026200219504,0.015863084816697185,stand
23/10/2020, 15:39:42,-3.0847852,1.7483643,9.2328005,-0.015043045,0.0034306985,-0.004116436,9.89026200219504,0.015968968423192186,stand
23/10/2020, 15:39:42,-3.0704153,1.7962648,9.19927,-0.015043045,0.0034306985,-0.004116436,9.863092318228066,0.015968968423192186,stand
23/10/2020, 15:39:42,-3.0704153,1.7962648,9.19927,-0.019929964,0.0022089682,-0.005338166,9.863092318228066,0.020750398175488318,stand
23/10/2020, 15:39:42,-3.0847852,1.8776954,9.16095,-0.019929964,0.0022089682,-0.005338166,9.847062484665956,0.020750398175488318,stand
23/10/2020, 15:39:42,-3.0847852,1.8776954,9.16095,-0.035812456,-0.0014562218,7.704842E-4,9.847062484665956,0.035850331157715735,stand
23/10/2020, 15:39:42,-3.0704153,1.8872755,9.091495,-0.035812456,-0.0014562218,7.704842E-4,9.77980223982079,0.035850331157715735,stand
23/10/2020, 15:39:42,-3.0704153,1.8872755,9.091495,-0.061468784,-0.007564872,0.0081008645,9.77980223982079,0.06246008863188369,stand
23/10/2020, 15:39:43,-3.1470559,2.1411476,9.237591,-0.043142837,0.014426269,-0.009003356,9.99107388201334,0.046373289646496466,stand
23/10/2020, 15:39:43,-3.1135256,2.0453467,9.139395,-0.043142837,0.014426269,-0.009003356,9.869448905507161,0.046373289646496466,stand
23/10/2020, 15:39:43,-3.1135256,2.0453467,9.139395,-0.07612955,-0.0051214118,0.0019922145,9.869448905507161,0.07632762208969426,stand
23/10/2020, 15:39:43,-3.0608351,1.8944606,9.15137,-0.07612955,-0.0051214118,0.0019922145,9.833883577954767,0.07632762208969426,stand
23/10/2020, 15:39:43,-3.0608351,1.8944606,9.15137,-0.0822382,-0.010008331,0.012987785,9.833883577954767,0.08385684442545688,stand
23/10/2020, 15:39:43,-3.0129347,1.7148341,9.172925,-0.0822382,-0.010008331,0.012987785,9.806170728492463,0.08385684442545688,stand
23/10/2020, 15:39:43,-3.0129347,1.7148341,9.172925,-0.057803597,-0.0038996818,0.015431244,9.806170728492463,0.05995487193372262,stand
23/10/2020, 15:39:43,-3.0225148,1.5423926,9.266331,-0.057803597,-0.0038996818,0.015431244,9.868102948364124,0.05995487193372262,stand
23/10/2020, 15:39:43,-3.0225148,1.5423926,9.266331,-0.023595154,-0.0014562218,0.020318165,9.868102948364124,0.031171777841091944,stand
23/10/2020, 15:39:43,-3.0799952,1.5687379,9.309442,-0.023595154,-0.0014562218,0.020318165,9.930408396629561,0.031171777841091944,stand
23/10/2020, 15:39:43,-3.0799952,1.5687379,9.309442,8.394448E-4,9.872383E-4,0.025205085,9.930408396629561,0.025238375928965186,stand
23/10/2020, 15:39:43,-3.1063404,1.5663428,9.259146,8.394448E-4,9.872383E-4,0.025205085,9.891135443865503,0.025238375928965186,stand
23/10/2020, 15:39:43,-3.1063404,1.5663428,9.259146,0.014278475,-0.002677952,0.027648546,9.891135443865503,0.031232809118524503,stand
23/10/2020, 15:39:43,-3.1398706,1.7028589,9.299861,0.014278475,-0.002677952,0.027648546,9.96222515031974,0.031232809118524503,stand
23/10/2020, 15:39:43,-3.1398706,1.7028589,9.299861,0.009391556,-0.013673522,0.025205085,9.96222515031974,0.030173876463252813,stand
23/10/2020, 15:39:43,-3.1494508,1.7483643,9.304651,0.009391556,-0.013673522,0.025205085,9.9775925510324,0.030173876463252813,stand
23/10/2020, 15:39:43,-3.1494508,1.7483643,9.304651,-0.008934394,-0.028334282,0.020318165,9.9775925510324,0.035992816033798065,stand
23/10/2020, 15:39:43,-3.2165112,1.8010547,9.261541,-0.008934394,-0.028334282,0.020318165,9.968244137944975,0.035992816033798065,stand
23/10/2020, 15:39:43,-3.2165112,1.8010547,9.261541,-0.026038613,-0.039329853,0.0142095145,9.968244137944975,0.04926212548737936,stand
23/10/2020, 15:39:43,-3.1614258,1.7938697,9.249566,-0.026038613,-0.039329853,0.0142095145,9.93816152658328,0.04926212548737936,stand
23/10/2020, 15:39:43,-3.1614258,1.7938697,9.249566,-0.032147266,-0.045438502,0.011766055,9.93816152658328,0.05689063380179458,stand
23/10/2020, 15:39:43,-3.1326857,1.6693287,9.259146,-0.032147266,-0.045438502,0.011766055,9.916257232433923,0.05689063380179458,stand
23/10/2020, 15:39:43,-3.1326857,1.6693287,9.259146,-0.023595154,-0.042995043,0.0142095145,9.916257232433923,0.05106089833421883,stand
23/10/2020, 15:39:43,-3.163821,1.6190332,9.18011,-0.023595154,-0.042995043,0.0142095145,9.844056631705708,0.05106089833421883,stand
23/10/2020, 15:39:43,-3.163821,1.6190332,9.18011,-3.8228463E-4,-0.030777743,0.019096434,9.844056631705708,0.03622277470022355,stand
23/10/2020, 15:39:43,-3.182981,1.7172291,9.163345,-3.8228463E-4,-0.030777743,0.019096434,9.851250772276812,0.03622277470022355,stand
23/10/2020, 15:39:43,-3.182981,1.7172291,9.163345,0.021608856,-0.025890823,0.027648546,9.851250772276812,0.04360870857213466,stand
23/10/2020, 15:39:43,-3.187771,1.7483643,9.14179,0.021608856,-0.025890823,0.027648546,9.838241399448362,0.04360870857213466,stand
23/10/2020, 15:39:43,-3.187771,1.7483643,9.14179,0.022830587,-0.023447363,0.031313736,9.838241399448362,0.04529420025714396,stand
23/10/2020, 15:39:43,-3.1901662,1.8274,9.11784,0.022830587,-0.023447363,0.031313736,9.83115222715932,0.04529420025714396,stand
23/10/2020, 15:39:44,-3.0752053,1.7747096,9.09868,0.036269616,0.027865298,-0.015112006,9.766905923424558,0.0481698311751489,stand
23/10/2020, 15:39:44,-3.1255007,1.8082398,9.065149,0.036269616,0.027865298,-0.015112006,9.757838781989944,0.0481698311751489,stand
23/10/2020, 15:39:44,-3.1255007,1.8082398,9.065149,0.024052314,0.02542184,-0.015112006,9.757838781989944,0.03812028945477289,stand
23/10/2020, 15:39:44,-3.166216,1.839375,9.096285,0.024052314,0.02542184,-0.015112006,9.805642351941756,0.03812028945477289,stand
23/10/2020, 15:39:44,-3.166216,1.839375,9.096285,0.014278475,0.019313188,-0.013890276,9.805642351941756,0.027745519547189065,stand
23/10/2020, 15:39:44,-3.163821,1.81782,9.134604,0.014278475,0.019313188,-0.013890276,9.836423695591138,0.027745519547189065,stand
23/10/2020, 15:39:44,-3.163821,1.81782,9.134604,0.004504635,0.013204537,-0.012668546,9.836423695591138,0.018845254248943368,stand
23/10/2020, 15:39:44,-3.171006,1.7459693,9.1202345,0.004504635,0.013204537,-0.012668546,9.812357756865394,0.018845254248943368,stand
23/10/2020, 15:39:44,-3.171006,1.7459693,9.1202345,0.004504635,0.009539349,-0.009003356,9.812357756865394,0.013869078446372883,stand
23/10/2020, 15:39:44,-3.2117214,1.7268091,9.13221,0.004504635,0.009539349,-0.009003356,9.833324957904098,0.013869078446372883,stand
23/10/2020, 15:39:44,-3.2117214,1.7268091,9.13221,0.008169825,0.010761078,-0.006559896,9.833324957904098,0.015019290465694892,stand
23/10/2020, 15:39:44,-3.1853762,1.7387843,9.110655,0.008169825,0.010761078,-0.006559896,9.806835558090025,0.015019290465694892,stand
23/10/2020, 15:39:44,-3.1853762,1.7387843,9.110655,0.011835015,0.008317618,-0.010225086,9.806835558090025,0.017714477907826685,stand
23/10/2020, 15:39:44,-3.1374757,1.7723145,9.144185,0.011835015,0.008317618,-0.010225086,9.82857941587334,0.017714477907826685,stand
23/10/2020, 15:39:44,-3.1374757,1.7723145,9.144185,0.008169825,0.0034306985,-0.013890276,9.82857941587334,0.016475906528614487,stand
23/10/2020, 15:39:44,-3.1111305,1.7363893,9.072334,0.008169825,0.0034306985,-0.013890276,9.746867703500316,0.016475906528614487,stand
23/10/2020, 15:39:44,-3.1111305,1.7363893,9.072334,0.019165397,0.0058741583,-0.019998927,9.746867703500316,0.02831563586666231,stand
23/10/2020, 15:39:44,-3.06323,1.6621436,9.129815,0.019165397,0.0058741583,-0.019998927,9.77239087229854,0.02831563586666231,stand
23/10/2020, 15:39:44,-3.06323,1.6621436,9.129815,0.033826157,0.015647998,-0.027329307,9.77239087229854,0.04621644507732546,stand
23/10/2020, 15:39:44,-3.1135256,1.6645386,9.086704,0.033826157,0.015647998,-0.027329307,9.748483208628457,0.04621644507732546,stand
23/10/2020, 15:39:44,-3.1135256,1.6645386,9.086704,0.044821728,0.024200108,-0.028551036,9.748483208628457,0.058393443210941615,stand
23/10/2020, 15:39:44,-3.151846,1.7411792,9.134604,0.044821728,0.024200108,-0.028551036,9.81869830549387,0.058393443210941615,stand
23/10/2020, 15:39:44,-3.151846,1.7411792,9.134604,0.043599997,0.02908703,-0.029772766,9.81869830549387,0.06027796101540985,stand
23/10/2020, 15:39:44,-3.2236965,1.8705103,9.081915,0.043599997,0.02908703,-0.029772766,9.816934661377793,0.06027796101540985,stand
23/10/2020, 15:39:44,-3.2236965,1.8705103,9.081915,0.022830587,0.02542184,-0.027329307,9.816934661377793,0.04375381845964501,stand
23/10/2020, 15:39:44,-3.2141163,1.9854712,9.029224,0.022830587,0.02542184,-0.027329307,9.78772359041335,0.04375381845964501,stand
23/10/2020, 15:39:44,-3.2141163,1.9854712,9.029224,-0.011377855,0.013204537,-0.019998927,9.78772359041335,0.026528710166993617,stand
23/10/2020, 15:39:44,-3.2404616,2.0166066,8.990904,-0.011377855,0.013204537,-0.019998927,9.767478972412748,0.026528710166993617,stand
23/10/2020, 15:39:44,-3.2404616,2.0166066,8.990904,-0.034590725,9.872383E-4,-0.019998927,9.767478972412748,0.03996811170583456,stand
23/10/2020, 15:39:44,-3.2308815,1.9854712,9.048384,-0.034590725,9.872383E-4,-0.019998927,9.810909175663463,0.03996811170583456,stand
23/10/2020, 15:39:45,-3.2811768,1.8250049,9.053174,0.044821728,0.010761078,-0.009003356,9.800853231143996,0.04696646179107539,stand
23/10/2020, 15:39:45,-3.290757,1.8226099,9.043594,0.044821728,0.010761078,-0.009003356,9.794773455831658,0.04696646179107539,stand
23/10/2020, 15:39:45,-3.290757,1.8226099,9.043594,0.04848692,0.015647998,-0.005338166,9.794773455831658,0.05122828414823311,stand
23/10/2020, 15:39:45,-3.2356715,1.8489552,9.038804,0.04848692,0.015647998,-0.005338166,9.776920991867119,0.05122828414823311,stand
23/10/2020, 15:39:45,-3.2356715,1.8489552,9.038804,0.046043456,0.015647998,-4.512458E-4,9.776920991867119,0.04863191616973306,stand
23/10/2020, 15:39:45,-3.2332766,1.9160157,9.010064,0.046043456,0.015647998,-4.512458E-4,9.762502213988446,0.04863191616973306,stand
23/10/2020, 15:39:45,-3.2332766,1.9160157,9.010064,0.027717505,0.013204537,0.0044356743,9.762502213988446,0.031020881299212672,stand
23/10/2020, 15:39:45,-3.2308815,1.9830762,9.0004835,0.027717505,0.013204537,0.0044356743,9.76626283179817,0.031020881299212672,stand
23/10/2020, 15:39:45,-3.2308815,1.9830762,9.0004835,8.394448E-4,0.009539349,0.0056574047,9.76626283179817,0.011122503068966939,stand
23/10/2020, 15:39:45,-3.2452517,1.9663111,8.959768,8.394448E-4,0.009539349,0.0056574047,9.730132863637639,0.011122503068966939,stand
23/10/2020, 15:39:45,-3.2452517,1.9663111,8.959768,-0.024816886,0.0022089682,0.006879134,9.730132863637639,0.025847240408936,stand
23/10/2020, 15:39:45,-3.1925611,1.8968556,8.978929,-0.024816886,0.0022089682,0.006879134,9.716566576035651,0.025847240408936,stand
23/10/2020, 15:39:45,-3.1925611,1.8968556,8.978929,-0.041921105,-0.0038996818,0.0032139444,9.716566576035651,0.042224590242857095,stand
23/10/2020, 15:39:45,-3.2165112,1.8154249,9.034014,-0.041921105,-0.0038996818,0.0032139444,9.7598727787574,0.042224590242857095,stand
23/10/2020, 15:39:45,-3.2165112,1.8154249,9.034014,-0.037034184,-0.0051214118,-0.0016729758,9.7598727787574,0.03742403601765479,stand
23/10/2020, 15:39:45,-3.2117214,1.6525636,9.06994,-0.037034184,-0.0051214118,-0.0016729758,9.762680238053623,0.03742403601765479,stand
23/10/2020, 15:39:45,-3.2117214,1.6525636,9.06994,-0.010156126,-2.3449166E-4,-0.0077816257,9.762680238053623,0.012796701752847027,stand
23/10/2020, 15:39:45,-3.1997461,1.6046631,9.211246,-0.010156126,-2.3449166E-4,-0.0077816257,9.882325810267945,0.012796701752847027,stand
23/10/2020, 15:39:45,-3.1997461,1.6046631,9.211246,0.032604426,0.011982808,-0.012668546,9.882325810267945,0.036974698839628166,stand
23/10/2020, 15:39:45,-3.171006,1.590293,9.187295,0.032604426,0.011982808,-0.012668546,9.848385628732284,0.036974698839628166,stand
23/10/2020, 15:39:45,-3.171006,1.590293,9.187295,0.065591134,0.02542184,-0.013890276,9.848385628732284,0.07170360203765583,stand
23/10/2020, 15:39:45,-3.2332766,1.6645386,9.16095,0.065591134,0.02542184,-0.013890276,9.856356627421741,0.07170360203765583,stand
23/10/2020, 15:39:45,-3.2332766,1.6645386,9.16095,0.081473626,0.030308757,-0.016333736,9.856356627421741,0.08844977932404945,stand
23/10/2020, 15:39:45,-3.2236965,1.8226099,9.060359,0.081473626,0.030308757,-0.016333736,9.787963578551464,0.08844977932404945,stand
23/10/2020, 15:39:45,-3.2236965,1.8226099,9.060359,0.0680346,0.02542184,-0.019998927,9.787963578551464,0.07533215336329827,stand
23/10/2020, 15:39:45,-3.2428565,1.954336,8.976534,0.0680346,0.02542184,-0.019998927,9.7423666711686,0.07533215336329827,stand
23/10/2020, 15:39:45,-3.2428565,1.954336,8.976534,0.038713075,0.011982808,-0.022442386,9.7423666711686,0.04632440552583192,stand
23/10/2020, 15:39:45,-3.3314724,2.0094216,8.974138,0.038713075,0.011982808,-0.022442386,9.781188115603358,0.04632440552583192,stand
23/10/2020, 15:39:45,-3.3314724,2.0094216,8.974138,0.003282905,0.004652428,-0.021220656,9.781188115603358,0.02197131761442847,stand
23/10/2020, 15:39:45,-3.2356715,1.9447559,8.978929,0.003282905,0.004652428,-0.021220656,9.74026713886165,0.02197131761442847,stand
23/10/2020, 15:39:46,-3.3362625,2.1579127,9.196876,-0.011377855,-0.011230063,7.704842E-4,10.018470685596135,0.016005109904794725,stand
23/10/2020, 15:39:46,-3.3458424,2.083667,9.216036,-0.011377855,-0.011230063,7.704842E-4,10.023554564038399,0.016005109904794725,stand
23/10/2020, 15:39:46,-3.3458424,2.083667,9.216036,-0.023595154,-0.027112553,0.011766055,10.023554564038399,0.037818803163753724,stand
23/10/2020, 15:39:46,-3.3817677,2.071692,9.182506,-0.023595154,-0.027112553,0.011766055,10.002333230211963,0.037818803163753724,stand
23/10/2020, 15:39:46,-3.3817677,2.071692,9.182506,-0.019929964,-0.035664663,0.017874705,10.002333230211963,0.044594581541534666,stand
23/10/2020, 15:39:46,-3.3482375,2.0070264,9.153765,-0.019929964,-0.035664663,0.017874705,9.951394786449178,0.044594581541534666,stand
23/10/2020, 15:39:46,-3.3482375,2.0070264,9.153765,-0.013821316,-0.042995043,0.027648546,9.951394786449178,0.0529532302193088,stand
23/10/2020, 15:39:46,-3.290757,1.9687061,9.125025,-0.013821316,-0.042995043,0.027648546,9.8980282174249,0.0529532302193088,stand
23/10/2020, 15:39:46,-3.290757,1.9687061,9.125025,-0.007712665,-0.042995043,0.033757195,9.8980282174249,0.05520513688632411,stand
23/10/2020, 15:39:46,-3.2236965,1.9854712,9.045989,-0.007712665,-0.042995043,0.033757195,9.806336352637455,0.05520513688632411,stand
23/10/2020, 15:39:46,-3.2236965,1.9854712,9.045989,-0.008934394,-0.04177331,0.036200654,9.806336352637455,0.0559939310577033,stand
23/10/2020, 15:39:46,-3.2189064,1.947151,9.022039,-0.008934394,-0.04177331,0.036200654,9.774965494143874,0.0559939310577033,stand
23/10/2020, 15:39:46,-3.2189064,1.947151,9.022039,-0.008934394,-0.040551584,0.033757195,9.774965494143874,0.05351450824316503,stand
23/10/2020, 15:39:46,-3.2093263,1.8561403,9.022039,-0.008934394,-0.040551584,0.033757195,9.754087702967041,0.05351450824316503,stand
23/10/2020, 15:39:46,-3.2093263,1.8561403,9.022039,-0.007712665,-0.03810812,0.030092005,9.754087702967041,0.049165464300056874,stand
23/10/2020, 15:39:46,-3.2093263,1.83219,9.026829,-0.007712665,-0.03810812,0.030092005,9.753990618653864,0.049165464300056874,stand
23/10/2020, 15:39:46,-3.2093263,1.83219,9.026829,-3.8228463E-4,-0.03444293,0.026426814,9.753990618653864,0.04341472319778182,stand
23/10/2020, 15:39:46,-3.180586,1.7459693,9.060359,-3.8228463E-4,-0.03444293,0.026426814,9.759848459266937,0.04341472319778182,stand
23/10/2020, 15:39:46,-3.180586,1.7459693,9.060359,0.013056746,-0.028334282,0.021539895,9.759848459266937,0.03791143938240305,stand
23/10/2020, 15:39:46,-3.1494508,1.7028589,9.012459,0.013056746,-0.028334282,0.021539895,9.697586419912671,0.03791143938240305,stand
23/10/2020, 15:39:46,-3.1494508,1.7028589,9.012459,0.021608856,-0.021003902,0.016652975,9.697586419912671,0.03443004677333347,stand
23/10/2020, 15:39:46,-3.182981,1.6860938,9.017249,0.021608856,-0.021003902,0.016652975,9.710049532728135,0.03443004677333347,stand
23/10/2020, 15:39:46,-3.182981,1.6860938,9.017249,0.025274046,-0.014895253,0.011766055,9.710049532728135,0.031608321534879864,stand
23/10/2020, 15:39:46,-3.182981,1.6860938,9.017249,0.026495777,-0.010008331,0.0044356743,9.710049532728135,0.028668242117912652,stand
23/10/2020, 15:39:46,-3.1566358,1.7268091,9.002879,0.026495777,-0.010008331,0.0044356743,9.695259254311267,0.028668242117912652,stand
23/10/2020, 15:39:46,-3.171006,1.7028589,9.019644,0.026495777,-0.010008331,0.0044356743,9.711281137212016,0.028668242117912652,stand
23/10/2020, 15:39:46,-3.171006,1.7028589,9.019644,0.017943665,-0.006343142,-4.512458E-4,9.711281137212016,0.01903717947371085,stand
23/10/2020, 15:39:46,-3.178191,1.7124391,9.048384,0.017943665,-0.006343142,-4.512458E-4,9.742001490522817,0.01903717947371085,stand
23/10/2020, 15:39:46,-3.178191,1.7124391,9.048384,0.019165397,-0.0014562218,-0.0077816257,9.742001490522817,0.020736120928334968,stand
23/10/2020, 15:39:46,-3.178191,1.6453785,9.086704,0.019165397,-0.0014562218,-0.0077816257,9.76608223425524,0.020736120928334968,stand
23/10/2020, 15:39:47,-3.412903,1.8154249,8.804092,0.021608856,0.17691636,-0.14583713,9.61538964994465,0.23029287728486014,stand
23/10/2020, 15:39:47,-3.4536183,1.8369801,8.820857,0.021608856,0.17691636,-0.14583713,9.649326103178412,0.23029287728486014,stand
23/10/2020, 15:39:47,-3.4536183,1.8369801,8.820857,-0.005269205,0.1659208,-0.13728501,9.649326103178412,0.21541738117383152,stand
23/10/2020, 15:39:47,-3.4943337,1.7675245,8.878338,-0.005269205,0.1659208,-0.13728501,9.703576364584029,0.21541738117383152,stand
23/10/2020, 15:39:47,-3.4943337,1.7675245,8.878338,-0.030925535,0.15248176,-0.13728501,9.703576364584029,0.20749518288279742,stand
23/10/2020, 15:39:47,-3.5637891,1.707649,8.978929,-0.030925535,0.15248176,-0.13728501,9.810087473233008,0.20749518288279742,stand
23/10/2020, 15:39:47,-3.5637891,1.707649,8.978929,-0.035812456,0.14759484,-0.1360633,9.810087473233008,0.2039117167151889,stand
23/10/2020, 15:39:47,-3.539839,1.6453785,9.002879,-0.035812456,0.14759484,-0.1360633,9.812724571877633,0.2039117167151889,stand
23/10/2020, 15:39:47,-3.539839,1.6453785,9.002879,-0.034590725,0.14637311,-0.13361983,9.812724571877633,0.20118614259619888,stand
23/10/2020, 15:39:47,-3.4608033,1.5998731,9.081915,-0.034590725,0.14637311,-0.13361983,9.849768087902902,0.20118614259619888,stand
23/10/2020, 15:39:47,-3.4608033,1.5998731,9.081915,-0.035812456,0.14637311,-0.1360633,9.849768087902902,0.20302915645231465,stand
23/10/2020, 15:39:47,-3.403323,1.6070582,9.041199,-0.035812456,0.14637311,-0.1360633,9.793289408468906,0.20302915645231465,stand
23/10/2020, 15:39:47,-3.403323,1.6070582,9.041199,-0.027260344,0.14881657,-0.13728501,9.793289408468906,0.20429555007701752,stand
23/10/2020, 15:39:47,-3.4464333,1.6334034,9.0004835,-0.027260344,0.14881657,-0.13728501,9.775203973853683,0.20429555007701752,stand
23/10/2020, 15:39:47,-3.4464333,1.6334034,9.0004835,-0.018708237,0.1537035,-0.13850674,9.775203973853683,0.20774715369996163,stand
23/10/2020, 15:39:47,-3.4727786,1.698069,9.002879,-0.018708237,0.1537035,-0.13850674,9.797727390868118,0.20774715369996163,stand
23/10/2020, 15:39:47,-3.4727786,1.698069,9.002879,-0.015043045,0.15614696,-0.13728501,9.797727390868118,0.20845944343608627,stand
23/10/2020, 15:39:47,-3.4991236,1.7938697,9.036409,-0.015043045,0.15614696,-0.13728501,9.854873355394739,0.20845944343608627,stand
23/10/2020, 15:39:47,-3.4991236,1.7938697,9.036409,-0.024816886,0.15126003,-0.1446154,9.854873355394739,0.21073463995590555,stand
23/10/2020, 15:39:47,-3.5853443,1.84177,8.986114,-0.024816886,0.15126003,-0.1446154,9.8487079093865,0.21073463995590555,stand
23/10/2020, 15:39:47,-3.5853443,1.84177,8.986114,-0.044364564,0.14392966,-0.14828059,9.8487079093865,0.21135537672228125,stand
23/10/2020, 15:39:47,-3.6164796,1.8776954,9.012459,-0.044364564,0.14392966,-0.14828059,9.890858343276008,0.21135537672228125,stand
23/10/2020, 15:39:47,-3.6164796,1.8776954,9.012459,-0.06513398,0.13415581,-0.14705886,9.890858343276008,0.209443369448981,stand
23/10/2020, 15:39:47,-3.5853443,1.8992506,9.029224,-0.06513398,0.13415581,-0.14705886,9.898926203654755,0.209443369448981,stand
23/10/2020, 15:39:47,-3.5853443,1.8992506,9.029224,-0.07979474,0.12316024,-0.14217193,9.898926203654755,0.20432450961477622,stand
23/10/2020, 15:39:47,-3.5733693,1.8657203,9.079519,-0.07979474,0.12316024,-0.14217193,9.934160771937632,0.20432450961477622,stand
23/10/2020, 15:39:47,-3.5733693,1.8657203,9.079519,-0.07735128,0.11949506,-0.13728501,9.934160771937632,0.19776112534329549,stand
23/10/2020, 15:39:47,-3.5733693,1.7603394,9.096285,-0.07735128,0.11949506,-0.13728501,9.930264900849197,0.19776112534329549,stand
23/10/2020, 15:39:47,-3.5733693,1.7603394,9.096285,-0.06635571,0.11949506,-0.1287329,9.930264900849197,0.18776131105795335,stand
23/10/2020, 15:39:47,-3.6092947,1.7292042,9.14658,-0.06635571,0.11949506,-0.1287329,9.983840742174825,0.18776131105795335,stand
23/10/2020, 15:39:48,-2.8836036,1.3699512,9.297466,-0.05902533,0.04985644,0.0704091,9.830300869233369,0.1045327453914844,stand
23/10/2020, 15:39:48,-2.924319,1.5280225,9.311836,-0.05902533,0.04985644,0.0704091,9.879108706663395,0.1045327453914844,stand
23/10/2020, 15:39:48,-2.924319,1.5280225,9.311836,-0.11033799,0.03519568,0.061856985,9.879108706663395,0.13129925316880214,stand
23/10/2020, 15:39:48,-2.9410841,1.6142433,9.287886,-0.11033799,0.03519568,0.061856985,9.87525075281163,0.13129925316880214,stand
23/10/2020, 15:39:48,-2.9410841,1.6142433,9.287886,-0.17020275,0.019313188,0.056970067,9.87525075281163,0.1805202561871709,stand
23/10/2020, 15:39:48,-2.926714,1.6166383,9.244776,-0.17020275,0.019313188,0.056970067,9.830821582419663,0.1805202561871709,stand
23/10/2020, 15:39:48,-2.926714,1.6166383,9.244776,-0.20318946,0.0022089682,0.054526605,9.830821582419663,0.21039008484628263,stand
23/10/2020, 15:39:48,-2.9865894,1.5160475,9.3453665,-0.20318946,0.0022089682,0.054526605,9.927436275097453,0.21039008484628263,stand
23/10/2020, 15:39:48,-2.9865894,1.5160475,9.3453665,-0.19585909,-0.006343142,0.054526605,9.927436275097453,0.2034064133964706,stand
23/10/2020, 15:39:48,-3.0296998,1.223855,9.323812,-0.19585909,-0.006343142,0.054526605,9.879795719856837,0.2034064133964706,stand
23/10/2020, 15:39:48,-3.0296998,1.223855,9.323812,-0.14210296,-0.010008331,0.052083146,9.879795719856837,0.15167752338339865,stand
23/10/2020, 15:39:48,-3.04886,1.0466236,9.527389,-0.14210296,-0.010008331,0.052083146,10.057937248486727,0.15167752338339865,stand
23/10/2020, 15:39:48,-3.04886,1.0466236,9.527389,-0.06879917,0.0070958887,0.038644116,10.057937248486727,0.07922780362180207,stand
23/10/2020, 15:39:48,-3.0177248,0.93405765,9.522598,-0.06879917,0.0070958887,0.038644116,10.032896098710658,0.07922780362180207,stand
23/10/2020, 15:39:48,-3.0177248,0.93405765,9.522598,0.0069480953,0.022978378,0.037422385,10.032896098710658,0.04446028349837213,stand
23/10/2020, 15:39:48,-3.046465,0.99393314,9.623189,0.0069480953,0.022978378,0.037422385,10.142712536507455,0.04446028349837213,stand
23/10/2020, 15:39:48,-3.046465,0.99393314,9.623189,0.060704216,0.033973947,0.043531034,10.142712536507455,0.08206206129262439,stand
23/10/2020, 15:39:48,-3.1326857,1.219065,9.508228,0.060704216,0.033973947,0.043531034,10.084951375699486,0.08206206129262439,stand
23/10/2020, 15:39:48,-3.1326857,1.219065,9.508228,0.06314768,0.030308757,0.050861415,10.084951375699486,0.08656288809959646,stand
23/10/2020, 15:39:48,-3.2260914,1.4968873,9.433982,0.06314768,0.030308757,0.050861415,10.082080722485996,0.08656288809959646,stand
23/10/2020, 15:39:48,-3.2260914,1.4968873,9.433982,0.015500206,0.011982808,0.053304877,10.082080722485996,0.05679131961554888,stand
23/10/2020, 15:39:48,-3.2548318,1.6669337,9.369317,0.015500206,0.011982808,0.053304877,10.057668709608931,0.05679131961554888,stand
23/10/2020, 15:39:48,-3.2548318,1.6669337,9.369317,-0.052916676,-0.014895253,0.047196224,10.057668709608931,0.07245361777031177,stand
23/10/2020, 15:39:48,-3.2260914,1.6765138,9.259146,-0.052916676,-0.014895253,0.047196224,9.947368691703717,0.07245361777031177,stand
23/10/2020, 15:39:48,-3.2260914,1.6765138,9.259146,-0.124998756,-0.039329853,0.041087575,9.947368691703717,0.13733067796426696,stand
23/10/2020, 15:39:48,-3.2141163,1.6094532,9.223221,-0.124998756,-0.039329853,0.041087575,9.898923467319076,0.13733067796426696,stand
23/10/2020, 15:39:48,-3.2141163,1.6094532,9.223221,-0.17020275,-0.055212345,0.034978926,9.898923467319076,0.1823208803083937,stand
23/10/2020, 15:39:48,-3.1350808,1.5040723,9.220825,-0.17020275,-0.055212345,0.034978926,9.854673130266965,0.1823208803083937,stand
23/10/2020, 15:39:48,-3.1350808,1.5040723,9.220825,-0.17020275,-0.064986184,0.032535464,9.854673130266965,0.18506954264235004,stand
23/10/2020, 15:39:48,-3.1183155,1.3124708,9.321417,-0.17020275,-0.064986184,0.032535464,9.91641482915451,0.18506954264235004,stand
23/10/2020, 15:39:49,-3.4871485,1.5687379,9.029224,0.009391556,-0.024669092,0.034978926,9.805510517056613,0.043821121621317585,stand
23/10/2020, 15:39:49,-3.403323,1.5208374,9.072334,0.009391556,-0.024669092,0.034978926,9.808302755260625,0.043821121621317585,stand
23/10/2020, 15:39:49,-3.403323,1.5208374,9.072334,-0.028482076,-0.025890823,0.031313736,9.808302755260625,0.049619688044578725,stand
23/10/2020, 15:39:49,-3.283572,1.4489869,9.0004835,-0.028482076,-0.025890823,0.031313736,9.689690979278806,0.049619688044578725,stand
23/10/2020, 15:39:49,-3.283572,1.4489869,9.0004835,-0.054138403,-0.028334282,0.030092005,9.689690979278806,0.06811260546238553,stand
23/10/2020, 15:39:49,-3.2236965,1.463357,9.067544,-0.054138403,-0.028334282,0.030092005,9.734165935049857,0.06811260546238553,stand
23/10/2020, 15:39:49,-3.2236965,1.463357,9.067544,-0.051694945,-0.024669092,0.026426814,9.734165935049857,0.0630817558317786,stand
23/10/2020, 15:39:49,-3.1997461,1.2765454,9.163345,-0.051694945,-0.024669092,0.026426814,9.789527120558542,0.0630817558317786,stand
23/10/2020, 15:39:49,-3.1997461,1.2765454,9.163345,-0.027260344,-0.022225633,0.020318165,9.789527120558542,0.040619367313951577,stand
23/10/2020, 15:39:49,-3.2380664,1.1136842,9.223221,-0.027260344,-0.022225633,0.020318165,9.838351949075268,0.040619367313951577,stand
23/10/2020, 15:39:49,-3.2380664,1.1136842,9.223221,0.019165397,-0.017338712,0.011766055,9.838351949075268,0.02839689064890412,stand
23/10/2020, 15:39:49,-3.2452517,1.0035132,9.319021,0.019165397,-0.017338712,0.011766055,9.918813118323149,0.02839689064890412,stand
23/10/2020, 15:39:49,-3.2452517,1.0035132,9.319021,0.07780843,-0.0051214118,7.704842E-4,9.918813118323149,0.07798060424441754,stand
23/10/2020, 15:39:49,-3.2524366,1.0059083,9.395662,0.07780843,-0.0051214118,7.704842E-4,9.993431127172045,0.07798060424441754,stand
23/10/2020, 15:39:49,-3.2524366,1.0059083,9.395662,0.12056898,0.0058741583,-0.0028947059,9.993431127172045,0.12074669677430515,stand
23/10/2020, 15:39:49,-3.3123121,1.1328443,9.311836,0.12056898,0.0058741583,-0.0028947059,9.948117515640376,0.12074669677430515,stand
23/10/2020, 15:39:49,-3.3123121,1.1328443,9.311836,0.13400802,0.0058741583,-0.006559896,9.948117515640376,0.1342970120193867,stand
23/10/2020, 15:39:49,-3.3482375,1.3268409,9.211246,0.13400802,0.0058741583,-0.006559896,9.890310688095953,0.1342970120193867,stand
23/10/2020, 15:39:49,-3.3482375,1.3268409,9.211246,0.11201687,0.0022089682,-0.018777195,9.890310688095953,0.11360124173066258,stand
23/10/2020, 15:39:49,-3.288362,1.5423926,9.048384,0.11201687,0.0022089682,-0.018777195,9.750156285771338,0.11360124173066258,stand
23/10/2020, 15:39:49,-3.288362,1.5423926,9.048384,0.058260757,-0.0051214118,-0.030994497,9.750156285771338,0.06619066081551157,stand
23/10/2020, 15:39:49,-3.2859669,1.5998731,9.060359,0.058260757,-0.0051214118,-0.030994497,9.769712244923396,0.06619066081551157,stand
23/10/2020, 15:39:49,-3.2859669,1.5998731,9.060359,-0.0028257454,-0.016116982,-0.037103146,9.769712244923396,0.04055102246181351,stand
23/10/2020, 15:39:49,-3.297942,1.6046631,9.0148535,-0.0028257454,-0.016116982,-0.037103146,9.732365998112424,0.04055102246181351,stand
23/10/2020, 15:39:49,-3.297942,1.6046631,9.0148535,-0.050473217,-0.023447363,-0.041990068,9.732365998112424,0.06971721623032999,stand
23/10/2020, 15:39:49,-3.2548318,1.5208374,9.125025,-0.050473217,-0.023447363,-0.041990068,9.806781020455938,0.06971721623032999,stand
23/10/2020, 15:39:49,-3.2548318,1.5208374,9.125025,-0.06391225,-0.024669092,-0.04932045,9.806781020455938,0.08441472875119799,stand
23/10/2020, 15:39:49,-3.2356715,1.4082716,9.148975,-0.06391225,-0.024669092,-0.04932045,9.805944590491658,0.08441472875119799,stand
23/10/2020, 15:39:49,-3.2356715,1.4082716,9.148975,-0.043142837,-0.023447363,-0.051763907,9.805944590491658,0.07134833732000789,stand
23/10/2020, 15:39:49,-3.2189064,1.2454102,9.196876,-0.043142837,-0.023447363,-0.051763907,9.823183053129828,0.07134833732000789,stand
23/10/2020, 15:39:50,-4.4403663,-2.3327491,6.861731,-2.5501328,0.33207607,1.4143121,8.499524935349399,2.934915731832157,stand
23/10/2020, 15:39:50,-4.5577226,-3.319497,7.2760696,-2.5501328,0.33207607,1.4143121,9.205057603672257,2.934915731832157,stand
23/10/2020, 15:39:50,-4.5577226,-3.319497,7.2760696,-2.3082302,0.36506277,1.5083853,9.205057603672257,2.7814427052882094,stand
23/10/2020, 15:39:50,-4.7636943,-4.0691385,7.781419,-2.3082302,0.36506277,1.5083853,9.990052559997302,2.7814427052882094,stand
23/10/2020, 15:39:50,-4.7636943,-4.0691385,7.781419,-2.019902,0.42126235,1.5939064,9.990052559997302,2.6072981501209513,stand
23/10/2020, 15:39:50,-4.91937,-4.423601,7.7454934,-2.019902,0.42126235,1.5939064,10.186320152404564,2.6072981501209513,stand
23/10/2020, 15:39:50,-4.91937,-4.423601,7.7454934,-1.7914386,0.48723578,1.6598798,10.186320152404564,2.490351753598453,stand
23/10/2020, 15:39:50,-4.998406,-4.26553,7.6520877,-1.7914386,0.48723578,1.6598798,10.086290446976145,2.490351753598453,stand
23/10/2020, 15:39:50,-4.998406,-4.26553,7.6520877,-1.6301702,0.5422136,1.7185229,10.086290446976145,2.429973570618981,stand
23/10/2020, 15:39:50,-5.005591,-3.796106,7.443721,-1.6301702,0.5422136,1.7185229,9.740397401958734,2.429973570618981,stand
23/10/2020, 15:39:50,-5.005591,-3.796106,7.443721,-1.5641968,0.5886394,1.7625052,9.740397401958734,2.4289159130490536,stand
23/10/2020, 15:39:50,-4.9529004,-3.3482375,7.0509377,-1.5641968,0.5886394,1.7625052,9.244330084032613,2.4289159130490536,stand
23/10/2020, 15:39:50,-4.9529004,-3.3482375,7.0509377,-1.5996269,0.626513,1.8003788,9.244330084032613,2.4885113182950587,stand
23/10/2020, 15:39:50,-4.912185,-2.9985645,6.67971,-1.5996269,0.626513,1.8003788,8.816999308859591,2.4885113182950587,stand
23/10/2020, 15:39:50,-4.912185,-2.9985645,6.67971,-1.7010305,0.671717,1.8468045,8.816999308859591,2.599114331709917,stand
23/10/2020, 15:39:50,-4.9241605,-2.7710378,6.337222,-1.7010305,0.671717,1.8468045,8.490370484076173,2.599114331709917,stand
23/10/2020, 15:39:50,-4.9241605,-2.7710378,6.337222,-1.8366426,0.7266949,1.8883433,8.490370484076173,2.7326145215967013,stand
23/10/2020, 15:39:50,-5.000801,-2.572251,5.999524,-1.8366426,0.7266949,1.8883433,8.223063708664927,2.7326145215967013,stand
23/10/2020, 15:39:50,-5.000801,-2.572251,5.999524,-1.993024,0.7853379,1.9433212,8.223063708664927,2.8922997221433366,stand
23/10/2020, 15:39:50,-5.0750465,-2.3375392,5.743257,-1.993024,0.7853379,1.9433212,8.012814010230196,2.8922997221433366,stand
23/10/2020, 15:39:50,-5.0750465,-2.3375392,5.743257,-2.1750617,0.8500896,2.011738,8.012814010230196,3.082310137669639,stand
23/10/2020, 15:39:50,-5.1780324,-2.1483326,5.278623,-2.1750617,0.8500896,2.011738,7.700078852481416,3.082310137669639,stand
23/10/2020, 15:39:50,-5.1780324,-2.1483326,5.278623,-2.3693168,0.916063,2.0923722,7.700078852481416,3.2910264282268527,stand
23/10/2020, 15:39:50,-5.2977834,-2.0237916,5.257068,-2.3693168,0.916063,2.0923722,7.732981736681813,3.2910264282268527,stand
23/10/2020, 15:39:50,-5.2977834,-2.0237916,5.257068,-2.49882,0.9808147,2.1754498,7.732981736681813,3.455239678091652,stand
23/10/2020, 15:39:50,-5.5684204,-2.2848487,5.000801,-2.49882,0.9808147,2.1754498,7.825333916618977,3.455239678091652,stand
23/10/2020, 15:39:50,-5.5684204,-2.2848487,5.000801,-2.5794542,1.0138015,2.2597492,7.825333916618977,3.576009452766742,stand
23/10/2020, 15:39:50,-5.9468336,-2.9003687,4.9241605,-2.5794542,1.0138015,2.2597492,8.247686037300065,3.576009452766742,stand
23/10/2020, 15:39:50,-5.9468336,-2.9003687,4.9241605,-2.594115,1.0272404,2.3526008,8.247686037300065,3.6495734197506846,stand
23/10/2020, 15:39:50,-6.3851223,-3.4416432,5.388794,-2.594115,1.0272404,2.3526008,9.036248952903081,3.6495734197506846,stand
23/10/2020, 15:39:51,-8.298743,-2.1124072,4.2751102,-0.30825824,-0.15172902,-0.86787957,9.571205321745891,0.9334129748853487,stand
23/10/2020, 15:39:51,-8.298743,-2.1124072,4.2751102,-0.28138018,-0.13584653,-0.91308355,9.571205321745891,0.9650651053460224,stand
23/10/2020, 15:39:51,-8.231683,-2.0166066,4.1553593,-0.28138018,-0.13584653,-0.91308355,9.438978443181584,0.9650651053460224,stand
23/10/2020, 15:39:51,-8.231683,-2.0166066,4.1553593,-0.26794115,-0.10163808,-0.9424051,9.438978443181584,0.9850127606225363,stand
23/10/2020, 15:39:51,-8.4304695,-2.0166066,3.8607717,-0.26794115,-0.10163808,-0.9424051,9.489208399226971,0.9850127606225363,stand
23/10/2020, 15:39:51,-8.4304695,-2.0166066,3.8607717,-0.25572386,-0.045438502,-0.9436268,9.489208399226971,0.9787190247399896,stand
23/10/2020, 15:39:51,-8.907078,-2.1459377,3.5973196,-0.25572386,-0.045438502,-0.9436268,9.842854850206383,0.9787190247399896,stand
23/10/2020, 15:39:51,-8.907078,-2.1459377,3.5973196,-0.22762406,0.026643569,-0.91674876,9.842854850206383,0.9449607847569004,stand
23/10/2020, 15:39:51,-9.702225,-2.4788454,3.532654,-0.22762406,0.026643569,-0.91674876,10.61873267691106,0.9449607847569004,stand
23/10/2020, 15:39:51,-9.702225,-2.4788454,3.532654,-0.17142448,0.09139527,-0.8739882,10.61873267691106,0.8953182896085535,stand
23/10/2020, 15:39:51,-10.645863,-2.8093581,3.7146754,-0.17142448,0.09139527,-0.8739882,11.620055792836881,0.8953182896085535,stand
23/10/2020, 15:39:51,-10.645863,-2.8093581,3.7146754,-0.06269052,0.117051594,-0.825119,11.620055792836881,0.8357347495324329,stand
23/10/2020, 15:39:51,-11.5823145,-3.0416749,4.009263,-0.06269052,0.117051594,-0.825119,12.628380141381673,0.8357347495324329,stand
23/10/2020, 15:39:51,-11.5823145,-3.0416749,4.009263,0.0643694,0.09139527,-0.7860237,12.628380141381673,0.7939330794130286,stand
23/10/2020, 15:39:51,-12.121195,-3.1350808,4.138594,0.0643694,0.09139527,-0.7860237,13.186358769276127,0.7939330794130286,stand
23/10/2020, 15:39:51,-12.121195,-3.1350808,4.138594,0.13278629,0.013204537,-0.7762498,13.186358769276127,0.7876359251640218,stand
23/10/2020, 15:39:51,-12.046948,-3.056045,4.0978785,0.13278629,0.013204537,-0.7762498,13.08667206615792,0.7876359251640218,stand
23/10/2020, 15:39:51,-12.046948,-3.056045,4.0978785,0.121790715,-0.11263365,-0.8043496,13.08667206615792,0.8212780278319282,stand
23/10/2020, 15:39:51,-11.2374325,-2.8141482,3.8751419,0.121790715,-0.11263365,-0.8043496,12.215401884062423,0.8212780278319282,stand
23/10/2020, 15:39:51,-11.2374325,-2.8141482,3.8751419,0.0643694,-0.2409153,-0.85932744,12.215401884062423,0.8947777614832243,stand
23/10/2020, 15:39:51,-9.948912,-2.548301,3.5685792,0.0643694,-0.2409153,-0.85932744,10.872416416435188,0.8947777614832243,stand
23/10/2020, 15:39:51,-9.948912,-2.548301,3.5685792,0.004504635,-0.32032776,-0.9301878,10.872416416435188,0.9838086947401433,stand
23/10/2020, 15:39:51,-8.749006,-2.4812403,3.1949563,0.004504635,-0.32032776,-0.9301878,9.638952733680094,0.9838086947401433,stand
23/10/2020, 15:39:51,-8.749006,-2.4812403,3.1949563,-0.010156126,-0.33987546,-1.0071568,9.638952733680094,1.063006770099936,stand
23/10/2020, 15:39:51,-8.035291,-2.6177564,2.8093581,-0.010156126,-0.33987546,-1.0071568,8.905674503697371,1.063006770099936,stand
23/10/2020, 15:39:51,-8.035291,-2.6177564,2.8093581,0.031382695,-0.31177565,-1.0780171,8.905674503697371,1.122635218501366,stand
23/10/2020, 15:39:51,-7.678433,-2.8500733,2.5075855,0.031382695,-0.31177565,-1.0780171,8.565584371970402,1.122635218501366,stand
23/10/2020, 15:39:51,-7.678433,-2.8500733,2.5075855,0.13889495,-0.24946742,-1.1378819,8.565584371970402,1.173158539940871,stand
23/10/2020, 15:39:51,-7.6137676,-3.0943654,2.1818628,0.13889495,-0.24946742,-1.1378819,8.503239371883282,1.173158539940871,stand
23/10/2020, 15:39:51,-7.6137676,-3.0943654,2.1818628,0.30993715,-0.16028112,-1.1855294,8.503239371883282,1.2358118453588829,stand
23/10/2020, 15:39:52,-8.341853,-2.9746144,2.543511,-1.1964561,-0.33498853,0.24267302,9.214352518127573,1.2659441748244589,stand
23/10/2020, 15:39:52,-8.341853,-2.9746144,2.543511,-1.2013429,-0.38996637,0.19380382,9.214352518127573,1.2778335370761518,stand
23/10/2020, 15:39:52,-7.92512,-2.8907888,2.4956105,-1.2013429,-0.38996637,0.19380382,8.79728688615112,1.2778335370761518,stand
23/10/2020, 15:39:52,-7.92512,-2.8907888,2.4956105,-1.2025647,-0.40829232,0.15470846,8.79728688615112,1.2793745447985,stand
23/10/2020, 15:39:52,-7.783814,-2.8788135,2.3878345,-1.2025647,-0.40829232,0.15470846,8.635802261044674,1.2793745447985,stand
23/10/2020, 15:39:52,-7.783814,-2.8788135,2.3878345,-1.1793518,-0.3618666,0.13393904,8.635802261044674,1.240869768498351,stand
23/10/2020, 15:39:52,-8.1143265,-3.03928,2.3064039,-1.1793518,-0.3618666,0.13393904,8.966549813187637,1.240869768498351,stand
23/10/2020, 15:39:52,-8.1143265,-3.03928,2.3064039,-1.1133784,-0.26657164,0.13882597,8.966549813187637,1.1532322242835125,stand
23/10/2020, 15:39:52,-9.266331,-3.3099172,2.44771,-1.1133784,-0.26657164,0.13882597,10.139611499822749,1.1532322242835125,stand
23/10/2020, 15:39:52,-9.266331,-3.3099172,2.44771,-1.010753,-0.18960264,0.17792132,10.139611499822749,1.043660317857564,stand
23/10/2020, 15:39:52,-10.698553,-3.432063,2.6177564,-1.010753,-0.18960264,0.17792132,11.536496160281251,1.043660317857564,stand
23/10/2020, 15:39:52,-10.698553,-3.432063,2.6177564,-0.9362275,-0.18105054,0.21579497,11.536496160281251,0.9776853775345811,stand
23/10/2020, 15:39:52,-11.845767,-3.4009278,2.5578809,-0.9362275,-0.18105054,0.21579497,12.586948029096169,0.9776853775345811,stand
23/10/2020, 15:39:52,-11.845767,-3.4009278,2.5578809,-0.9508882,-0.2531326,0.20968631,12.586948029096169,1.006097841914555,stand
23/10/2020, 15:39:52,-12.25771,-3.178191,2.5770411,-0.9508882,-0.2531326,0.20968631,12.922596659386947,1.006097841914555,stand
23/10/2020, 15:39:52,-12.25771,-3.178191,2.5770411,-1.0706178,-0.40584886,0.16326056,12.922596659386947,1.1565421620245508,stand
23/10/2020, 15:39:52,-11.752361,-2.8261232,2.560276,-1.0706178,-0.40584886,0.16326056,12.35556481837648,1.1565421620245508,stand
23/10/2020, 15:39:52,-11.752361,-2.8261232,2.560276,-1.259986,-0.5939953,0.10095235,12.35556481837648,1.3966340214481967,stand
23/10/2020, 15:39:52,-10.41115,-2.44771,2.5075855,-1.259986,-0.5939953,0.10095235,10.98504954343912,1.3966340214481967,stand
23/10/2020, 15:39:52,-10.41115,-2.44771,2.5075855,-1.4517976,-0.7381594,0.027648546,10.98504954343912,1.6289137648237486,stand
23/10/2020, 15:39:52,-8.8879175,-2.3016138,2.5411158,-1.4517976,-0.7381594,0.027648546,9.526267540186652,1.6289137648237486,stand
23/10/2020, 15:39:52,-8.8879175,-2.3016138,2.5411158,-1.6094007,-0.77847654,-0.04932045,9.526267540186652,1.7884711335901784,stand
23/10/2020, 15:39:52,-7.6664577,-2.311194,2.5004005,-1.6094007,-0.77847654,-0.04932045,8.388575162964862,1.7884711335901784,stand
23/10/2020, 15:39:52,-7.6664577,-2.311194,2.5004005,-1.7144696,-0.7234987,-0.1287329,8.388575162964862,1.8653225934180075,stand
23/10/2020, 15:39:52,-7.168294,-2.43813,2.4860303,-1.7144696,-0.7234987,-0.1287329,7.9692698829078745,1.8653225934180075,stand
23/10/2020, 15:39:52,-7.168294,-2.43813,2.4860303,-1.7425693,-0.6233168,-0.20814535,7.9692698829078745,1.8623630717663477,stand
23/10/2020, 15:39:52,-7.3096,-2.675237,2.3566992,-1.7425693,-0.6233168,-0.20814535,8.132722440420832,1.8623630717663477,stand
23/10/2020, 15:39:52,-7.3096,-2.675237,2.3566992,-1.6949219,-0.518248,-0.29000127,8.132722440420832,1.7959515115559295,stand
23/10/2020, 15:39:52,-8.008945,-2.938689,2.2441335,-1.6949219,-0.518248,-0.29000127,8.821294434783189,1.7959515115559295,stand
23/10/2020, 15:39:52,-8.008945,-2.938689,2.2441335,-1.5886314,-0.4486094,-0.37063545,8.821294434783189,1.691854231053177,stand
23/10/2020, 15:39:53,-8.808882,-2.811753,1.22625,0.6336956,0.22212037,-0.26067975,9.32770294199248,0.7203204218795866,stand
23/10/2020, 15:39:53,-8.753797,-2.7470875,1.219065,0.6336956,0.22212037,-0.26067975,9.255353234174493,0.7203204218795866,stand
23/10/2020, 15:39:53,-8.753797,-2.7470875,1.219065,0.5286268,0.21845518,-0.27289703,9.255353234174493,0.6337521209310324,stand
23/10/2020, 15:39:53,-8.693921,-2.794988,1.1591895,0.5286268,0.21845518,-0.27289703,9.205430004675415,0.6337521209310324,stand
23/10/2020, 15:39:53,-8.693921,-2.794988,1.1591895,0.42111456,0.22212037,-0.28511435,9.205430004675415,0.5549460587337663,stand
23/10/2020, 15:39:53,-8.713081,-2.799778,1.21188,0.42111456,0.22212037,-0.28511435,9.231749379459648,0.5549460587337663,stand
23/10/2020, 15:39:53,-8.713081,-2.799778,1.21188,0.31726754,0.23433767,-0.29366645,9.231749379459648,0.4917446695527343,stand
23/10/2020, 15:39:53,-8.820857,-2.8692336,1.1903248,0.31726754,0.23433767,-0.29366645,9.351839051777386,0.4917446695527343,stand
23/10/2020, 15:39:53,-8.820857,-2.8692336,1.1903248,0.21830739,0.25022015,-0.29366645,9.351839051777386,0.4432924828544765,stand
23/10/2020, 15:39:53,-9.0004835,-2.9171338,1.2382251,0.21830739,0.25022015,-0.29366645,9.542094870857271,0.4432924828544765,stand
23/10/2020, 15:39:53,-9.0004835,-2.9171338,1.2382251,0.12423418,0.26365918,-0.29000127,9.542094870857271,0.4111581593393644,stand
23/10/2020, 15:39:53,-9.1849,-3.0105398,1.3052857,0.12423418,0.26365918,-0.29000127,9.75343599299295,0.4111581593393644,stand
23/10/2020, 15:39:53,-9.1849,-3.0105398,1.3052857,0.035047885,0.2685461,-0.2875578,9.75343599299295,0.3950124793670126,stand
23/10/2020, 15:39:53,-9.278306,-3.04886,1.3388159,0.035047885,0.2685461,-0.2875578,9.857734942658157,0.3950124793670126,stand
23/10/2020, 15:39:53,-9.278306,-3.04886,1.3388159,-0.054138403,0.26732436,-0.28511435,9.857734942658157,0.3945674474912397,stand
23/10/2020, 15:39:53,-9.18011,-3.0752053,1.3962965,-0.054138403,0.26732436,-0.28511435,9.781664015891039,0.3945674474912397,stand
23/10/2020, 15:39:53,-9.18011,-3.0752053,1.3962965,-0.1274422,0.27343303,-0.28144917,9.781664015891039,0.4125781983027823,stand
23/10/2020, 15:39:53,-9.067544,-3.1302907,1.3579761,-0.1274422,0.27343303,-0.28144917,9.688300835640845,0.4125781983027823,stand
23/10/2020, 15:39:53,-9.067544,-3.1302907,1.3579761,-0.18608524,0.29664588,-0.2753405,9.688300835640845,0.44546479515602766,stand
23/10/2020, 15:39:53,-8.947793,-3.2069314,1.3939015,-0.18608524,0.29664588,-0.2753405,9.606787688674492,0.44546479515602766,stand
23/10/2020, 15:39:53,-8.947793,-3.2069314,1.3939015,-0.22273715,0.32841086,-0.2704536,9.606787688674492,0.4802194120054496,stand
23/10/2020, 15:39:53,-8.926238,-3.276387,1.4489869,-0.22273715,0.32841086,-0.2704536,9.618315888097872,0.4802194120054496,stand
23/10/2020, 15:39:53,-8.926238,-3.276387,1.4489869,-0.23373272,0.36017585,-0.26801014,9.618315888097872,0.5061492453038262,stand
23/10/2020, 15:39:53,-8.923843,-3.4248781,1.4897022,-0.23373272,0.36017585,-0.26801014,9.673881516563736,0.5061492453038262,stand
23/10/2020, 15:39:53,-8.923843,-3.4248781,1.4897022,-0.22029369,0.38461044,-0.2704536,9.673881516563736,0.5192298650372351,stand
23/10/2020, 15:39:53,-8.911868,-3.5254688,1.5711329,-0.22029369,0.38461044,-0.2704536,9.711785725558368,0.5192298650372351,stand
23/10/2020, 15:39:53,-8.911868,-3.5254688,1.5711329,-0.1799766,0.4102668,-0.2753405,9.711785725558368,0.5258543539274407,stand
23/10/2020, 15:39:53,-8.784932,-3.5901344,1.6765138,-0.1799766,0.4102668,-0.2753405,9.637157050594912,0.5258543539274407,stand
23/10/2020, 15:39:53,-8.784932,-3.5901344,1.6765138,-0.11400318,0.44203177,-0.2826709,9.637157050594912,0.536927966599781,stand
23/10/2020, 15:39:53,-8.689131,-3.6308498,1.7339942,-0.11400318,0.44203177,-0.2826709,9.575531335491767,0.536927966599781,stand
23/10/2020, 15:39:54,-7.9921803,-3.0201197,3.2356715,0.010613285,0.18424675,-0.1568327,9.135953135618514,0.24219000896643447,stand
23/10/2020, 15:39:54,-8.270002,-3.0991554,3.2644117,0.010613285,0.18424675,-0.1568327,9.415629938639455,0.24219000896643447,stand
23/10/2020, 15:39:54,-8.270002,-3.0991554,3.2644117,0.1694382,0.21967691,-0.112850405,9.415629938639455,0.2995036937580683,stand
23/10/2020, 15:39:54,-8.581355,-2.9338992,3.2356715,0.1694382,0.21967691,-0.112850405,9.628966183213674,0.2995036937580683,stand
23/10/2020, 15:39:54,-8.581355,-2.9338992,3.2356715,0.28794602,0.24655499,-0.063981205,9.628966183213674,0.38444227585558166,stand
23/10/2020, 15:39:54,-8.796907,-2.7518775,3.2308815,0.28794602,0.24655499,-0.063981205,9.767139050567366,0.38444227585558166,stand
23/10/2020, 15:39:54,-8.796907,-2.7518775,3.2308815,0.3368152,0.26732436,-0.015112006,9.767139050567366,0.43027336624687346,stand
23/10/2020, 15:39:54,-9.017249,-2.44292,3.2524366,0.3368152,0.26732436,-0.015112006,9.892268876515766,0.43027336624687346,stand
23/10/2020, 15:39:54,-9.017249,-2.44292,3.2524366,0.32581964,0.28320685,0.041087575,9.892268876515766,0.4336504901212347,stand
23/10/2020, 15:39:54,-9.319021,-2.1219873,3.403323,0.32581964,0.28320685,0.041087575,10.145422311333451,0.4336504901212347,stand
23/10/2020, 15:39:54,-9.319021,-2.1219873,3.403323,0.25373757,0.28687206,0.10095235,10.145422311333451,0.3960678086327939,stand
23/10/2020, 15:39:54,-9.572893,-1.9136207,3.6548,0.25373757,0.28687206,0.10095235,10.424000668313738,0.3960678086327939,stand
23/10/2020, 15:39:54,-9.572893,-1.9136207,3.6548,0.11201687,0.27343303,0.15348673,10.424000668313738,0.3329738384594506,stand
23/10/2020, 15:39:54,-9.841136,-1.7148341,3.8464015,0.11201687,0.27343303,0.15348673,10.704364411730708,0.3329738384594506,stand
23/10/2020, 15:39:54,-9.841136,-1.7148341,3.8464015,-0.07490782,0.24044633,0.19136035,10.704364411730708,0.31629796627633,stand
23/10/2020, 15:39:54,-9.889036,-1.6597486,3.894302,-0.07490782,0.24044633,0.19136035,10.757015804836373,0.31629796627633,stand
23/10/2020, 15:39:54,-9.889036,-1.6597486,3.894302,-0.28138018,0.18669021,0.19869074,10.757015804836373,0.3917984811141596,stand
23/10/2020, 15:39:54,-9.718989,-1.7986598,3.796106,-0.28138018,0.18669021,0.19869074,10.587934313289306,0.3917984811141596,stand
23/10/2020, 15:39:54,-9.718989,-1.7986598,3.796106,-0.46708316,0.124381974,0.1889169,10.587934313289306,0.5189673861657885,stand
23/10/2020, 15:39:54,-9.354947,-2.1459377,3.7266505,-0.46708316,0.124381974,0.1889169,10.296019005651614,0.5189673861657885,stand
23/10/2020, 15:39:54,-9.354947,-2.1459377,3.7266505,-0.6100256,0.069404125,0.17547788,10.296019005651614,0.6385457164447049,stand
23/10/2020, 15:39:54,-8.820857,-2.574646,3.5254688,-0.6100256,0.069404125,0.17547788,9.84201460638191,0.6385457164447049,stand
23/10/2020, 15:39:54,-8.820857,-2.574646,3.5254688,-0.6967684,0.04619125,0.15959539,9.84201460638191,0.7163033756424144,stand
23/10/2020, 15:39:54,-8.339458,-2.943479,3.3314724,-0.6967684,0.04619125,0.15959539,9.45036215249653,0.7163033756424144,stand
23/10/2020, 15:39:54,-8.339458,-2.943479,3.3314724,-0.7163161,0.05352163,0.14615636,9.45036215249653,0.7330313812490202,stand
23/10/2020, 15:39:54,-8.01613,-3.293152,3.1278956,-0.7163161,0.05352163,0.14615636,9.213410275665739,0.7330313812490202,stand
23/10/2020, 15:39:54,-8.01613,-3.293152,3.1278956,-0.66622514,0.090173535,0.13882597,9.213410275665739,0.6864836827845611,stand
23/10/2020, 15:39:54,-7.8676395,-3.6907253,2.9626393,-0.66622514,0.090173535,0.13882597,9.181418038807463,0.6864836827845611,stand
23/10/2020, 15:39:54,-7.8676395,-3.6907253,2.9626393,-0.53550005,0.13415581,0.13393904,9.181418038807463,0.5680649184665655,stand
23/10/2020, 15:39:54,-7.9921803,-3.906277,2.8620484,-0.53550005,0.13415581,0.13393904,9.344798939555865,0.5680649184665655,stand
23/10/2020, 15:39:55,-2.555486,-0.34967285,7.335945,1.0784053,-1.450428,-0.5600036,7.7761732592299415,1.892168947145424,stand
23/10/2020, 15:39:55,-2.4884255,-0.51971924,7.4125857,1.0784053,-1.450428,-0.5600036,7.836376510255848,1.892168947145424,stand
23/10/2020, 15:39:55,-2.4884255,-0.51971924,7.4125857,1.0551924,-1.3807894,-0.5196865,7.836376510255848,1.8138589642800707,stand
23/10/2020, 15:39:55,-2.4836354,-0.59156984,7.8580594,1.0551924,-1.3807894,-0.5196865,8.2624147460921,1.8138589642800707,stand
23/10/2020, 15:39:55,-2.4836354,-0.59156984,7.8580594,1.047862,-1.3160378,-0.48425636,8.2624147460921,1.7505640588154958,stand
23/10/2020, 15:39:55,-2.4764502,-0.47900394,7.8868,1.047862,-1.3160378,-0.48425636,8.280329804265847,1.7505640588154958,stand
23/10/2020, 15:39:55,-2.4764502,-0.47900394,7.8868,1.0112101,-1.2586164,-0.44027406,8.280329804265847,1.6734701800158889,stand
23/10/2020, 15:39:55,-2.3447242,-0.0047900393,7.688013,1.0112101,-1.2586164,-0.44027406,8.037617774292452,1.6734701800158889,stand
23/10/2020, 15:39:55,-2.3447242,-0.0047900393,7.688013,0.94523674,-1.2121907,-0.39995697,8.037617774292452,1.5883464628624582,stand
23/10/2020, 15:39:55,-2.0429518,0.5676197,7.541917,0.94523674,-1.2121907,-0.39995697,7.8343062220813655,1.5883464628624582,stand
23/10/2020, 15:39:55,-2.0429518,0.5676197,7.541917,0.84261143,-1.1755388,-0.35963988,7.8343062220813655,1.4903779018213075,stand
23/10/2020, 15:39:55,-1.719624,0.86939216,7.3455253,0.84261143,-1.1755388,-0.35963988,7.594056293212119,1.4903779018213075,stand
23/10/2020, 15:39:55,-1.719624,0.86939216,7.3455253,0.72166014,-1.1352217,-0.32420972,7.594056293212119,1.383702875995584,stand
23/10/2020, 15:39:55,-1.3483961,0.8765772,7.2185893,0.72166014,-1.1352217,-0.32420972,7.395579158807187,1.383702875995584,stand
23/10/2020, 15:39:55,-1.3483961,0.8765772,7.2185893,0.6288087,-1.0790222,-0.28633606,7.395579158807187,1.2812796477335655,stand
23/10/2020, 15:39:55,-1.1376343,0.7185059,7.2593045,0.6288087,-1.0790222,-0.28633606,7.382950945864359,1.2812796477335655,stand
23/10/2020, 15:39:55,-1.1376343,0.7185059,7.2593045,0.5726091,-1.0081618,-0.24479726,7.382950945864359,1.184988224103274,stand
23/10/2020, 15:39:55,-1.0418335,0.51971924,7.407796,0.5726091,-1.0081618,-0.24479726,7.498730916681764,1.184988224103274,stand
23/10/2020, 15:39:55,-1.0418335,0.51971924,7.407796,0.5811612,-0.9287493,-0.20936708,7.498730916681764,1.1154184063141386,stand
23/10/2020, 15:39:55,-1.1232642,0.23710695,7.862849,0.5811612,-0.9287493,-0.20936708,7.946215467411693,1.1154184063141386,stand
23/10/2020, 15:39:55,-1.1232642,0.23710695,7.862849,0.62270004,-0.8566673,-0.18493249,7.946215467411693,1.0750972920403499,stand
23/10/2020, 15:39:55,-1.2621753,-0.05269043,8.128696,0.62270004,-0.8566673,-0.18493249,8.226273072568878,1.0750972920403499,stand
23/10/2020, 15:39:55,-1.2621753,-0.05269043,8.128696,0.6520215,-0.79802424,-0.16782826,8.226273072568878,1.044098214065451,stand
23/10/2020, 15:39:55,-1.3603711,0.031135255,8.272398,0.6520215,-0.79802424,-0.16782826,8.383564132058458,1.044098214065451,stand
23/10/2020, 15:39:55,-1.3603711,0.031135255,8.272398,0.65568674,-0.7515985,-0.14705886,8.383564132058458,1.0081922808817914,stand
23/10/2020, 15:39:55,-1.2861255,0.29937744,8.265213,0.65568674,-0.7515985,-0.14705886,8.370035358597805,1.0081922808817914,stand
23/10/2020, 15:39:55,-1.2861255,0.29937744,8.265213,0.60315233,-0.71494657,-0.1287329,8.370035358597805,0.9441999230728263,stand
23/10/2020, 15:39:55,-1.094524,0.62989014,8.270002,0.60315233,-0.71494657,-0.1287329,8.365864184626654,0.9441999230728263,stand
23/10/2020, 15:39:55,-0.94603276,0.7592212,8.337064,0.60315233,-0.71494657,-0.1287329,8.424845840754706,0.9441999230728263,stand
23/10/2020, 15:39:55,-0.8047266,0.6658155,8.296348,0.60315233,-0.71494657,-0.1287329,8.361834663861153,0.9441999230728263,stand
23/10/2020, 15:39:56,0.42870852,1.2430152,9.580078,-0.19585909,-2.3449166E-4,-0.08719408,9.669890102391413,0.2143913363559286,stand
23/10/2020, 15:39:56,0.44307864,0.98195803,9.611214,-0.19585909,-2.3449166E-4,-0.08719408,9.671400557090532,0.2143913363559286,stand
23/10/2020, 15:39:56,0.44307864,0.98195803,9.611214,-0.1640941,0.004652428,-0.08719408,9.671400557090532,0.1858798743321435,stand
23/10/2020, 15:39:56,0.3879932,0.76401126,9.82437,-0.1640941,0.004652428,-0.08719408,9.86166848816605,0.1858798743321435,stand
23/10/2020, 15:39:56,0.3879932,0.76401126,9.82437,-0.09201204,0.015647998,-0.08963754,9.86166848816605,0.1294061978222234,stand
23/10/2020, 15:39:56,0.24668702,0.5676197,10.068663,-0.09201204,0.015647998,-0.08963754,10.08766643075301,0.1294061978222234,stand
23/10/2020, 15:39:56,0.24668702,0.5676197,10.068663,-0.007712665,0.013204537,-0.09330273,10.08766643075301,0.09454757440535709,stand
23/10/2020, 15:39:56,0.028740235,0.57719976,9.994417,-0.007712665,0.013204537,-0.09330273,10.011111853309846,0.09454757440535709,stand
23/10/2020, 15:39:56,0.028740235,0.57719976,9.994417,0.043599997,-0.006343142,-0.08963754,10.011111853309846,0.09988034738268892,stand
23/10/2020, 15:39:56,-0.09580079,0.8310718,9.788445,0.043599997,-0.006343142,-0.08963754,9.824129625062312,0.09988034738268892,stand
23/10/2020, 15:39:56,-0.09580079,0.8310718,9.788445,0.031382695,-0.03810812,-0.083528884,9.824129625062312,0.09702668132530862,stand
23/10/2020, 15:39:56,-0.05508545,1.2454102,9.448353,0.031382695,-0.03810812,-0.083528884,9.530238815237167,0.09702668132530862,stand
23/10/2020, 15:39:56,-0.05508545,1.2454102,9.448353,-0.052916676,-0.07231656,-0.07253332,9.530238815237167,0.1152863438623104,stand
23/10/2020, 15:39:56,0.17004639,1.4992822,9.239985,-0.052916676,-0.07231656,-0.07253332,9.36237653719302,0.1152863438623104,stand
23/10/2020, 15:39:56,0.17004639,1.4992822,9.239985,-0.18975043,-0.09552943,-0.05665083,9.36237653719302,0.2198645380950701,stand
23/10/2020, 15:39:56,0.364043,1.5495777,9.019644,-0.18975043,-0.09552943,-0.05665083,9.15902245739542,0.2198645380950701,stand
23/10/2020, 15:39:56,0.364043,1.5495777,9.019644,-0.32169726,-0.09186424,-0.034659687,9.15902245739542,0.33634723627913177,stand
23/10/2020, 15:39:56,0.57001466,1.5543678,9.022039,-0.32169726,-0.09186424,-0.034659687,9.172686143279098,0.33634723627913177,stand
23/10/2020, 15:39:56,0.57001466,1.5543678,9.022039,-0.4035532,-0.07109483,-0.012668546,9.172686143279098,0.409963587176561,stand
23/10/2020, 15:39:56,0.6993457,1.3747413,9.13221,-0.4035532,-0.07109483,-0.012668546,9.26154703766935,0.409963587176561,stand
23/10/2020, 15:39:56,0.6993457,1.3747413,9.13221,-0.44509202,-0.044216774,-0.0028947059,9.26154703766935,0.4472923103315417,stand
23/10/2020, 15:39:56,0.70174074,1.0298585,9.266331,-0.44509202,-0.044216774,-0.0028947059,9.349755800582845,0.4472923103315417,stand
23/10/2020, 15:39:56,0.70174074,1.0298585,9.266331,-0.44997892,-0.018560443,-0.005338166,9.349755800582845,0.450393175525833,stand
23/10/2020, 15:39:56,0.6682105,0.7424561,9.4507475,-0.44997892,-0.018560443,-0.005338166,9.50338752381823,0.450393175525833,stand
23/10/2020, 15:39:56,0.6682105,0.7424561,9.4507475,-0.41699222,9.872383E-4,-0.019998927,9.50338752381823,0.41747268293625783,stand
23/10/2020, 15:39:56,0.65384036,0.5245093,9.546548,-0.41699222,9.872383E-4,-0.019998927,9.583276780301837,0.41747268293625783,stand
23/10/2020, 15:39:56,0.65384036,0.5245093,9.546548,-0.36812302,0.022978378,-0.037103146,9.583276780301837,0.3707009720231239,stand
23/10/2020, 15:39:56,0.7161109,0.37601808,9.604029,-0.36812302,0.022978378,-0.037103146,9.638027375911,0.3707009720231239,stand
23/10/2020, 15:39:56,0.7161109,0.37601808,9.604029,-0.29115403,0.05718682,-0.06031602,9.638027375911,0.3027854386958016,stand
23/10/2020, 15:39:56,0.8095166,0.33769777,9.7740755,-0.29115403,0.05718682,-0.06031602,9.813353604392942,0.3027854386958016,stand
23/10/2020, 15:39:57,-1.214275,-1.5615528,9.72378,-0.31681037,0.5764221,0.22312534,9.92294321490471,0.6945618466853893,stand
23/10/2020, 15:39:57,-1.2909156,-1.6669337,10.195599,-0.31681037,0.5764221,0.22312534,10.411309321107476,0.6945618466853893,stand
23/10/2020, 15:39:57,-1.2909156,-1.6669337,10.195599,-0.11155972,0.6216261,0.23289919,10.411309321107476,0.6731319226566579,stand
23/10/2020, 15:39:57,-1.3699512,-1.5735279,10.109378,-0.11155972,0.6216261,0.23289919,10.322416253601213,0.6731319226566579,stand
23/10/2020, 15:39:57,-1.3699512,-1.5735279,10.109378,-0.001604015,0.64850414,0.2377861,10.322416253601213,0.69072600854847,stand
23/10/2020, 15:39:57,-1.585503,-1.1088941,9.884246,-0.001604015,0.64850414,0.2377861,10.071831130481858,0.69072600854847,stand
23/10/2020, 15:39:57,-1.585503,-1.1088941,9.884246,0.027717505,0.6619432,0.25122514,10.071831130481858,0.708555664194855,stand
23/10/2020, 15:39:57,-1.6501685,-0.5029541,9.462723,0.027717505,0.6619432,0.25122514,9.618687095218204,0.708555664194855,stand
23/10/2020, 15:39:57,-1.6501685,-0.5029541,9.462723,-0.023595154,0.6631649,0.2658859,9.618687095218204,0.714870435994636,stand
23/10/2020, 15:39:57,-1.5807129,0.06945557,9.031619,-0.023595154,0.6631649,0.2658859,9.169166835398439,0.714870435994636,stand
23/10/2020, 15:39:57,-1.5807129,0.06945557,9.031619,-0.15676372,0.66927356,0.2829901,9.169166835398439,0.743360848105283,stand
23/10/2020, 15:39:57,-1.5543678,0.47900394,8.557405,-0.15676372,0.66927356,0.2829901,8.710608037169921,0.743360848105283,stand
23/10/2020, 15:39:57,-1.5543678,0.47900394,8.557405,-0.3192538,0.6875995,0.30864644,8.710608037169921,0.8185222419856285,stand
23/10/2020, 15:39:57,-1.5064673,0.69695073,8.188572,-0.3192538,0.6875995,0.30864644,8.355111874203926,0.8185222419856285,stand
23/10/2020, 15:39:57,-1.5064673,0.69695073,8.188572,-0.5012916,0.71447754,0.34529835,8.355111874203926,0.9386172518378174,stand
23/10/2020, 15:39:57,-1.477727,0.91010743,7.8772197,-0.5012916,0.71447754,0.34529835,8.066136784794809,0.9386172518378174,stand
23/10/2020, 15:39:57,-1.477727,0.91010743,7.8772197,-0.67477727,0.748686,0.39294583,8.066136784794809,1.081786270677517,stand
23/10/2020, 15:39:57,-1.477727,0.91250247,7.676038,-0.67477727,0.748686,0.39294583,7.870063159400102,1.081786270677517,stand
23/10/2020, 15:39:57,-1.477727,0.91250247,7.676038,-0.78839815,0.7816727,0.44670194,7.870063159400102,1.1967148780843966,stand
23/10/2020, 15:39:57,-1.5591577,0.50774413,8.411309,-0.78839815,0.7816727,0.44670194,8.569649940235362,1.1967148780843966,stand
23/10/2020, 15:39:57,-1.5591577,0.50774413,8.411309,-0.76885045,0.78411615,0.4699148,8.569649940235362,1.1944827569112106,stand
23/10/2020, 15:39:57,-1.954336,-0.7424561,9.287886,-0.76885045,0.78411615,0.4699148,9.520267357408308,1.1944827569112106,stand
23/10/2020, 15:39:57,-1.954336,-0.7424561,9.287886,-0.6454557,0.77434236,0.46747136,9.520267357408308,1.1111924428392903,stand
23/10/2020, 15:39:57,-2.5291407,-2.0022364,10.164463,-0.6454557,0.77434236,0.46747136,10.664042955579456,1.1111924428392903,stand
23/10/2020, 15:39:57,-2.5291407,-2.0022364,10.164463,-0.39744455,0.7951117,0.4699148,10.664042955579456,1.005477360015924,stand
23/10/2020, 15:39:57,-2.8500733,-2.8668385,10.655442,-0.39744455,0.7951117,0.4699148,11.39649639327365,1.005477360015924,stand
23/10/2020, 15:39:57,-2.8500733,-2.8668385,10.655442,-0.14576815,0.8317636,0.47358,11.39649639327365,0.9681720409651574,stand
23/10/2020, 15:39:57,-3.0728102,-2.912344,10.633887,-0.14576815,0.8317636,0.47358,11.44567467332355,0.9681720409651574,stand
23/10/2020, 15:39:57,-3.0728102,-2.912344,10.633887,0.053373836,0.86963725,0.4894625,11.44567467332355,0.9993454099487491,stand
23/10/2020, 15:39:57,-3.1039455,-2.1746778,10.32972,0.053373836,0.86963725,0.4894625,11.003036272795688,0.9993454099487491,stand
23/10/2020, 15:39:58,-9.285491,-2.2321582,2.1339624,0.093690924,0.3699497,0.019096434,9.785533637572616,0.38210658523866403,stand
23/10/2020, 15:39:58,-9.239985,-2.0405567,2.196233,0.093690924,0.3699497,0.019096434,9.714146512820147,0.38210658523866403,stand
23/10/2020, 15:39:58,-9.239985,-2.0405567,2.196233,-0.22029369,0.2929807,-0.0028947059,9.714146512820147,0.3665724734942017,stand
23/10/2020, 15:39:58,-9.251961,-1.9998415,2.3614893,-0.22029369,0.2929807,-0.0028947059,9.755756010043761,0.3665724734942017,stand
23/10/2020, 15:39:58,-9.251961,-1.9998415,2.3614893,-0.51717407,0.2233421,-0.022442386,9.755756010043761,0.5637857487504643,stand
23/10/2020, 15:39:58,-9.172925,-2.1627028,2.4261549,-0.51717407,0.2233421,-0.022442386,9.731704050844979,0.5637857487504643,stand
23/10/2020, 15:39:58,-9.172925,-2.1627028,2.4261549,-0.78473294,0.16836426,-0.035881415,9.731704050844979,0.8033926702047649,stand
23/10/2020, 15:39:58,-9.105865,-2.4141798,2.5578809,-0.78473294,0.16836426,-0.035881415,9.761546365673592,0.8033926702047649,stand
23/10/2020, 15:39:58,-9.105865,-2.4141798,2.5578809,-1.002201,0.13415581,-0.039546605,9.761546365673592,1.011913277787655,stand
23/10/2020, 15:39:58,-8.974138,-2.6321266,2.675237,-1.002201,0.13415581,-0.039546605,9.727288444060235,1.011913277787655,stand
23/10/2020, 15:39:58,-8.974138,-2.6321266,2.675237,-1.1488086,0.11338641,-0.037103146,9.727288444060235,1.154986717196656,stand
23/10/2020, 15:39:58,-8.899893,-2.806963,2.7399025,-1.1488086,0.11338641,-0.037103146,9.72595490238902,1.154986717196656,stand
23/10/2020, 15:39:58,-8.899893,-2.806963,2.7399025,-1.24166,0.104834296,-0.03221623,9.72595490238902,1.2464941507332745,stand
23/10/2020, 15:39:58,-8.847202,-2.9889846,2.8093581,-1.24166,0.104834296,-0.03221623,9.751897787082365,1.2464941507332745,stand
23/10/2020, 15:39:58,-8.847202,-2.9889846,2.8093581,-1.2893075,0.09383872,-0.021220656,9.751897787082365,1.292892024580619,stand
23/10/2020, 15:39:58,-8.875943,-3.1422658,2.8764186,-1.2893075,0.09383872,-0.021220656,9.84530272001356,1.292892024580619,stand
23/10/2020, 15:39:58,-8.875943,-3.1422658,2.8764186,-1.3125204,0.075512774,-0.0028947059,9.84530272001356,1.3146940019974882,stand
23/10/2020, 15:39:58,-8.890313,-3.2045362,2.8740237,-1.3125204,0.075512774,-0.0028947059,9.877587368505484,1.3146940019974882,stand
23/10/2020, 15:39:58,-8.890313,-3.2045362,2.8740237,-1.3271811,0.052299898,0.015431244,9.877587368505484,1.3283008232600337,stand
23/10/2020, 15:39:58,-8.947793,-3.2859669,2.806963,-1.3271811,0.052299898,0.015431244,9.936781122853239,1.3283008232600337,stand
23/10/2020, 15:39:58,-8.947793,-3.2859669,2.806963,-1.3418419,0.02542184,0.028870275,9.936781122853239,1.3423932151976499,stand
23/10/2020, 15:39:58,-8.8951025,-3.3626075,2.7303224,-1.3418419,0.02542184,0.028870275,9.89366654760497,1.3423932151976499,stand
23/10/2020, 15:39:58,-8.8951025,-3.3626075,2.7303224,-1.350394,-0.0051214118,0.042309307,9.89366654760497,1.351066352920076,stand
23/10/2020, 15:39:58,-8.859178,-3.4679885,2.5866213,-1.350394,-0.0051214118,0.042309307,9.859136950275257,1.351066352920076,stand
23/10/2020, 15:39:58,-8.859178,-3.4679885,2.5866213,-1.3491722,-0.03444293,0.049639687,9.859136950275257,1.3505243916660026,stand
23/10/2020, 15:39:58,-8.796907,-3.532654,2.5315359,-1.3491722,-0.03444293,0.049639687,9.811926349534849,1.3505243916660026,stand
23/10/2020, 15:39:58,-8.796907,-3.532654,2.5315359,-1.3308463,-0.053990614,0.052083146,9.811926349534849,1.3329589417473517,stand
23/10/2020, 15:39:58,-8.734636,-3.6380348,2.4908204,-1.3308463,-0.053990614,0.052083146,9.78434234229611,1.3329589417473517,stand
23/10/2020, 15:39:58,-8.734636,-3.6380348,2.4908204,-1.286864,-0.0698731,0.050861415,9.78434234229611,1.289762845328633,stand
23/10/2020, 15:39:58,-8.727451,-3.7458107,2.5818312,-1.286864,-0.0698731,0.050861415,9.842019975920273,1.289762845328633,stand
23/10/2020, 15:39:59,-8.954978,-1.9136207,2.3495142,-0.5232827,-0.37408388,0.06430045,9.453771321661135,0.646450373566828,stand
23/10/2020, 15:39:59,-8.978929,-1.9255958,2.304009,-0.5232827,-0.37408388,0.06430045,9.46771009887344,0.646450373566828,stand
23/10/2020, 15:39:59,-8.978929,-1.9255958,2.304009,-0.5709302,-0.3789708,0.059413526,9.46771009887344,0.6878300004514921,stand
23/10/2020, 15:39:59,-9.12263,-1.9447559,2.2106032,-0.5709302,-0.3789708,0.059413526,9.585990951523282,0.6878300004514921,stand
23/10/2020, 15:39:59,-9.12263,-1.9447559,2.2106032,-0.630795,-0.382636,0.055748336,9.585990951523282,0.7398787252921495,stand
23/10/2020, 15:39:59,-9.280701,-1.947151,2.1435425,-0.630795,-0.382636,0.055748336,9.722015045948748,0.7398787252921495,stand
23/10/2020, 15:39:59,-9.280701,-1.947151,2.1435425,-0.6918815,-0.3948533,0.055748336,9.722015045948748,0.7985718377435252,stand
23/10/2020, 15:39:59,-9.460327,-1.9232007,2.2297633,-0.6918815,-0.3948533,0.055748336,9.907993491498825,0.7985718377435252,stand
23/10/2020, 15:39:59,-9.460327,-1.9232007,2.2297633,-0.7676287,-0.41684443,0.060635254,9.907993491498825,0.8756082325585864,stand
23/10/2020, 15:39:59,-9.513018,-1.8776954,2.2848487,-0.7676287,-0.41684443,0.060635254,9.962117174562243,0.8756082325585864,stand
23/10/2020, 15:39:59,-9.513018,-1.8776954,2.2848487,-0.8824714,-0.44494423,0.060635254,9.962117174562243,0.9901554147488436,stand
23/10/2020, 15:39:59,-9.448353,-1.7723145,2.3423293,-0.8824714,-0.44494423,0.060635254,9.894391145030955,0.9901554147488436,stand
23/10/2020, 15:39:59,-9.448353,-1.7723145,2.3423293,-1.0168617,-0.47548747,0.055748336,9.894391145030955,1.123923432529262,stand
23/10/2020, 15:39:59,-9.347761,-1.7268091,2.3590944,-1.0168617,-0.47548747,0.055748336,9.794275609528503,1.123923432529262,stand
23/10/2020, 15:39:59,-9.347761,-1.7268091,2.3590944,-1.1439216,-0.5023655,0.054526605,9.794275609528503,1.2505602481140812,stand
23/10/2020, 15:39:59,-9.256751,-1.961521,2.323169,-1.1439216,-0.5023655,0.054526605,9.743311506612475,1.2505602481140812,stand
23/10/2020, 15:39:59,-9.256751,-1.961521,2.323169,-1.2636511,-0.52313495,0.058191795,9.743311506612475,1.368893948580903,stand
23/10/2020, 15:39:59,-9.2328005,-2.193838,2.3878345,-1.2636511,-0.52313495,0.058191795,9.785667235990383,1.368893948580903,stand
23/10/2020, 15:39:59,-9.2328005,-2.193838,2.3878345,-1.3516158,-0.54023916,0.061856985,9.785667235990383,1.456897342290664,stand
23/10/2020, 15:39:59,-9.158555,-2.3998096,2.435735,-1.3516158,-0.54023916,0.061856985,9.776043232916251,1.456897342290664,stand
23/10/2020, 15:39:59,-9.158555,-2.3998096,2.435735,-1.4004849,-0.5524565,0.055748336,9.776043232916251,1.5065437495120906,stand
23/10/2020, 15:39:59,-9.048384,-2.5219557,2.4213648,-1.4004849,-0.5524565,0.055748336,9.70033586678967,1.5065437495120906,stand
23/10/2020, 15:39:59,-9.048384,-2.5219557,2.4213648,-1.4127022,-0.5610086,0.049639687,9.70033586678967,1.5208294548743828,stand
23/10/2020, 15:39:59,-8.998089,-2.680027,2.4692652,-1.4127022,-0.5610086,0.049639687,9.708007942714563,1.5208294548743828,stand
23/10/2020, 15:39:59,-8.998089,-2.680027,2.4692652,-1.3919328,-0.55612165,0.043531034,9.708007942714563,1.4995476927745057,stand
23/10/2020, 15:39:59,-8.902288,-2.804568,2.3926246,-1.3919328,-0.55612165,0.043531034,9.635403153453693,1.4995476927745057,stand
23/10/2020, 15:39:59,-8.902288,-2.804568,2.3926246,-1.3345115,-0.5341305,0.041087575,9.635403153453693,1.4380210664045567,stand
23/10/2020, 15:39:59,-8.919053,-2.9746144,2.3303542,-1.3345115,-0.5341305,0.041087575,9.686505524931064,1.4380210664045567,stand
23/10/2020, 15:39:59,-8.919053,-2.9746144,2.3303542,-1.2538774,-0.50603074,0.042309307,9.686505524931064,1.3527992176230879,stand
23/10/2020, 15:39:59,-9.048384,-3.051255,2.3016138,-1.2538774,-0.50603074,0.042309307,9.822465623928453,1.3527992176230879,stand
23/10/2020, 15:40:00,-8.804092,-2.5315359,1.695674,-0.7835112,-0.5145829,-0.6284205,9.316438539730383,1.1285378400578938,stand
23/10/2020, 15:40:00,-8.859178,-2.663262,1.719624,-0.7835112,-0.5145829,-0.6284205,9.409309130075334,1.1285378400578938,stand
23/10/2020, 15:40:00,-8.859178,-2.663262,1.719624,-0.79206336,-0.48648307,-0.6369726,9.409309130075334,1.126838158215714,stand
23/10/2020, 15:40:00,-8.945398,-2.8883936,1.7962648,-0.79206336,-0.48648307,-0.6369726,9.570242224351444,1.126838158215714,stand
23/10/2020, 15:40:00,-8.945398,-2.8883936,1.7962648,-0.7786243,-0.45960498,-0.6284205,9.570242224351444,1.101092557755379,stand
23/10/2020, 15:40:00,-9.0076685,-2.9985645,1.9734962,-0.7786243,-0.45960498,-0.6284205,9.696605999846176,1.101092557755379,stand
23/10/2020, 15:40:00,-9.0076685,-2.9985645,1.9734962,-0.75907665,-0.43761384,-0.6149815,9.696605999846176,1.0704697365002285,stand
23/10/2020, 15:40:00,-8.978929,-2.9578493,2.059717,-0.75907665,-0.43761384,-0.6149815,9.675353447547796,1.0704697365002285,stand
23/10/2020, 15:40:00,-8.978929,-2.9578493,2.059717,-0.75907665,-0.42050964,-0.599099,9.675353447547796,1.0544881747494397,stand
23/10/2020, 15:40:00,-8.890313,-2.7207422,2.1148024,-0.75907665,-0.42050964,-0.599099,9.534804411256026,1.0544881747494397,stand
23/10/2020, 15:40:00,-8.890313,-2.7207422,2.1148024,-0.7957285,-0.4107358,-0.5819948,9.534804411256026,1.06799141081739,stand
23/10/2020, 15:40:00,-8.765772,-2.5387208,2.0525317,-0.7957285,-0.4107358,-0.5819948,9.353969552933036,1.06799141081739,stand
23/10/2020, 15:40:00,-8.765772,-2.5387208,2.0525317,-0.8470412,-0.3948533,-0.5722209,9.353969552933036,1.095821465257878,stand
23/10/2020, 15:40:00,-8.722662,-2.3614893,1.9303858,-0.8470412,-0.3948533,-0.5722209,9.240554800363466,1.095821465257878,stand
23/10/2020, 15:40:00,-8.722662,-2.3614893,1.9303858,-0.9117929,-0.36553177,-0.5624471,9.240554800363466,1.1319569029196184,stand
23/10/2020, 15:40:00,-8.751402,-2.4501052,1.8034497,-0.9117929,-0.36553177,-0.5624471,9.265121784473308,1.1319569029196184,stand
23/10/2020, 15:40:00,-8.751402,-2.4501052,1.8034497,-0.99120533,-0.3386537,-0.5392342,9.265121784473308,1.178112005789879,stand
23/10/2020, 15:40:00,-8.952583,-2.6512868,1.7651294,-0.99120533,-0.3386537,-0.5392342,9.50230244997959,1.178112005789879,stand
23/10/2020, 15:40:00,-8.952583,-2.6512868,1.7651294,-1.0584005,-0.3178843,-0.5111344,9.50230244997959,1.2175879556022544,stand
23/10/2020, 15:40:00,-9.074729,-2.8333082,1.8034497,-1.0584005,-0.3178843,-0.5111344,9.676299513325358,1.2175879556022544,stand
23/10/2020, 15:40:00,-9.074729,-2.8333082,1.8034497,-1.0938307,-0.30200183,-0.47692597,9.676299513325358,1.2309058039645673,stand
23/10/2020, 15:40:00,-9.074729,-2.8333082,1.8034497,-1.074283,-0.28367588,-0.44760445,9.676299513325358,1.197875501980708,stand
23/10/2020, 15:40:00,-9.060359,-3.0129347,1.8800904,-1.074283,-0.28367588,-0.44760445,9.7315271355904,1.197875501980708,stand
23/10/2020, 15:40:00,-8.904683,-3.283572,2.0381618,-1.074283,-0.28367588,-0.44760445,9.707179275647748,1.197875501980708,stand
23/10/2020, 15:40:00,-8.904683,-3.283572,2.0381618,-0.9936488,-0.26168472,-0.43294367,9.707179275647748,1.1150143968038546,stand
23/10/2020, 15:40:00,-8.710687,-3.755391,2.2632935,-0.9936488,-0.26168472,-0.43294367,9.752000854675428,1.1150143968038546,stand
23/10/2020, 15:40:00,-8.710687,-3.755391,2.2632935,-0.8714758,-0.21403724,-0.44271752,9.752000854675428,1.0006402160700856,stand
23/10/2020, 15:40:00,-8.749006,-4.239185,2.411785,-0.8714758,-0.21403724,-0.44271752,10.016611469247916,1.0006402160700856,stand
23/10/2020, 15:40:00,-8.749006,-4.239185,2.411785,-0.6967684,-0.14195517,-0.43538713,10.016611469247916,0.8337862039398806,stand
23/10/2020, 15:40:00,-8.966953,-4.488267,2.430945,-0.6967684,-0.14195517,-0.43538713,10.317959316311326,0.8337862039398806,stand
23/10/2020, 15:40:01,-8.837623,-2.9817994,2.2656887,-0.48785257,-0.08575559,0.124165215,9.598335611611171,0.5106575707079725,stand
23/10/2020, 15:40:01,-8.837623,-2.9817994,2.2656887,-0.50251335,-0.07109483,0.1314956,9.598335611611171,0.5242759128573743,stand
23/10/2020, 15:40:01,-8.760982,-3.06802,2.191443,-0.50251335,-0.07109483,0.1314956,9.537817755257054,0.5242759128573743,stand
23/10/2020, 15:40:01,-8.760982,-3.06802,2.191443,-0.5110654,-0.051547155,0.1400477,9.537817755257054,0.5324080524436202,stand
23/10/2020, 15:40:01,-8.782537,-3.1183155,2.1291726,-0.5110654,-0.051547155,0.1400477,9.559823813486023,0.5324080524436202,stand
23/10/2020, 15:40:01,-8.782537,-3.1183155,2.1291726,-0.522061,-0.035664663,0.1485998,9.559823813486023,0.5439683330669169,stand
23/10/2020, 15:40:01,-8.868757,-3.1542408,2.0309765,-0.522061,-0.035664663,0.1485998,9.629587536462996,0.5439683330669169,stand
23/10/2020, 15:40:01,-8.868757,-3.1542408,2.0309765,-0.5379435,-0.028334282,0.15837365,9.629587536462996,0.5614875208383995,stand
23/10/2020, 15:40:01,-8.947793,-3.2260914,2.0453467,-0.5379435,-0.028334282,0.15837365,9.72903430932901,0.5614875208383995,stand
23/10/2020, 15:40:01,-8.947793,-3.2260914,2.0453467,-0.55016077,-0.029556014,0.16570403,9.72903430932901,0.5753331647876484,stand
23/10/2020, 15:40:01,-8.947793,-3.2356715,2.095642,-0.55016077,-0.029556014,0.16570403,9.742909506397305,0.5753331647876484,stand
23/10/2020, 15:40:01,-8.947793,-3.2356715,2.095642,-0.553826,-0.028334282,0.1766996,9.742909506397305,0.5820212950982555,stand
23/10/2020, 15:40:01,-8.974138,-3.2859669,2.198628,-0.553826,-0.028334282,0.1766996,9.806462188588542,0.5820212950982555,stand
23/10/2020, 15:40:01,-8.974138,-3.2859669,2.198628,-0.55016077,-0.025890823,0.18525171,9.806462188588542,0.5810898380563623,stand
23/10/2020, 15:40:01,-9.0076685,-3.3171022,2.2417383,-0.55016077,-0.025890823,0.18525171,9.857314511367017,0.5810898380563623,stand
23/10/2020, 15:40:01,-9.0076685,-3.3171022,2.2417383,-0.5464956,-0.022225633,0.19136035,9.857314511367017,0.5794568342877945,stand
23/10/2020, 15:40:01,-8.986114,-3.391348,2.2513185,-0.5464956,-0.022225633,0.19136035,9.865085502174423,0.5794568342877945,stand
23/10/2020, 15:40:01,-8.986114,-3.391348,2.2513185,-0.54771733,-0.019782173,0.19624728,9.865085502174423,0.5821499856655958,stand
23/10/2020, 15:40:01,-8.964559,-3.4009278,2.215393,-0.54771733,-0.019782173,0.19624728,9.840609083538732,0.5821499856655958,stand
23/10/2020, 15:40:01,-8.964559,-3.4009278,2.215393,-0.54771733,-0.023447363,0.20357767,9.840609083538732,0.5847973343010844,stand
23/10/2020, 15:40:01,-8.943004,-3.403323,2.2297633,-0.54771733,-0.023447363,0.20357767,9.825058045748333,0.5847973343010844,stand
23/10/2020, 15:40:01,-8.943004,-3.403323,2.2297633,-0.55016077,-0.030777743,0.20846458,9.825058045748333,0.5891363320341174,stand
23/10/2020, 15:40:01,-8.909473,-3.3937428,2.2273684,-0.55016077,-0.030777743,0.20846458,9.790678045268958,0.5891363320341174,stand
23/10/2020, 15:40:01,-8.909473,-3.3937428,2.2273684,-0.55260426,-0.042995043,0.20968631,9.790678045268958,0.5926114983539122,stand
23/10/2020, 15:40:01,-8.871153,-3.3721876,2.327959,-0.55260426,-0.042995043,0.20968631,9.771816416438334,0.5926114983539122,stand
23/10/2020, 15:40:01,-8.871153,-3.3721876,2.327959,-0.5550477,-0.051547155,0.20968631,9.771816416438334,0.5955698082746546,stand
23/10/2020, 15:40:01,-8.816068,-3.4488282,2.3854396,-0.5550477,-0.051547155,0.20968631,9.762570765752018,0.5955698082746546,stand
23/10/2020, 15:40:01,-8.816068,-3.4488282,2.3854396,-0.553826,-0.057655804,0.20602112,9.762570765752018,0.5937104526717581,stand
23/10/2020, 15:40:01,-8.828042,-3.5015187,2.4692652,-0.553826,-0.057655804,0.20602112,9.812860450430138,0.5937104526717581,stand
23/10/2020, 15:40:01,-8.828042,-3.5015187,2.4692652,-0.55016077,-0.06620791,0.19869074,9.812860450430138,0.5886750939270256,stand
23/10/2020, 15:40:02,-9.110655,-3.2500417,2.5171657,0.4223363,0.082843155,0.033757195,9.995145102272096,0.4317064921344723,stand
23/10/2020, 15:40:02,-9.065149,-3.3769777,2.4764502,0.4223363,0.082843155,0.033757195,9.985675532749118,0.4317064921344723,stand
23/10/2020, 15:40:02,-9.065149,-3.3769777,2.4764502,0.45165783,0.076734506,0.039865844,9.985675532749118,0.4598611385739324,stand
23/10/2020, 15:40:02,-9.010064,-3.4608033,2.44292,0.45165783,0.076734506,0.039865844,9.956217795497265,0.4598611385739324,stand
23/10/2020, 15:40:02,-9.010064,-3.4608033,2.44292,0.49686185,0.07795623,0.048417956,9.956217795497265,0.5052654405438448,stand
23/10/2020, 15:40:02,-8.998089,-3.5015187,2.4189699,0.49686185,0.07795623,0.048417956,9.953775732538602,0.5052654405438448,stand
23/10/2020, 15:40:02,-8.998089,-3.5015187,2.4189699,0.5469528,0.08162142,0.052083146,9.953775732538602,0.555456621910035,stand
23/10/2020, 15:40:02,-8.945398,-3.5087037,2.4069948,0.5469528,0.08162142,0.052083146,9.905795125659946,0.555456621910035,stand
23/10/2020, 15:40:02,-8.945398,-3.5087037,2.4069948,0.58726984,0.08162142,0.048417956,9.905795125659946,0.5948884124240246,stand
23/10/2020, 15:40:02,-8.885523,-3.4536183,2.3016138,0.58726984,0.08162142,0.048417956,9.807008798921366,0.5948884124240246,stand
23/10/2020, 15:40:02,-8.885523,-3.4536183,2.3016138,0.6153697,0.08162142,0.043531034,9.807008798921366,0.6222835750086373,stand
23/10/2020, 15:40:02,-8.899893,-3.3937428,2.2345533,0.6153697,0.08162142,0.043531034,9.78359907107091,0.6222835750086373,stand
23/10/2020, 15:40:02,-8.899893,-3.3937428,2.2345533,0.62636524,0.08039969,0.037422385,9.78359907107091,0.6326120175630255,stand
23/10/2020, 15:40:02,-8.835227,-3.3171022,2.1315675,0.62636524,0.08039969,0.037422385,9.675121872263134,0.6326120175630255,stand
23/10/2020, 15:40:02,-8.835227,-3.3171022,2.1315675,0.6214783,0.07429104,0.026426814,9.675121872263134,0.6264605628353709,stand
23/10/2020, 15:40:02,-8.813672,-3.2356715,2.1171973,0.6214783,0.07429104,0.026426814,9.62459920054416,0.6264605628353709,stand
23/10/2020, 15:40:02,-8.813672,-3.2356715,2.1171973,0.60803926,0.05963028,0.010544324,9.62459920054416,0.6110472113357222,stand
23/10/2020, 15:40:02,-8.749006,-3.1566358,2.069297,0.60803926,0.05963028,0.010544324,9.528454777734755,0.6110472113357222,stand
23/10/2020, 15:40:02,-8.749006,-3.1566358,2.069297,0.5884916,0.04741298,-0.010225086,9.528454777734755,0.5904870263447006,stand
23/10/2020, 15:40:02,-8.602911,-3.151846,2.1195924,0.5884916,0.04741298,-0.010225086,9.404088602147011,0.5904870263447006,stand
23/10/2020, 15:40:02,-8.602911,-3.151846,2.1195924,0.5652787,0.04374779,-0.030994497,9.404088602147011,0.5678155922284994,stand
23/10/2020, 15:40:02,-8.581355,-3.1039455,2.0549269,0.5652787,0.04374779,-0.030994497,9.353975483348789,0.5678155922284994,stand
23/10/2020, 15:40:02,-8.581355,-3.1039455,2.0549269,0.5445093,0.04741298,-0.051763907,9.353975483348789,0.5490153563180887,stand
23/10/2020, 15:40:02,-8.626861,-3.1302907,2.0381618,0.5445093,0.04741298,-0.051763907,9.400826965185287,0.5490153563180887,stand
23/10/2020, 15:40:02,-8.626861,-3.1302907,2.0381618,0.53717893,0.04741298,-0.06642467,9.400826965185287,0.5433428327751236,stand
23/10/2020, 15:40:02,-8.751402,-3.1398706,1.9711012,0.53717893,0.04741298,-0.06642467,9.504265500168994,0.5433428327751236,stand
23/10/2020, 15:40:02,-8.751402,-3.1398706,1.9711012,0.5298486,0.0400826,-0.07497678,9.504265500168994,0.5366261690826811,stand
23/10/2020, 15:40:02,-8.8951025,-3.151846,1.9711012,0.5298486,0.0400826,-0.07497678,9.640654598254613,0.5366261690826811,stand
23/10/2020, 15:40:02,-8.8951025,-3.151846,1.9711012,0.52129644,0.024200108,-0.08230716,9.640654598254613,0.5283087106714461,stand
23/10/2020, 15:40:02,-8.904683,-3.1207106,1.9974464,0.52129644,0.024200108,-0.08230716,9.644791768434537,0.5283087106714461,stand
23/10/2020, 15:40:03,-8.868757,-3.2811768,2.0142114,-0.06391225,-0.08697732,0.010544324,9.668403383231112,0.10844820110091964,stand
23/10/2020, 15:40:03,-8.899893,-3.2548318,2.0357666,-0.06391225,-0.08697732,0.010544324,9.692593441358166,0.10844820110091964,stand
23/10/2020, 15:40:03,-8.899893,-3.2548318,2.0357666,-0.034590725,-0.08086867,0.011766055,9.692593441358166,0.08873950580623947,stand
23/10/2020, 15:40:03,-8.849598,-3.2236965,2.0980372,-0.034590725,-0.08086867,0.011766055,9.649319289134157,0.08873950580623947,stand
23/10/2020, 15:40:03,-8.849598,-3.2236965,2.0980372,-0.008934394,-0.07720348,0.016652975,9.649319289134157,0.07948284520209016,stand
23/10/2020, 15:40:03,-8.899893,-3.2141163,2.1148024,-0.008934394,-0.07720348,0.016652975,9.69592825956873,0.07948284520209016,stand
23/10/2020, 15:40:03,-8.899893,-3.2141163,2.1148024,-3.8228463E-4,-0.07598175,0.022761624,9.69592825956873,0.07931875049727852,stand
23/10/2020, 15:40:03,-8.926238,-3.0919704,2.1171973,-3.8228463E-4,-0.07598175,0.022761624,9.680936495534608,0.07931875049727852,stand
23/10/2020, 15:40:03,-8.926238,-3.0919704,2.1171973,-0.007712665,-0.0820904,0.023983356,9.680936495534608,0.08586920487772122,stand
23/10/2020, 15:40:03,-8.923843,-3.0033545,2.083667,-0.007712665,-0.0820904,0.023983356,9.643484205456604,0.08586920487772122,stand
23/10/2020, 15:40:03,-8.923843,-3.0033545,2.083667,-0.037034184,-0.09308597,0.027648546,9.643484205456604,0.1039277157615067,stand
23/10/2020, 15:40:03,-8.962164,-2.9961696,1.9782863,-0.037034184,-0.09308597,0.027648546,9.654586000861837,0.1039277157615067,stand
23/10/2020, 15:40:03,-8.962164,-2.9961696,1.9782863,-0.07735128,-0.10896846,0.028870275,9.654586000861837,0.1367144407653007,stand
23/10/2020, 15:40:03,-9.057964,-2.9985645,1.9232007,-0.07735128,-0.10896846,0.028870275,9.733283500322864,0.1367144407653007,stand
23/10/2020, 15:40:03,-9.057964,-2.9985645,1.9232007,-0.11522491,-0.12851614,0.030092005,9.733283500322864,0.1752104645585544,stand
23/10/2020, 15:40:03,-9.08431,-2.9985645,1.9136207,-0.11522491,-0.12851614,0.030092005,9.755921980119515,0.1752104645585544,stand
23/10/2020, 15:40:03,-9.08431,-2.9985645,1.9136207,-0.15065508,-0.14684209,0.030092005,9.755921980119515,0.2125207771176658,stand
23/10/2020, 15:40:03,-9.038804,-2.9889846,1.8561403,-0.15065508,-0.14684209,0.030092005,9.699446593966593,0.2125207771176658,stand
23/10/2020, 15:40:03,-9.038804,-2.9889846,1.8561403,-0.17386794,-0.16272458,0.028870275,9.699446593966593,0.23988089547812375,stand
23/10/2020, 15:40:03,-9.026829,-3.051255,1.8202149,-0.17386794,-0.16272458,0.028870275,9.700875049839109,0.23988089547812375,stand
23/10/2020, 15:40:03,-9.026829,-3.051255,1.8202149,-0.1885287,-0.17249842,0.028870275,9.700875049839109,0.2571619509274456,stand
23/10/2020, 15:40:03,-8.990904,-3.0799952,1.8776954,-0.1885287,-0.17249842,0.028870275,9.68754161000031,0.2571619509274456,stand
23/10/2020, 15:40:03,-8.990904,-3.0799952,1.8776954,-0.1921939,-0.17249842,0.031313736,9.68754161000031,0.26014370724803193,stand
23/10/2020, 15:40:03,-8.935819,-3.0776002,1.9136207,-0.1921939,-0.17249842,0.031313736,9.64273938291678,0.26014370724803193,stand
23/10/2020, 15:40:03,-8.935819,-3.0776002,1.9136207,-0.1885287,-0.17005496,0.037422385,9.64273938291678,0.25663630831809453,stand
23/10/2020, 15:40:03,-8.962164,-3.0919704,1.9088306,-0.1885287,-0.17005496,0.037422385,9.670796134187635,0.25663630831809453,stand
23/10/2020, 15:40:03,-8.962164,-3.0919704,1.9088306,-0.18364179,-0.16272458,0.043531034,9.670796134187635,0.24919580415877582,stand
23/10/2020, 15:40:03,-9.045989,-3.0057497,1.9327809,-0.18364179,-0.16272458,0.043531034,9.726257799550451,0.24919580415877582,stand
23/10/2020, 15:40:03,-9.045989,-3.0057497,1.9327809,-0.1885287,-0.15905939,0.047196224,9.726257799550451,0.25113829780524394,stand
23/10/2020, 15:40:03,-9.115445,-3.0057497,1.8441651,-0.1885287,-0.15905939,0.047196224,9.77378208203287,0.25113829780524394,stand
23/10/2020, 15:40:04,-9.077125,-2.5914114,2.2824538,-0.123777024,-0.26412818,0.09362197,9.711807193193572,0.3063486894131158,stand
23/10/2020, 15:40:04,-9.060359,-2.3974147,2.2465284,-0.123777024,-0.26412818,0.09362197,9.63766528741694,0.3063486894131158,stand
23/10/2020, 15:40:04,-9.060359,-2.3974147,2.2465284,-0.12866393,-0.26657164,0.09850889,9.63766528741694,0.3119596877445525,stand
23/10/2020, 15:40:04,-8.8951025,-2.1627028,2.1722827,-0.12866393,-0.26657164,0.09850889,9.408450669916997,0.3119596877445525,stand
23/10/2020, 15:40:04,-8.8951025,-2.1627028,2.1722827,-0.15676372,-0.2726803,0.109504454,9.408450669916997,0.3330475060899267,stand
23/10/2020, 15:40:04,-8.715476,-2.0285816,2.1148024,-0.15676372,-0.2726803,0.109504454,9.194947250826123,0.3330475060899267,stand
23/10/2020, 15:40:04,-8.715476,-2.0285816,2.1148024,-0.20318946,-0.27145857,0.1278304,9.194947250826123,0.3623759404721621,stand
23/10/2020, 15:40:04,-8.5430355,-1.8705103,2.071692,-0.20318946,-0.27145857,0.1278304,8.987445260439133,0.3623759404721621,stand
23/10/2020, 15:40:04,-8.5430355,-1.8705103,2.071692,-0.2606108,-0.26412818,0.15959539,8.987445260439133,0.40392123607543423,stand
23/10/2020, 15:40:04,-8.459209,-1.8537452,2.0166066,-0.2606108,-0.26412818,0.15959539,8.891642018755592,0.40392123607543423,stand
23/10/2020, 15:40:04,-8.459209,-1.8537452,2.0166066,-0.322919,-0.2531326,0.19624728,8.891642018755592,0.45482502296959176,stand
23/10/2020, 15:40:04,-8.396939,-1.7938697,2.0549269,-0.322919,-0.2531326,0.19624728,8.828889075343147,0.45482502296959176,stand
23/10/2020, 15:40:04,-8.396939,-1.7938697,2.0549269,-0.40233147,-0.24458049,0.2414513,8.828889075343147,0.5291398276142247,stand
23/10/2020, 15:40:04,-8.466394,-1.7531544,1.9830762,-0.40233147,-0.24458049,0.2414513,8.870511606643015,0.5291398276142247,stand
23/10/2020, 15:40:04,-8.466394,-1.7531544,1.9830762,-0.49640465,-0.24335876,0.28421184,8.870511606643015,0.6216248332892319,stand
23/10/2020, 15:40:04,-8.581355,-1.7938697,1.947151,-0.49640465,-0.24335876,0.28421184,8.980479981159764,0.6216248332892319,stand
23/10/2020, 15:40:04,-8.581355,-1.7938697,1.947151,-0.5965865,-0.260463,0.319642,8.980479981159764,0.7252085694663033,stand
23/10/2020, 15:40:04,-8.624466,-1.9112257,1.8896705,-0.5965865,-0.260463,0.319642,9.03355140259665,0.7252085694663033,stand
23/10/2020, 15:40:04,-8.624466,-1.9112257,1.8896705,-0.6918815,-0.29100624,0.35262874,9.03355140259665,0.8292958676737208,stand
23/10/2020, 15:40:04,-8.614885,-2.0309765,1.84177,-0.6918815,-0.29100624,0.35262874,9.040643332280341,0.8292958676737208,stand
23/10/2020, 15:40:04,-8.614885,-2.0309765,1.84177,-0.7627418,-0.30688873,0.38683715,9.040643332280341,0.9086246398533614,stand
23/10/2020, 15:40:04,-8.533455,-2.095642,1.8345851,-0.7627418,-0.30688873,0.38683715,8.976484311542173,0.9086246398533614,stand
23/10/2020, 15:40:04,-8.533455,-2.095642,1.8345851,-0.80794585,-0.30322355,0.42593253,8.976484311542173,0.9623614347973518,stand
23/10/2020, 15:40:04,-8.435259,-2.1219873,1.7579445,-0.80794585,-0.30322355,0.42593253,8.873938874571747,0.9623614347973518,stand
23/10/2020, 15:40:04,-8.435259,-2.1219873,1.7579445,-0.84215426,-0.28611934,0.45525405,8.873938874571747,0.9991718226771426,stand
23/10/2020, 15:40:04,-8.406519,-2.0980372,1.6118482,-0.84215426,-0.28611934,0.45525405,8.813023069844633,0.9991718226771426,stand
23/10/2020, 15:40:04,-8.406519,-2.0980372,1.6118482,-0.8849148,-0.2677934,0.46869308,8.813023069844633,1.0365619758274434,stand
23/10/2020, 15:40:04,-8.53585,-2.1579127,1.5423926,-0.8849148,-0.2677934,0.46869308,8.93847247721908,1.0365619758274434,stand
23/10/2020, 15:40:04,-8.53585,-2.1579127,1.5423926,-0.9374492,-0.25924128,0.4809104,8.93847247721908,1.0850308201803065,stand
23/10/2020, 15:40:04,-8.684341,-2.2800586,1.4609619,-0.9374492,-0.25924128,0.4809104,9.096750144406123,1.0850308201803065,stand
23/10/2020, 15:40:05,-9.319021,-2.6776319,2.2608986,0.102243036,0.009539349,-0.2545711,9.956180561700178,0.2745015257666425,stand
23/10/2020, 15:40:05,-9.369317,-2.7542725,2.1124072,0.102243036,0.009539349,-0.2545711,9.99161563871089,0.2745015257666425,stand
23/10/2020, 15:40:05,-9.369317,-2.7542725,2.1124072,0.1535557,0.004652428,-0.25334936,9.99161563871089,0.2962885419908735,stand
23/10/2020, 15:40:05,-9.405242,-2.7758276,2.1627028,0.1535557,0.004652428,-0.25334936,10.041965891273758,0.2962885419908735,stand
23/10/2020, 15:40:05,-9.405242,-2.7758276,2.1627028,0.20731182,0.0022089682,-0.25212765,10.041965891273758,0.32642215378106,stand
23/10/2020, 15:40:05,-9.319021,-2.7015822,2.1483326,0.20731182,0.0022089682,-0.25212765,9.937707778023531,0.32642215378106,stand
23/10/2020, 15:40:05,-9.319021,-2.7015822,2.1483326,0.24885064,-0.0014562218,-0.25579283,9.937707778023531,0.3568735538875032,stand
23/10/2020, 15:40:05,-9.22801,-2.668052,2.186653,0.24885064,-0.0014562218,-0.25579283,9.851706653617567,0.3568735538875032,stand
23/10/2020, 15:40:05,-9.22801,-2.668052,2.186653,0.27328524,-0.0051214118,-0.26556668,9.851706653617567,0.3810993454212603,stand
23/10/2020, 15:40:05,-9.15137,-2.6297317,2.1435425,0.27328524,-0.0051214118,-0.26556668,9.760012136926154,0.3810993454212603,stand
23/10/2020, 15:40:05,-9.15137,-2.6297317,2.1435425,0.28061563,-0.010008331,-0.27778396,9.760012136926154,0.39498003207066557,stand
23/10/2020, 15:40:05,-9.115445,-2.5985963,2.095642,0.28061563,-0.010008331,-0.27778396,9.707510428749137,0.39498003207066557,stand
23/10/2020, 15:40:05,-9.115445,-2.5985963,2.095642,0.27328524,-0.016116982,-0.291223,9.707510428749137,0.39969414448220747,stand
23/10/2020, 15:40:05,-9.148975,-2.6033864,2.0213966,0.27328524,-0.016116982,-0.291223,9.724577907854783,0.39969414448220747,stand
23/10/2020, 15:40:05,-9.148975,-2.6033864,2.0213966,0.25007236,-0.025890823,-0.30588377,9.724577907854783,0.3959436801112244,stand
23/10/2020, 15:40:05,-9.204061,-2.7015822,1.9663111,0.25007236,-0.025890823,-0.30588377,9.791815785098214,0.3959436801112244,stand
23/10/2020, 15:40:05,-9.204061,-2.7015822,1.9663111,0.22685951,-0.035664663,-0.3205445,9.791815785098214,0.3943171173087362,stand
23/10/2020, 15:40:05,-9.369317,-2.7231374,1.9663111,0.22685951,-0.035664663,-0.3205445,9.953188362850902,0.3943171173087362,stand
23/10/2020, 15:40:05,-9.369317,-2.7231374,1.9663111,0.20731182,-0.047881965,-0.33154008,9.953188362850902,0.39394123693649785,stand
23/10/2020, 15:40:05,-9.520203,-2.7662477,1.8920655,0.20731182,-0.047881965,-0.33154008,10.092883473316911,0.39394123693649785,stand
23/10/2020, 15:40:05,-9.520203,-2.7662477,1.8920655,0.18532069,-0.064986184,-0.34253567,10.092883473316911,0.3948387654982788,stand
23/10/2020, 15:40:05,-9.580078,-2.7566676,1.8657203,0.18532069,-0.064986184,-0.34253567,10.141894564068314,0.3948387654982788,stand
23/10/2020, 15:40:05,-9.580078,-2.7566676,1.8657203,0.14500359,-0.08697732,-0.3559747,10.141894564068314,0.3940927352622129,stand
23/10/2020, 15:40:05,-9.594449,-2.7015822,1.8226099,0.14500359,-0.08697732,-0.3559747,10.132813313405268,0.3940927352622129,stand
23/10/2020, 15:40:05,-9.594449,-2.7015822,1.8226099,0.08269536,-0.106525004,-0.36941373,10.132813313405268,0.39325895424734836,stand
23/10/2020, 15:40:05,-9.501043,-2.560276,1.8226099,0.08269536,-0.106525004,-0.36941373,10.007334528888519,0.39325895424734836,stand
23/10/2020, 15:40:05,-9.501043,-2.560276,1.8226099,0.003282905,-0.12973787,-0.38651794,10.007334528888519,0.4077239403622015,stand
23/10/2020, 15:40:05,-9.433982,-2.550696,1.7818946,0.003282905,-0.12973787,-0.38651794,9.933841764277316,0.4077239403622015,stand
23/10/2020, 15:40:05,-9.433982,-2.550696,1.7818946,-0.08590339,-0.15295075,-0.40850908,9.933841764277316,0.4445818136938564,stand
23/10/2020, 15:40:05,-9.362132,-2.6297317,1.7699195,-0.08590339,-0.15295075,-0.40850908,9.884210671989857,0.4445818136938564,stand
23/10/2020, 15:40:06,-8.353828,-2.8692336,1.0609937,2.0973282,0.068182394,-0.64430296,8.8963283724404,2.1951220167605863,stand
23/10/2020, 15:40:06,-8.341853,-2.6967921,1.0154883,2.0973282,0.068182394,-0.64430296,8.825554828375,2.1951220167605863,stand
23/10/2020, 15:40:06,-8.341853,-2.6967921,1.0154883,2.0276897,0.06696066,-0.6687376,8.825554828375,2.136169280674171,stand
23/10/2020, 15:40:06,-8.447234,-2.5459058,1.0418335,2.0276897,0.06696066,-0.6687376,8.883851553181676,2.136169280674171,stand
23/10/2020, 15:40:06,-8.447234,-2.5459058,1.0418335,1.9323945,0.06085201,-0.69195044,8.883851553181676,2.0534475645314494,stand
23/10/2020, 15:40:06,-8.50711,-2.4836354,1.0298585,1.9323945,0.06085201,-0.69195044,8.9218814079088,2.0534475645314494,stand
23/10/2020, 15:40:06,-8.50711,-2.4836354,1.0298585,1.8285475,0.044969518,-0.7053895,8.9218814079088,1.960403652834364,stand
23/10/2020, 15:40:06,-8.56938,-2.4908204,1.0777588,1.8285475,0.044969518,-0.7053895,8.988883166446115,1.960403652834364,stand
23/10/2020, 15:40:06,-8.56938,-2.4908204,1.0777588,1.722257,0.03153049,-0.70783293,8.988883166446115,1.8623079413301638,stand
23/10/2020, 15:40:06,-8.50711,-2.3974147,1.1807446,1.722257,0.03153049,-0.70783293,8.916987695051999,1.8623079413301638,stand
23/10/2020, 15:40:06,-8.50711,-2.3974147,1.1807446,1.6208534,0.027865298,-0.7053895,8.916987695051999,1.7679130757481334,stand
23/10/2020, 15:40:06,-8.466394,-2.3806496,1.2885206,1.6208534,0.027865298,-0.7053895,8.88862262560657,1.7679130757481334,stand
23/10/2020, 15:40:06,-8.466394,-2.3806496,1.2885206,1.541441,0.026643569,-0.69561565,8.88862262560657,1.6913400769526714,stand
23/10/2020, 15:40:06,-8.495134,-2.3662794,1.463357,1.541441,0.026643569,-0.69561565,8.93912743727536,1.6913400769526714,stand
23/10/2020, 15:40:06,-8.495134,-2.3662794,1.463357,1.49135,0.02908703,-0.6675159,8.93912743727536,1.63418128828333,stand
23/10/2020, 15:40:06,-8.468789,-2.320774,1.6118482,1.49135,0.02908703,-0.6675159,8.927734084702557,1.63418128828333,stand
23/10/2020, 15:40:06,-8.468789,-2.320774,1.6118482,1.477911,0.044969518,-0.62719876,8.927734084702557,1.6061199977895466,stand
23/10/2020, 15:40:06,-8.487949,-2.2489235,1.6908839,1.477911,0.044969518,-0.62719876,8.942149064853151,1.6061199977895466,stand
23/10/2020, 15:40:06,-8.487949,-2.2489235,1.6908839,1.4766892,0.07062586,-0.5966555,8.942149064853151,1.5942386376887139,stand
23/10/2020, 15:40:06,-8.490345,-2.2129982,1.5711329,1.4766892,0.07062586,-0.5966555,8.913572664411753,1.5942386376887139,stand
23/10/2020, 15:40:06,-8.490345,-2.2129982,1.5711329,1.4766892,0.09139527,-0.57466435,8.913572664411753,1.5871998191015577,stand
23/10/2020, 15:40:06,-8.5502205,-2.2058132,1.5687379,1.4766892,0.09139527,-0.57466435,8.968434681996957,1.5871998191015577,stand
23/10/2020, 15:40:06,-8.5502205,-2.2058132,1.5687379,1.4718024,0.10605603,-0.5465646,8.968434681996957,1.5735891740668582,stand
23/10/2020, 15:40:06,-8.679551,-2.1291726,1.4825171,1.4718024,0.10605603,-0.5465646,9.059019844889725,1.5735891740668582,stand
23/10/2020, 15:40:06,-8.679551,-2.1291726,1.4825171,1.4412591,0.12071678,-0.503804,9.059019844889725,1.5315413689839155,stand
23/10/2020, 15:40:06,-8.808882,-1.9998415,1.4920973,1.4412591,0.12071678,-0.503804,9.15544198365779,1.5315413689839155,stand
23/10/2020, 15:40:06,-8.808882,-1.9998415,1.4920973,1.3606249,0.14026447,-0.45249137,9.15544198365779,1.440736862545712,stand
23/10/2020, 15:40:06,-8.892708,-1.6932789,1.4849122,1.3606249,0.14026447,-0.45249137,9.173462270731525,1.440736862545712,stand
23/10/2020, 15:40:06,-8.892708,-1.6932789,1.4849122,1.2225695,0.1744729,-0.41095254,9.173462270731525,1.3015371217241813,stand
23/10/2020, 15:40:06,-9.038804,-1.5232325,1.5136524,1.2225695,0.1744729,-0.41095254,9.290390711883846,1.3015371217241813,stand
23/10/2020, 15:40:07,-8.837623,-2.5243506,3.051255,-0.29237574,0.063295476,-0.29000127,9.68432120188135,0.4166420898728324,stand
23/10/2020, 15:40:07,-8.890313,-2.440525,2.9482691,-0.29237574,0.063295476,-0.29000127,9.679159120396092,0.4166420898728324,stand
