DATE,TIME,ax,ay,az,gx,gy,gz,ma,mg,label
10/07/2020, 16:06:29,0.74177504,3.493521,9.157332,-0.06349778,0.13432223,0.29306668,9.829122853243485,0.3285764871031409,stand
10/07/2020, 16:06:29,0.7178468,3.4887354,9.18126,-0.06349778,0.13432223,0.29306668,9.84794984674879,0.3285764871031409,stand
10/07/2020, 16:06:29,0.7178468,3.4887354,9.18126,-0.47867557,0.20270446,0.41395667,9.84794984674879,0.6645145064877297,stand
10/07/2020, 16:06:29,0.76331043,3.548556,9.162118,-0.47867557,0.20270446,0.41395667,9.8549124102377,0.6645145064877297,stand
10/07/2020, 16:06:29,0.76331043,3.548556,9.162118,-0.91094893,0.24055889,0.4273889,9.8549124102377,1.0345809853074541,stand
10/07/2020, 16:06:29,0.7393822,3.644269,9.171689,-0.91094893,0.24055889,0.4273889,9.896830919252746,1.0345809853074541,stand
10/07/2020, 16:06:29,0.7393822,3.644269,9.171689,-1.2076789,0.26498112,0.39564002,9.896830919252746,1.2981657736317118,stand
10/07/2020, 16:06:29,0.66759753,3.493521,9.29133,-1.2076789,0.26498112,0.39564002,9.948828810953154,1.2981657736317118,stand
10/07/2020, 16:06:29,0.66759753,3.493521,9.29133,-1.2553023,0.30039334,0.4359367,9.948828810953154,1.3623732407503675,stand
10/07/2020, 16:06:29,0.59342,3.3140593,9.425328,-1.2553023,0.30039334,0.4359367,10.008593747453082,1.3623732407503675,stand
10/07/2020, 16:06:29,0.59342,3.3140593,9.425328,-1.075799,0.26498112,0.44204223,10.008593747453082,1.192878783529234,stand
10/07/2020, 16:06:29,0.552742,3.4097722,9.45165,-1.075799,0.26498112,0.44204223,10.063088556515302,1.192878783529234,stand
10/07/2020, 16:06:29,0.552742,3.4097722,9.45165,-0.7302245,0.21003112,0.37854445,10.063088556515302,0.8489032799515568,stand
10/07/2020, 16:06:29,0.60059845,3.5030923,9.377472,-0.7302245,0.21003112,0.37854445,10.02842728301655,0.8489032799515568,stand
10/07/2020, 16:06:29,0.60059845,3.5030923,9.377472,-0.36389112,0.17095557,0.2283478,10.02842728301655,0.462369194196515,stand
10/07/2020, 16:06:29,0.72502524,3.4241292,9.265009,-0.36389112,0.17095557,0.2283478,9.90407558051483,0.462369194196515,stand
10/07/2020, 16:06:29,0.72502524,3.4241292,9.265009,-0.106236674,0.11234222,0.039075557,9.90407558051483,0.15948010920514982,stand
10/07/2020, 16:06:29,0.8662018,3.1633115,9.221938,-0.106236674,0.11234222,0.039075557,9.78779791636639,0.15948010920514982,stand
10/07/2020, 16:06:29,0.8662018,3.1633115,9.221938,0.054950003,0.07570889,-0.078151114,9.78779791636639,0.12189723229490584,stand
10/07/2020, 16:06:29,0.9092726,2.8761728,9.298509,0.054950003,0.07570889,-0.078151114,9.775551623921773,0.12189723229490584,stand
10/07/2020, 16:06:46,-0.29192436,5.8432727,7.9513497,0.47379112,0.26009667,-0.102573335,9.871829522731792,0.5501359778410493,stand
10/07/2020, 16:06:46,-0.30867413,5.9030933,8.025527,0.47379112,0.26009667,-0.102573335,9.9674908732575,0.5501359778410493,stand
10/07/2020, 16:06:46,-0.44985065,5.9653068,8.090134,0.47379112,0.26009667,-0.102573335,10.06168539974444,0.5501359778410493,stand
10/07/2020, 16:06:46,-3.0173492,5.1924253,8.556734,0.47379112,0.26009667,-0.102573335,10.453868884070625,0.5501359778410493,stand
10/07/2020, 16:06:46,-3.0173492,5.1924253,8.556734,-1.8084656,0.068382226,0.16362889,10.453868884070625,1.8171401622500927,stand
10/07/2020, 16:06:46,-3.7088752,4.706682,8.532805,-1.8084656,0.068382226,0.16362889,10.426762738317022,1.8171401622500927,stand
10/07/2020, 16:06:46,-3.7088752,4.706682,8.532805,-1.7425256,-0.039075557,0.3931978,10.426762738317022,1.7867643384558805,stand
10/07/2020, 16:06:46,-3.9074793,4.398008,8.398808,-1.7425256,-0.039075557,0.3931978,10.254308140816534,1.7867643384558805,stand
10/07/2020, 16:06:46,-3.9074793,4.398008,8.398808,-1.526389,-0.16118668,0.44692668,10.254308140816534,1.5986206535281808,stand
10/07/2020, 16:06:46,-3.790231,4.0677986,8.52802,-1.526389,-0.16118668,0.44692668,10.18037131067403,1.5986206535281808,stand
10/07/2020, 16:06:46,-3.790231,4.0677986,8.52802,-1.16494,-0.32237336,0.29673,10.18037131067403,1.2446117812231283,stand
10/07/2020, 16:06:46,-3.4169507,3.9696927,8.508878,-1.16494,-0.32237336,0.29673,9.991747241052066,1.2446117812231283,stand
10/07/2020, 16:06:46,-3.4169507,3.9696927,8.508878,-0.7754056,-0.43960002,0.02075889,9.991747241052066,0.8915901143955215,stand
10/07/2020, 16:06:46,-3.022135,3.804588,8.748159,-0.7754056,-0.43960002,0.02075889,10.006921782793453,0.8915901143955215,stand
10/07/2020, 16:06:46,-3.022135,3.804588,8.748159,-0.43227336,-0.33580557,-0.12943779,10.006921782793453,0.5624764661724181,stand
10/07/2020, 16:06:46,-2.902494,3.546163,8.8701935,-0.43227336,-0.33580557,-0.12943779,9.983990993314183,0.5624764661724181,stand
10/07/2020, 16:06:46,-2.902494,3.546163,8.8701935,-0.18927222,-0.18683001,-0.06594,9.983990993314183,0.2740027606846927,stand
10/07/2020, 16:06:46,-3.117848,3.4648073,8.566305,-0.18927222,-0.18683001,-0.06594,9.752304813935488,0.2740027606846927,stand
10/07/2020, 16:06:46,-3.117848,3.4648073,8.566305,-0.078151114,-0.14531223,0.109900005,9.752304813935488,0.1982454371966531,stand
10/07/2020, 16:06:46,-3.359523,3.6921253,8.080562,-0.078151114,-0.14531223,0.109900005,9.498087225444973,0.1982454371966531,stand
10/07/2020, 16:06:47,1.1772687,0.44027936,7.6666036,-1.5105145,1.5532534,2.6925502,7.768952171272599,3.456020355122749,stand
10/07/2020, 16:06:47,1.1772687,0.44027936,7.6666036,-1.2565234,1.7413045,2.6937711,7.768952171272599,3.4449086010091365,stand
10/07/2020, 16:06:47,1.3591232,0.6771688,7.7790666,-1.2565234,1.7413045,2.6937711,7.925884815331145,3.4449086010091365,stand
10/07/2020, 16:06:47,1.3591232,0.6771688,7.7790666,-1.0403867,1.91226,2.6778967,7.925884815331145,3.4511264678263593,stand
10/07/2020, 16:06:47,1.3304094,1.0504491,7.881958,-1.0403867,1.91226,2.6778967,8.062176791018837,3.4511264678263593,stand
10/07/2020, 16:06:47,1.3304094,1.0504491,7.881958,-0.85111445,2.0270445,2.6742334,8.062176791018837,3.4619112971223607,stand
10/07/2020, 16:06:47,1.134198,1.2203395,8.176275,-0.85111445,2.0270445,2.6742334,8.344286104456103,3.4619112971223607,stand
10/07/2020, 16:06:47,1.134198,1.2203395,8.176275,-0.74976224,2.13206,2.6864445,8.344286104456103,3.51067053954103,stand
10/07/2020, 16:06:47,0.8039884,1.0001999,8.415557,-0.74976224,2.13206,2.6864445,8.512837087398559,3.51067053954103,stand
10/07/2020, 16:06:47,0.8039884,1.0001999,8.415557,-0.73999333,2.21998,2.6986556,8.512837087398559,3.571924329690278,stand
10/07/2020, 16:06:47,0.47138608,0.50009996,8.331808,-0.73999333,2.21998,2.6986556,8.360103519143255,3.571924329690278,stand
10/07/2020, 16:06:47,0.47138608,0.50009996,8.331808,-0.76075226,2.2895834,2.679118,8.360103519143255,3.60535839695984,stand
10/07/2020, 16:06:47,0.23928227,-0.1268196,8.188239,-0.76075226,2.2895834,2.679118,8.192716199877106,3.60535839695984,stand
10/07/2020, 16:06:47,0.23928227,-0.1268196,8.188239,-0.76441556,2.3860512,2.6278312,8.192716199877106,3.63084952864963,stand
10/07/2020, 16:06:47,0.2105684,-0.5982057,8.286345,-0.76441556,2.3860512,2.6278312,8.310577280348213,3.63084952864963,stand
10/07/2020, 16:06:47,0.2105684,-0.5982057,8.286345,-0.7204556,2.5301423,2.5618913,8.310577280348213,3.6720516703621113,stand
10/07/2020, 16:06:47,0.25124636,-0.7920243,8.432307,-0.7204556,2.5301423,2.5618913,8.47314774423852,3.6720516703621113,stand
10/07/2020, 16:06:47,0.25124636,-0.7920243,8.432307,-0.6056711,2.6852233,2.5057201,8.47314774423852,3.722350775317636,stand
10/07/2020, 16:06:47,0.21535404,-0.6795616,8.676374,-0.6056711,2.6852233,2.5057201,8.705610529705526,3.722350775317636,stand
10/07/2020, 16:06:47,0.21535404,-0.6795616,8.676374,-0.42983112,2.7987869,2.4678657,8.705610529705526,3.7561048869216154,stand
10/07/2020, 16:06:48,-7.8987074,-0.038285162,5.9724855,0.06349778,-0.0012211112,-0.0048844446,9.902607118167557,0.06369707371265725,stand
10/07/2020, 16:06:48,-7.8987074,-0.038285162,5.9724855,0.026864445,-0.026864445,-0.0048844446,9.902607118167557,0.03830475939444534,stand
10/07/2020, 16:06:48,-7.8891363,-0.10289137,5.9676995,0.026864445,-0.026864445,-0.0048844446,9.892547501761568,0.03830475939444534,stand
10/07/2020, 16:06:48,-7.8891363,-0.10289137,5.9676995,0.0012211112,-0.04396,-0.0048844446,9.892547501761568,0.044247379899366245,stand
10/07/2020, 16:06:48,-7.8149586,-0.16271193,5.9676995,0.0012211112,-0.04396,-0.0048844446,9.834301719733512,0.044247379899366245,stand
10/07/2020, 16:06:48,-7.8149586,-0.16271193,5.9676995,-0.0036633336,-0.057392225,-0.01099,9.834301719733512,0.05854970173122068,stand
10/07/2020, 16:06:48,-7.704889,-0.24646074,5.960521,-0.0036633336,-0.057392225,-0.01099,9.744427528631368,0.05854970173122068,stand
10/07/2020, 16:06:48,-7.704889,-0.24646074,5.960521,0.0024422223,-0.057392225,-0.007326667,9.744427528631368,0.05790951523361987,stand
10/07/2020, 16:06:48,-7.5756764,-0.3062813,5.9676995,0.0024422223,-0.057392225,-0.007326667,9.648736675274327,0.05790951523361987,stand
10/07/2020, 16:06:48,-7.5756764,-0.3062813,5.9676995,0.026864445,-0.04029667,-0.017095556,9.648736675274327,0.05135930358682468,stand
10/07/2020, 16:06:48,-7.463214,-0.3182454,5.953343,0.026864445,-0.04029667,-0.017095556,9.55212719893865,0.05135930358682468,stand
10/07/2020, 16:06:48,-7.463214,-0.3182454,5.953343,0.047623336,-0.023201112,-0.019537779,9.55212719893865,0.05646236390368477,stand
10/07/2020, 16:06:48,-7.3746796,-0.27996024,5.9318075,0.047623336,-0.023201112,-0.019537779,9.468400966485966,0.05646236390368477,stand
10/07/2020, 16:06:48,-7.3746796,-0.27996024,5.9318075,0.046402223,-0.008547778,-0.017095556,9.468400966485966,0.050184548434173235,stand
10/07/2020, 16:06:48,-7.4105716,-0.18185452,5.8624153,0.046402223,-0.008547778,-0.017095556,9.450796550887889,0.050184548434173235,stand
10/07/2020, 16:06:48,-7.4105716,-0.18185452,5.8624153,0.025643334,-0.007326667,-0.013432222,9.450796550887889,0.02986109876275739,stand
10/07/2020, 16:06:48,-7.4512496,-0.124426775,5.804988,0.025643334,-0.007326667,-0.013432222,9.44640075482905,0.02986109876275739,stand
10/07/2020, 16:06:48,-7.4512496,-0.124426775,5.804988,-0.02075889,-0.019537779,-0.02075889,9.44640075482905,0.03526454008829712,stand
10/07/2020, 16:06:48,-7.5110703,-0.09571291,5.8097734,-0.02075889,-0.019537779,-0.02075889,9.496252143180193,0.03526454008829712,stand
10/07/2020, 16:06:48,-7.5110703,-0.09571291,5.8097734,-0.048844445,-0.039075557,-0.01099,9.496252143180193,0.06350951998824717,stand
10/07/2020, 16:06:49,-7.7001033,-0.526421,5.7858453,-0.12821667,-0.03052778,-0.029306669,9.64596886002688,0.13501977772548673,stand
10/07/2020, 16:06:49,-7.6546397,-0.51206404,5.8217373,-0.12821667,-0.03052778,-0.029306669,9.63059416157292,0.13501977772548673,stand
10/07/2020, 16:06:49,-7.6546397,-0.51206404,5.8217373,-0.12699556,-0.015874445,-0.034191113,9.63059416157292,0.13247227398314743,stand
10/07/2020, 16:06:49,-7.60439,-0.51206404,5.7954164,-0.12699556,-0.015874445,-0.034191113,9.574748549051519,0.13247227398314743,stand
10/07/2020, 16:06:49,-7.60439,-0.51206404,5.7954164,-0.117226675,-0.007326667,-0.046402223,9.574748549051519,0.12628911179043883,stand
10/07/2020, 16:06:49,-7.594819,-0.55513483,5.812166,-0.117226675,-0.007326667,-0.046402223,9.579703934420454,0.12628911179043883,stand
10/07/2020, 16:06:49,-7.594819,-0.55513483,5.812166,-0.117226675,0.0061055557,-0.054950003,9.579703934420454,0.1296104701066322,stand
10/07/2020, 16:06:49,-7.618747,-0.5886344,5.800202,-0.117226675,0.0061055557,-0.054950003,9.593442648095577,0.1296104701066322,stand
10/07/2020, 16:06:49,-7.618747,-0.5886344,5.800202,-0.10745778,0.018316668,-0.046402223,9.593442648095577,0.11847295467279018,stand
10/07/2020, 16:06:49,-7.661818,-0.5910272,5.84088,-0.10745778,0.018316668,-0.046402223,9.652390732060908,0.11847295467279018,stand
10/07/2020, 16:06:49,-7.661818,-0.5910272,5.84088,-0.11112112,0.035412222,-0.04396,9.652390732060908,0.124637113550691,stand
10/07/2020, 16:06:49,-7.676175,-0.53359944,5.871987,-0.11112112,0.035412222,-0.04396,9.679288328552895,0.124637113550691,stand
10/07/2020, 16:06:49,-7.676175,-0.53359944,5.871987,-0.1306589,0.015874445,-0.034191113,9.679288328552895,0.13598815024924155,stand
10/07/2020, 16:06:49,-7.6953177,-0.5455636,5.905486,-0.1306589,0.015874445,-0.034191113,9.715468129559705,0.13598815024924155,stand
10/07/2020, 16:06:49,-7.6953177,-0.5455636,5.905486,-0.14042778,-0.007326667,-0.03052778,9.715468129559705,0.14389436288115093,stand
10/07/2020, 16:06:49,-7.668997,-0.6436693,5.9174504,-0.14042778,-0.007326667,-0.03052778,9.7079370532988,0.14389436288115093,stand
10/07/2020, 16:06:49,-7.668997,-0.6436693,5.9174504,-0.109900005,-0.008547778,-0.037854444,9.7079370532988,0.11655056669017873,stand
10/07/2020, 16:06:49,-7.597212,-0.7609176,5.989235,-0.109900005,-0.008547778,-0.037854444,9.703997026308942,0.11655056669017873,stand
10/07/2020, 16:06:49,-7.597212,-0.7609176,5.989235,-0.047623336,0.012211111,-0.03297,9.703997026308942,0.05919555985571206,stand
10/07/2020, 16:06:49,-7.4919276,-0.83988076,5.977271,-0.047623336,0.012211111,-0.03297,9.620922449643256,0.05919555985571206,stand
10/07/2020, 16:06:50,-7.5493555,-2.457429,5.477171,0.042738892,0.068382226,0.019537779,9.645264489811591,0.0829726853604192,stand
10/07/2020, 16:06:50,-7.554141,-2.457429,5.505885,0.042738892,0.068382226,0.019537779,9.66533883936232,0.0829726853604192,stand
10/07/2020, 16:06:50,-7.554141,-2.457429,5.505885,0.05250778,0.08303556,0.015874445,9.66533883936232,0.09951868668408152,stand
10/07/2020, 16:06:50,-7.5661054,-2.4454648,5.4963136,0.05250778,0.08303556,0.015874445,9.66621495812417,0.09951868668408152,stand
10/07/2020, 16:06:50,-7.5661054,-2.4454648,5.4963136,0.059834447,0.085477784,0.009768889,9.66621495812417,0.10479524713196868,stand
10/07/2020, 16:06:50,-7.580462,-2.4191437,5.5202417,0.059834447,0.085477784,0.009768889,9.684458104689577,0.10479524713196868,stand
10/07/2020, 16:06:50,-7.580462,-2.4191437,5.5202417,0.068382226,0.08792,0.007326667,9.684458104689577,0.11162318638860723,stand
10/07/2020, 16:06:50,-7.645068,-2.4071796,5.515456,0.068382226,0.08792,0.007326667,9.729431534849828,0.11162318638860723,stand
10/07/2020, 16:06:50,-7.645068,-2.4071796,5.515456,0.078151114,0.085477784,0.0036633336,9.729431534849828,0.11587695319508472,stand
10/07/2020, 16:06:50,-7.661818,-2.4071796,5.556134,0.078151114,0.085477784,0.0036633336,9.765684645678716,0.11587695319508472,stand
10/07/2020, 16:06:50,-7.661818,-2.4071796,5.556134,0.085477784,0.07693,0.0,9.765684645678716,0.1149985944121235,stand
10/07/2020, 16:06:50,-7.7096744,-2.3808584,5.615955,0.085477784,0.07693,0.0,9.83089592576055,0.1149985944121235,stand
10/07/2020, 16:06:50,-7.7096744,-2.3808584,5.615955,0.07693,0.06716111,-0.0048844446,9.83089592576055,0.10223843706789977,stand
10/07/2020, 16:06:50,-7.6737823,-2.3545375,5.639883,0.07693,0.06716111,-0.0048844446,9.810151019861246,0.10223843706789977,stand
10/07/2020, 16:06:50,-7.6737823,-2.3545375,5.639883,0.07448778,0.064718895,-0.02198,9.810151019861246,0.10109443888530824,stand
10/07/2020, 16:06:50,-7.6546397,-2.3425734,5.656633,0.07448778,0.064718895,-0.02198,9.801972004636738,0.10109443888530824,stand
10/07/2020, 16:06:50,-7.6546397,-2.3425734,5.656633,0.06960334,0.058613338,-0.03297,9.801972004636738,0.09678413621581038,stand
10/07/2020, 16:06:50,-7.652247,-2.309074,5.6709895,0.06960334,0.058613338,-0.03297,9.800450391054717,0.09678413621581038,stand
10/07/2020, 16:06:50,-7.652247,-2.309074,5.6709895,0.06594,0.05617111,-0.029306669,9.800450391054717,0.0914448371834395,stand
10/07/2020, 16:06:50,-7.6737823,-2.309074,5.6853466,0.06594,0.05617111,-0.029306669,9.825574992136929,0.0914448371834395,stand
10/07/2020, 16:06:51,-7.6019974,-2.400001,5.3647084,0.009768889,0.014653334,-0.028085556,9.60887431506587,0.03315041260526777,stand
10/07/2020, 16:06:51,-7.62114,-2.37368,5.3503513,0.009768889,0.014653334,-0.028085556,9.609494868552261,0.03315041260526777,stand
10/07/2020, 16:06:51,-7.62114,-2.37368,5.3503513,0.0,0.009768889,-0.019537779,9.609494868552261,0.021843900507324685,stand
10/07/2020, 16:06:51,-7.647461,-2.3665016,5.326423,0.0,0.009768889,-0.019537779,9.615340463902342,0.021843900507324685,stand
10/07/2020, 16:06:51,-7.647461,-2.3665016,5.326423,-0.0024422223,0.009768889,-0.028085556,9.615340463902342,0.029836120674468294,stand
10/07/2020, 16:06:51,-7.6737823,-2.388037,5.3336015,-0.0024422223,0.009768889,-0.028085556,9.645566897715279,0.029836120674468294,stand
10/07/2020, 16:06:51,-7.6737823,-2.388037,5.3336015,-0.0024422223,0.008547778,-0.028085556,9.645566897715279,0.029458910568616034,stand
10/07/2020, 16:06:51,-7.6809607,-2.4335005,5.3336015,-0.0024422223,0.008547778,-0.028085556,9.662628322558692,0.029458910568616034,stand
10/07/2020, 16:06:51,-7.6809607,-2.4335005,5.3336015,0.008547778,0.014653334,-0.024422223,9.662628322558692,0.02973599982682112,stand
10/07/2020, 16:06:51,-7.6402826,-2.4622145,5.3886366,0.008547778,0.014653334,-0.024422223,9.668186131070721,0.02973599982682112,stand
10/07/2020, 16:06:51,-7.6402826,-2.4622145,5.3886366,0.026864445,0.02198,-0.02075889,9.668186131070721,0.04044441028714181,stand
10/07/2020, 16:06:51,-7.628319,-2.4670002,5.4436717,0.026864445,0.02198,-0.02075889,9.690763609646389,0.04044441028714181,stand
10/07/2020, 16:06:51,-7.628319,-2.4670002,5.4436717,0.035412222,0.03052778,-0.01099,9.690763609646389,0.0480286469322174,stand
10/07/2020, 16:06:51,-7.62114,-2.4837499,5.4293146,0.035412222,0.03052778,-0.01099,9.6813349037393,0.0480286469322174,stand
10/07/2020, 16:06:51,-7.62114,-2.4837499,5.4293146,0.039075557,0.03052778,-0.008547778,9.6813349037393,0.050318078464504756,stand
10/07/2020, 16:06:51,-7.6570325,-2.4670002,5.4149575,0.039075557,0.03052778,-0.008547778,9.69731930706297,0.050318078464504756,stand
10/07/2020, 16:06:51,-7.6570325,-2.4670002,5.4149575,0.03174889,0.03174889,-0.013432222,9.69731930706297,0.046865859033093676,stand
10/07/2020, 16:06:51,-7.6546397,-2.4311078,5.4149575,0.03174889,0.03174889,-0.013432222,9.686359438657039,0.046865859033093676,stand
10/07/2020, 16:06:51,-7.6546397,-2.4311078,5.4149575,0.023201112,0.023201112,-0.008547778,9.686359438657039,0.033906454864470054,stand
10/07/2020, 16:06:51,-7.635497,-2.4191437,5.383851,0.023201112,0.023201112,-0.008547778,9.650850953775352,0.033906454864470054,stand
10/07/2020, 16:06:52,-7.6594253,-2.3282163,5.948557,0.015874445,-0.13676445,0.026864445,9.973600939064722,0.14027904942406488,stand
10/07/2020, 16:06:52,-7.6833534,-2.1678972,6.128019,0.015874445,-0.13676445,0.026864445,10.064110160116746,0.14027904942406488,stand
10/07/2020, 16:06:52,-7.6833534,-2.1678972,6.128019,-0.05617111,-0.18072446,0.03174889,10.064110160116746,0.19189714743222944,stand
10/07/2020, 16:06:52,-7.757531,-2.0386848,6.2668023,-0.05617111,-0.18072446,0.03174889,10.178818049961007,0.19189714743222944,stand
10/07/2020, 16:06:52,-7.757531,-2.0386848,6.2668023,-0.16362889,-0.24544334,0.028085556,10.178818049961007,0.2963201775548435,stand
10/07/2020, 16:06:52,-7.7623167,-1.9860427,6.3122663,-0.16362889,-0.24544334,0.028085556,10.2001290598583,0.2963201775548435,stand
10/07/2020, 16:06:52,-7.7623167,-1.9860427,6.3122663,-0.27108666,-0.31993112,0.036633335,10.2001290598583,0.42093455719125766,stand
10/07/2020, 16:06:52,-7.786245,-2.0410776,6.317052,-0.27108666,-0.31993112,0.036633335,10.232143056996723,0.42093455719125766,stand
10/07/2020, 16:06:52,-7.786245,-2.0410776,6.317052,-0.33336335,-0.39197668,0.029306669,10.232143056996723,0.5153986106139771,stand
10/07/2020, 16:06:52,-7.8149586,-2.2037897,6.398408,-0.33336335,-0.39197668,0.029306669,10.337789449158734,0.5153986106139771,stand
10/07/2020, 16:06:52,-7.8149586,-2.2037897,6.398408,-0.3284789,-0.43349445,0.015874445,10.337789449158734,0.5441211487138297,stand
10/07/2020, 16:06:52,-7.812566,-2.4765713,6.5443697,-0.3284789,-0.43349445,0.015874445,10.488010520749366,0.5441211487138297,stand
10/07/2020, 16:06:52,-7.812566,-2.4765713,6.5443697,-0.24788557,-0.4261678,-0.009768889,10.488010520749366,0.49311425542669324,stand
10/07/2020, 16:06:52,-7.867601,-2.6656044,6.613762,-0.24788557,-0.4261678,-0.009768889,10.618212526735759,0.49311425542669324,stand
10/07/2020, 16:06:52,-7.867601,-2.6656044,6.613762,-0.117226675,-0.41884112,-0.03174889,10.618212526735759,0.4360939947325785,stand
10/07/2020, 16:06:52,-7.881958,-2.7326035,6.5515485,-0.117226675,-0.41884112,-0.03174889,10.607316894337085,0.4360939947325785,stand
10/07/2020, 16:06:52,-7.881958,-2.7326035,6.5515485,-0.035412222,-0.44204223,-0.059834447,10.607316894337085,0.44747683848279124,stand
10/07/2020, 16:06:52,-7.881958,-2.6775684,6.4008007,-0.035412222,-0.44204223,-0.059834447,10.50070875842084,0.44747683848279124,stand
10/07/2020, 16:06:52,-7.881958,-2.6775684,6.4008007,-0.045181114,-0.48844448,-0.09768889,10.50070875842084,0.5001624335457888,stand
10/07/2020, 16:06:52,-7.853244,-2.6656044,6.309873,-0.045181114,-0.48844448,-0.09768889,10.4208149285672,0.5001624335457888,stand
10/07/2020, 16:06:53,-6.3864436,-3.888337,5.1349974,-0.6618422,0.13554333,-0.0024422223,9.070502954012145,0.6755835200637167,stand
10/07/2020, 16:06:53,-6.3864436,-3.888337,5.1349974,-0.68504333,0.13920668,0.015874445,9.070502954012145,0.6992244760459688,stand
10/07/2020, 16:06:53,-6.498906,-4.0941195,5.096712,-0.68504333,0.13920668,0.015874445,9.218138108946505,0.6992244760459688,stand
10/07/2020, 16:06:53,-6.498906,-4.0941195,5.096712,-0.6435256,0.15630223,0.036633335,9.218138108946505,0.6632477563521942,stand
10/07/2020, 16:06:53,-6.539584,-4.331009,5.113462,-0.6435256,0.15630223,0.036633335,9.363294959780125,0.6632477563521942,stand
10/07/2020, 16:06:53,-6.539584,-4.331009,5.113462,-0.54461557,0.18316667,0.06105556,9.363294959780125,0.577826898898891,stand
10/07/2020, 16:06:53,-6.5371914,-4.496114,5.1326046,-0.54461557,0.18316667,0.06105556,9.449525932515837,0.577826898898891,stand
10/07/2020, 16:06:53,-6.5371914,-4.496114,5.1326046,-0.42861003,0.23811668,0.08792,9.449525932515837,0.49813254863886175,stand
10/07/2020, 16:06:53,-6.5084777,-4.5248275,5.1158547,-0.42861003,0.23811668,0.08792,9.434315834331663,0.49813254863886175,stand
10/07/2020, 16:06:53,-6.5084777,-4.5248275,5.1158547,-0.35412225,0.2845189,0.10867889,9.434315834331663,0.46708101387388884,stand
10/07/2020, 16:06:53,-6.491728,-4.3764725,5.1421757,-0.35412225,0.2845189,0.10867889,9.366857113275797,0.46708101387388884,stand
10/07/2020, 16:06:53,-6.491728,-4.3764725,5.1421757,-0.35290113,0.32115224,0.1306589,9.366857113275797,0.4947218574781828,stand
10/07/2020, 16:06:53,-6.530013,-4.211368,5.1014977,-0.35290113,0.32115224,0.1306589,9.295266015321038,0.4947218574781828,stand
10/07/2020, 16:06:53,-6.530013,-4.211368,5.1014977,-0.4481478,0.34801668,0.16362889,9.295266015321038,0.5905306739621173,stand
10/07/2020, 16:06:53,-6.6041903,-4.0510488,5.087141,-0.4481478,0.34801668,0.16362889,9.268512832396025,0.5905306739621173,stand
10/07/2020, 16:06:53,-6.6041903,-4.0510488,5.087141,-0.6239878,0.3504589,0.18683001,9.268512832396025,0.7396537398078955,stand
10/07/2020, 16:06:53,-6.6999035,-4.0534415,5.0847483,-0.6239878,0.3504589,0.18683001,9.336688914891562,0.7396537398078955,stand
10/07/2020, 16:06:53,-6.6999035,-4.0534415,5.0847483,-0.8120389,0.3492378,0.20270446,9.336688914891562,0.9068976299439642,stand
10/07/2020, 16:06:53,-6.769295,-4.208975,5.0249276,-0.8120389,0.3492378,0.20270446,9.422776897091113,0.9068976299439642,stand
10/07/2020, 16:06:53,-6.769295,-4.208975,5.0249276,-0.9072856,0.34313223,0.21003112,9.422776897091113,0.9924816901974826,stand
10/07/2020, 16:06:54,-9.174082,-2.3114667,0.5455636,0.23567446,0.5507211,0.30772,9.476512798057723,0.6734447198500798,stand
10/07/2020, 16:06:54,-9.38465,-2.3832514,0.5886344,0.23567446,0.5507211,0.30772,9.700414307783433,0.6734447198500798,stand
10/07/2020, 16:06:54,-9.38465,-2.3832514,0.5886344,0.30161446,0.53851,0.3174889,9.700414307783433,0.694091880242211,stand
10/07/2020, 16:06:54,-9.482756,-2.1918256,0.80877405,0.30161446,0.53851,0.3174889,9.766313018827745,0.694091880242211,stand
10/07/2020, 16:06:54,-9.482756,-2.1918256,0.80877405,0.33336335,0.55438447,0.26986557,9.766313018827745,0.7009284511876285,stand
10/07/2020, 16:06:54,-9.480363,-1.8568304,0.88295156,0.33336335,0.55438447,0.26986557,9.700757857006348,0.7009284511876285,stand
10/07/2020, 16:06:54,-9.480363,-1.8568304,0.88295156,0.3052778,0.5470578,0.2515489,9.700757857006348,0.6750878600308224,stand
10/07/2020, 16:06:54,-9.47797,-1.6007984,0.8470592,0.3052778,0.5470578,0.2515489,9.649455028459817,0.6750878600308224,stand
10/07/2020, 16:06:54,-9.47797,-1.6007984,0.8470592,0.20026223,0.5226356,0.2735289,9.649455028459817,0.6229534267784506,stand
10/07/2020, 16:06:54,-9.51147,-1.68694,0.8446664,0.20026223,0.5226356,0.2735289,9.696766796759569,0.6229534267784506,stand
10/07/2020, 16:06:54,-9.51147,-1.68694,0.8446664,0.13920668,0.48844448,0.2942878,9.696766796759569,0.586993880910753,stand
10/07/2020, 16:06:54,-9.466006,-1.8305093,0.65324056,0.13920668,0.48844448,0.2942878,9.663475690494213,0.586993880910753,stand
10/07/2020, 16:06:54,-9.466006,-1.8305093,0.65324056,0.11966889,0.46524334,0.30405667,9.663475690494213,0.5685265782806304,stand
10/07/2020, 16:06:54,-9.346365,-2.1535404,0.5383851,0.11966889,0.46524334,0.30405667,9.606358982024975,0.5685265782806304,stand
10/07/2020, 16:06:54,-9.346365,-2.1535404,0.5383851,0.15752333,0.4689067,0.3174889,9.606358982024975,0.5877808280569206,stand
10/07/2020, 16:06:54,-9.312865,-2.3186452,0.33499518,0.15752333,0.4689067,0.3174889,9.603009778948143,0.5877808280569206,stand
10/07/2020, 16:06:54,-9.312865,-2.3186452,0.33499518,0.24910668,0.45791668,0.3052778,9.603009778948143,0.6040996198232969,stand
10/07/2020, 16:06:54,-9.341579,-2.2301106,0.17467605,0.24910668,0.45791668,0.3052778,9.605676009203293,0.6040996198232969,stand
10/07/2020, 16:06:54,-9.341579,-2.2301106,0.17467605,0.29917222,0.44326335,0.26620224,9.605676009203293,0.5973692753627341,stand
10/07/2020, 16:06:54,-9.420543,-1.8233309,0.08135597,0.29917222,0.44326335,0.26620224,9.595716720018176,0.5973692753627341,stand
10/07/2020, 16:06:55,-8.662018,-3.926622,1.5290136,-0.12577444,-0.13798556,-0.13554333,9.632590259124024,0.23071891836829647,stand
10/07/2020, 16:06:55,-8.662018,-3.926622,1.5290136,-0.14409111,-0.13920668,-0.12455334,9.632590259124024,0.23591159846319062,stand
10/07/2020, 16:06:55,-8.642876,-4.022335,1.564906,-0.14409111,-0.13920668,-0.12455334,9.660611261084398,0.23591159846319062,stand
10/07/2020, 16:06:55,-8.642876,-4.022335,1.564906,-0.14287001,-0.12455334,-0.11112112,9.660611261084398,0.2197118027494974,stand
10/07/2020, 16:06:55,-8.578269,-4.1850467,1.6031911,-0.14287001,-0.12455334,-0.11112112,9.678405684591763,0.2197118027494974,stand
10/07/2020, 16:06:55,-8.578269,-4.1850467,1.6031911,-0.109900005,-0.09524667,-0.10013112,9.678405684591763,0.1765677783028664,stand
10/07/2020, 16:06:55,-8.563912,-4.28076,1.6510476,-0.109900005,-0.09524667,-0.10013112,9.71552665329179,0.1765677783028664,stand
10/07/2020, 16:06:55,-8.563912,-4.28076,1.6510476,-0.054950003,-0.06594,-0.09280445,9.71552665329179,0.1264130204842523,stand
10/07/2020, 16:06:55,-8.525627,-4.338187,1.672583,-0.054950003,-0.06594,-0.09280445,9.711010258475724,0.1264130204842523,stand
10/07/2020, 16:06:55,-8.525627,-4.338187,1.672583,0.0061055557,-0.039075557,-0.08792,9.711010258475724,0.09640593259928644,stand
10/07/2020, 16:06:55,-8.477771,-4.304688,1.6582261,0.0061055557,-0.039075557,-0.08792,9.651562065918268,0.09640593259928644,stand
10/07/2020, 16:06:55,-8.477771,-4.304688,1.6582261,0.048844445,-0.013432222,-0.08303556,9.651562065918268,0.09726822926376984,stand
10/07/2020, 16:06:55,-8.489735,-4.2568316,1.6390835,0.048844445,-0.013432222,-0.08303556,9.637572558430092,0.09726822926376984,stand
10/07/2020, 16:06:55,-8.489735,-4.2568316,1.6390835,0.06105556,0.007326667,-0.08425667,9.637572558430092,0.10431034506900455,stand
10/07/2020, 16:06:55,-8.492127,-4.1443686,1.6223338,0.06105556,0.007326667,-0.08425667,9.587699746676101,0.10431034506900455,stand
10/07/2020, 16:06:55,-8.492127,-4.1443686,1.6223338,0.05250778,0.017095556,-0.07937223,9.587699746676101,0.09669165172385351,stand
10/07/2020, 16:06:55,-8.547162,-4.046263,1.6199409,0.05250778,0.017095556,-0.07937223,9.594291723967421,0.09669165172385351,stand
10/07/2020, 16:06:55,-8.547162,-4.046263,1.6199409,0.034191113,0.029306669,-0.068382226,9.594291723967421,0.0818782136133049,stand
10/07/2020, 16:06:55,-8.599805,-3.993621,1.6151553,0.034191113,0.029306669,-0.068382226,9.618439597520275,0.0818782136133049,stand
10/07/2020, 16:06:55,-8.599805,-3.993621,1.6151553,0.01099,0.034191113,-0.070824444,9.618439597520275,0.07940978669289418,stand
10/07/2020, 16:06:56,-8.666803,-3.0173492,1.2035898,-0.04029667,-0.23323223,0.029306669,9.25562020263184,0.23849523169042747,stand
10/07/2020, 16:06:56,-8.633304,-2.7158537,1.4691931,-0.04029667,-0.23323223,0.029306669,9.168877871308398,0.23849523169042747,stand
10/07/2020, 16:06:56,-8.633304,-2.7158537,1.4691931,-0.31993112,-0.30649891,0.01099,9.168877871308398,0.44319102689140233,stand
10/07/2020, 16:06:56,-8.504091,-2.696711,1.5002998,-0.31993112,-0.30649891,0.01099,9.046696540156885,0.44319102689140233,stand
10/07/2020, 16:06:56,-8.504091,-2.696711,1.5002998,-0.5470578,-0.3309211,0.0061055557,9.046696540156885,0.6393890097988207,stand
10/07/2020, 16:06:56,-8.458628,-3.010171,1.6031911,-0.5470578,-0.3309211,0.0061055557,9.120292400524033,0.6393890097988207,stand
10/07/2020, 16:06:56,-8.458628,-3.010171,1.6031911,-0.6618422,-0.39686114,-0.028085556,9.120292400524033,0.7722193296602794,stand
10/07/2020, 16:06:56,-8.585447,-3.6466618,1.8089739,-0.6618422,-0.39686114,-0.028085556,9.50160166069662,0.7722193296602794,stand
10/07/2020, 16:06:56,-8.585447,-3.6466618,1.8089739,-0.70580226,-0.48844448,-0.05372889,9.50160166069662,0.8600125777063906,stand
10/07/2020, 16:06:56,-8.647661,-4.2424746,1.9166509,-0.70580226,-0.48844448,-0.05372889,9.821109172831102,0.8600125777063906,stand
10/07/2020, 16:06:56,-8.647661,-4.2424746,1.9166509,-0.70946556,-0.5568267,-0.0024422223,9.821109172831102,0.9018887601609552,stand
10/07/2020, 16:06:56,-8.566305,-4.587041,2.053042,-0.70946556,-0.5568267,-0.0024422223,9.931641834010257,0.9018887601609552,stand
10/07/2020, 16:06:56,-8.566305,-4.587041,2.053042,-0.7619734,-0.6667267,0.058613338,9.931641834010257,1.0141811773392762,stand
10/07/2020, 16:06:56,-8.362915,-4.634897,2.2707887,-0.7619734,-0.6667267,0.058613338,9.827364930855879,1.0141811773392762,stand
10/07/2020, 16:06:56,-8.362915,-4.634897,2.2707887,-0.85722005,-0.83524,0.10867889,9.827364930855879,1.2017750165525298,stand
10/07/2020, 16:06:56,-7.9657063,-4.395615,2.617748,-0.85722005,-0.83524,0.10867889,9.467128099442853,1.2017750165525298,stand
10/07/2020, 16:06:56,-7.9657063,-4.395615,2.617748,-0.88408446,-0.9378134,0.12821667,9.467128099442853,1.2951983738568353,stand
10/07/2020, 16:06:56,-7.3268228,-4.287938,2.7589245,-0.88408446,-0.9378134,0.12821667,8.92638837024818,1.2951983738568353,stand
10/07/2020, 16:06:56,-7.3268228,-4.287938,2.7589245,-0.98910004,-0.8437878,0.11600556,8.92638837024818,1.305279284704842,stand
10/07/2020, 16:06:56,-6.8985076,-4.409972,2.8091738,-0.98910004,-0.8437878,0.11600556,8.656137668021296,1.305279284704842,stand
10/07/2020, 16:06:57,-8.073383,-3.2303107,3.0867412,0.2503278,0.23201112,-0.1526389,9.22726377563435,0.37388741644886736,stand
10/07/2020, 16:06:57,-8.073383,-3.2303107,3.0867412,0.29673,0.2820767,-0.14409111,9.22726377563435,0.43402558245902884,stand
10/07/2020, 16:06:57,-8.114061,-3.2039895,3.2159536,0.29673,0.2820767,-0.14409111,9.29762861802174,0.43402558245902884,stand
10/07/2020, 16:06:57,-8.114061,-3.2039895,3.2159536,0.32970002,0.3260367,-0.16362889,9.29762861802174,0.49170768088592937,stand
10/07/2020, 16:06:57,-8.195417,-3.0795627,3.4289148,0.32970002,0.3260367,-0.16362889,9.402448044832996,0.49170768088592937,stand
10/07/2020, 16:06:57,-8.195417,-3.0795627,3.4289148,0.3614489,0.3394689,-0.16240779,9.402448044832996,0.5217861034494535,stand
10/07/2020, 16:06:57,-8.238488,-2.9240294,3.751946,0.3614489,0.3394689,-0.16240779,9.513134814503706,0.5217861034494535,stand
10/07/2020, 16:06:57,-8.238488,-2.9240294,3.751946,0.36389112,0.33336335,-0.15386,9.513134814503706,0.5169340161273187,stand
10/07/2020, 16:06:57,-8.329415,-2.6943183,4.180261,0.36389112,0.33336335,-0.15386,9.701190330335407,0.5169340161273187,stand
10/07/2020, 16:06:57,-8.329415,-2.6943183,4.180261,0.28818223,0.30772,-0.13432223,9.701190330335407,0.4424737949314534,stand
10/07/2020, 16:06:57,-8.394022,-2.2947168,4.666004,0.28818223,0.30772,-0.13432223,9.87405314462036,0.4424737949314534,stand
10/07/2020, 16:06:57,-8.394022,-2.2947168,4.666004,0.16851334,0.27963445,-0.13554333,9.87405314462036,0.35350270823988456,stand
10/07/2020, 16:06:57,-8.480164,-1.7922242,4.8693943,0.16851334,0.27963445,-0.13554333,9.941641845721065,0.35350270823988456,stand
10/07/2020, 16:06:57,-8.480164,-1.7922242,4.8693943,0.17217667,0.22224224,-0.19782001,9.941641845721065,0.3437574349484555,stand
10/07/2020, 16:06:57,-8.626125,-1.6390835,4.8239303,0.17217667,0.22224224,-0.19782001,10.018330012017561,0.3437574349484555,stand
10/07/2020, 16:06:57,-8.626125,-1.6390835,4.8239303,0.27719223,0.15752333,-0.24055889,10.018330012017561,0.39939669084565627,stand
10/07/2020, 16:06:57,-8.752945,-1.8329022,4.601398,0.27719223,0.15752333,-0.24055889,10.057158602476411,0.39939669084565627,stand
10/07/2020, 16:06:57,-8.752945,-1.8329022,4.601398,0.38953447,0.14653334,-0.19049335,10.057158602476411,0.45770824808529736,stand
10/07/2020, 16:06:57,-8.772088,-2.1224337,4.254439,0.38953447,0.14653334,-0.19049335,9.977700315308581,0.45770824808529736,stand
10/07/2020, 16:06:57,-8.772088,-2.1224337,4.254439,0.46035892,0.17950334,-0.08792,9.977700315308581,0.5018781802532204,stand
10/07/2020, 16:06:58,-8.867801,-2.4861426,3.2327034,-0.16729222,-0.14164889,-0.05250778,9.760592515819406,0.22540665988271727,stand
10/07/2020, 16:06:58,-8.829515,-2.5148566,3.2446675,-0.16729222,-0.14164889,-0.05250778,9.737182045705493,0.22540665988271727,stand
10/07/2020, 16:06:58,-8.829515,-2.5148566,3.2446675,-0.15874445,-0.14775445,-0.057392225,9.737182045705493,0.22433244407794883,stand
10/07/2020, 16:06:58,-8.760123,-2.507678,3.2757742,-0.15874445,-0.14775445,-0.057392225,9.68291822705912,0.22433244407794883,stand
10/07/2020, 16:06:58,-8.760123,-2.507678,3.2757742,-0.15019667,-0.14287001,-0.06105556,9.68291822705912,0.21609872962959076,stand
10/07/2020, 16:06:58,-8.693125,-2.5196424,3.2973096,-0.15019667,-0.14287001,-0.06105556,9.632822365032167,0.21609872962959076,stand
10/07/2020, 16:06:58,-8.693125,-2.5196424,3.2973096,-0.14287001,-0.13432223,-0.07448778,9.632822365032167,0.20976827616418392,stand
10/07/2020, 16:06:58,-8.673982,-2.5507488,3.290131,-0.14287001,-0.13432223,-0.07448778,9.621290980088538,0.20976827616418392,stand
10/07/2020, 16:06:58,-8.673982,-2.5507488,3.290131,-0.12821667,-0.12943779,-0.08792,9.621290980088538,0.20229577941337612,stand
10/07/2020, 16:06:58,-8.662018,-2.5411777,3.3044882,-0.12821667,-0.12943779,-0.08792,9.612896506979954,0.20229577941337612,stand
10/07/2020, 16:06:58,-8.662018,-2.5411777,3.3044882,-0.12211112,-0.13554333,-0.09768889,9.612896506979954,0.20694501589246897,stand
10/07/2020, 16:06:58,-8.645268,-2.5172493,3.2853456,-0.12211112,-0.13554333,-0.09768889,9.584920765674052,0.20694501589246897,stand
10/07/2020, 16:06:58,-8.645268,-2.5172493,3.2853456,-0.12211112,-0.13554333,-0.10501556,9.584920765674052,0.21050270361230136,stand
10/07/2020, 16:06:58,-8.645268,-2.5339992,3.2925239,-0.12211112,-0.13554333,-0.10501556,9.5917950221958,0.21050270361230136,stand
10/07/2020, 16:06:58,-8.645268,-2.5339992,3.2925239,-0.12455334,-0.13676445,-0.106236674,9.5917950221958,0.21331732255727004,stand
10/07/2020, 16:06:58,-8.650054,-2.5459633,3.306881,-0.12455334,-0.13676445,-0.106236674,9.604208687127295,0.21331732255727004,stand
10/07/2020, 16:06:58,-8.650054,-2.5459633,3.306881,-0.13432223,-0.13920668,-0.109900005,9.604208687127295,0.2224836413184023,stand
10/07/2020, 16:06:58,-8.671589,-2.5459633,3.3020952,-0.13432223,-0.13920668,-0.109900005,9.621965267798545,0.2224836413184023,stand
10/07/2020, 16:06:58,-8.671589,-2.5459633,3.3020952,-0.14287001,-0.14164889,-0.106236674,9.621965267798545,0.22751368744279443,stand
10/07/2020, 16:06:58,-8.681161,-2.5459633,3.3236306,-0.14287001,-0.14164889,-0.106236674,9.63799793903239,0.22751368744279443,stand
10/07/2020, 16:06:59,-8.829515,-3.7543387,2.8426733,0.17828223,0.08669889,0.0012211112,10.006807387610388,0.19824919297841712,stand
10/07/2020, 16:06:59,-8.829515,-3.7543387,2.8426733,0.17095557,0.07204556,-0.012211111,10.006807387610388,0.18591793881260077,stand
10/07/2020, 16:06:59,-8.831908,-3.7064822,2.804388,0.17095557,0.07204556,-0.012211111,9.980240744500938,0.18591793881260077,stand
10/07/2020, 16:06:59,-8.831908,-3.7064822,2.804388,0.1526389,0.059834447,-0.017095556,9.980240744500938,0.1648364402648294,stand
10/07/2020, 16:06:59,-8.805588,-3.6777685,2.7493532,0.1526389,0.059834447,-0.017095556,9.93092642787156,0.1648364402648294,stand
10/07/2020, 16:06:59,-8.805588,-3.6777685,2.7493532,0.12943779,0.05006556,-0.029306669,9.93092642787156,0.14184351334492465,stand
10/07/2020, 16:06:59,-8.805588,-3.6323047,2.7062824,0.12943779,0.05006556,-0.029306669,9.902321821642095,0.14184351334492465,stand
10/07/2020, 16:06:59,-8.805588,-3.6323047,2.7062824,0.089141116,0.03297,-0.034191113,9.902321821642095,0.10100589879054805,stand
10/07/2020, 16:06:59,-8.800801,-3.5533416,2.6775684,0.089141116,0.03297,-0.034191113,9.861526888205182,0.10100589879054805,stand
10/07/2020, 16:06:59,-8.800801,-3.5533416,2.6775684,0.04029667,0.01099,-0.037854444,9.861526888205182,0.056369856064277586,stand
10/07/2020, 16:06:59,-8.786445,-3.4695928,2.6703901,0.04029667,0.01099,-0.037854444,9.816856296190796,0.056369856064277586,stand
10/07/2020, 16:06:59,-8.786445,-3.4695928,2.6703901,-0.014653334,-0.0024422223,-0.048844445,9.816856296190796,0.05105354556367302,stand
10/07/2020, 16:06:59,-8.776874,-3.4241292,2.6919255,-0.014653334,-0.0024422223,-0.048844445,9.798195452737374,0.05105354556367302,stand
10/07/2020, 16:06:59,-8.776874,-3.4241292,2.6919255,-0.070824444,-0.01099,-0.05250778,9.798195452737374,0.08884789828144563,stand
10/07/2020, 16:06:59,-8.750552,-3.3906298,2.7302105,-0.070824444,-0.01099,-0.05250778,9.773565533797433,0.08884789828144563,stand
10/07/2020, 16:06:59,-8.750552,-3.3906298,2.7302105,-0.11600556,-0.019537779,-0.051286668,9.773565533797433,0.12833291680424966,stand
10/07/2020, 16:06:59,-8.733803,-3.3810585,2.7637103,-0.11600556,-0.019537779,-0.051286668,9.764679305811512,0.12833291680424966,stand
10/07/2020, 16:06:59,-8.733803,-3.3810585,2.7637103,-0.1526389,-0.03174889,-0.047623336,9.764679305811512,0.16301719910052465,stand
10/07/2020, 16:06:59,-8.729017,-3.4025939,2.804388,-0.1526389,-0.03174889,-0.047623336,9.779467240834816,0.16301719910052465,stand
10/07/2020, 16:06:59,-8.729017,-3.4025939,2.804388,-0.17095557,-0.039075557,-0.036633335,9.779467240834816,0.17914995624368082,stand
10/07/2020, 16:07:00,-8.252846,-3.158526,3.2997024,-0.43960002,-0.24178001,0.019537779,9.432591654052134,0.5020831380918837,stand
10/07/2020, 16:07:00,-8.288737,-3.1944182,3.3140593,-0.43960002,-0.24178001,0.019537779,9.481058080547568,0.5020831380918837,stand
10/07/2020, 16:07:00,-8.288737,-3.1944182,3.3140593,-0.48111778,-0.24055889,0.01099,9.481058080547568,0.538018293261178,stand
10/07/2020, 16:07:00,-8.310273,-3.237489,3.2709885,-0.48111778,-0.24055889,0.01099,9.49954423276166,0.538018293261178,stand
10/07/2020, 16:07:00,-8.310273,-3.237489,3.2709885,-0.5250778,-0.24788557,0.0048844446,9.49954423276166,0.580670156328343,stand
10/07/2020, 16:07:00,-8.322237,-3.266203,3.2398818,-0.5250778,-0.24788557,0.0048844446,9.509182102966255,0.580670156328343,stand
10/07/2020, 16:07:00,-8.322237,-3.266203,3.2398818,-0.5739222,-0.25643334,0.0,9.509182102966255,0.6286054150600515,stand
10/07/2020, 16:07:00,-8.329415,-3.318845,3.251846,-0.5739222,-0.25643334,0.0,9.53773531026973,0.6286054150600515,stand
10/07/2020, 16:07:00,-8.329415,-3.318845,3.251846,-0.61299783,-0.26742333,-0.0036633336,9.53773531026973,0.668801164659599,stand
10/07/2020, 16:07:00,-8.29113,-3.4025939,3.2925239,-0.61299783,-0.26742333,-0.0036633336,9.547837245169369,0.668801164659599,stand
10/07/2020, 16:07:00,-8.29113,-3.4025939,3.2925239,-0.64108336,-0.26986557,-0.0048844446,9.547837245169369,0.6955854793642123,stand
10/07/2020, 16:07:00,-8.224132,-3.4767714,3.2925239,-0.64108336,-0.26986557,-0.0048844446,9.5165641247876,0.6955854793642123,stand
10/07/2020, 16:07:00,-8.224132,-3.4767714,3.2925239,-0.65940005,-0.26376,-0.013432222,9.5165641247876,0.7103225907580694,stand
10/07/2020, 16:07:00,-8.123632,-3.586841,3.3092737,-0.65940005,-0.26376,-0.013432222,9.476820434598864,0.7103225907580694,stand
10/07/2020, 16:07:00,-8.123632,-3.586841,3.3092737,-0.66428447,-0.24666445,-0.017095556,9.476820434598864,0.7088084810144876,stand
10/07/2020, 16:07:00,-8.037491,-3.6634114,3.359523,-0.66428447,-0.24666445,-0.017095556,9.450303549973528,0.7088084810144876,stand
10/07/2020, 16:07:00,-8.037491,-3.6634114,3.359523,-0.64963114,-0.21613668,-0.015874445,9.450303549973528,0.6848267543744851,stand
10/07/2020, 16:07:00,-8.030313,-3.7591243,3.4217365,-0.64963114,-0.21613668,-0.015874445,9.503957877423664,0.6848267543744851,stand
10/07/2020, 16:07:00,-8.030313,-3.7591243,3.4217365,-0.6252089,-0.1856089,-0.019537779,9.503957877423664,0.65247112785335,stand
10/07/2020, 16:07:00,-8.063812,-3.8548372,3.4217365,-0.6252089,-0.1856089,-0.019537779,9.570429368954946,0.65247112785335,stand
10/07/2020, 16:07:01,-8.740981,-3.2063823,3.0532417,0.37366003,0.06960334,-0.017095556,9.798363280496991,0.38047168007542015,stand
10/07/2020, 16:07:01,-8.736196,-3.1848469,3.0149565,0.37366003,0.06960334,-0.017095556,9.775189262400806,0.38047168007542015,stand
10/07/2020, 16:07:01,-8.736196,-3.1848469,3.0149565,0.35656446,0.058613338,-0.023201112,9.775189262400806,0.36209395275171563,stand
10/07/2020, 16:07:01,-8.76491,-3.158526,2.981457,0.35656446,0.058613338,-0.023201112,9.782076199639206,0.36209395275171563,stand
10/07/2020, 16:07:01,-8.76491,-3.158526,2.981457,0.32725778,0.048844445,-0.03052778,9.782076199639206,0.33228809972897494,stand
10/07/2020, 16:07:01,-8.733803,-3.089134,2.940779,0.32725778,0.048844445,-0.03052778,9.719580287084845,0.33228809972897494,stand
10/07/2020, 16:07:01,-8.733803,-3.089134,2.940779,0.26742333,0.03297,-0.04029667,9.719580287084845,0.27244463819007164,stand
10/07/2020, 16:07:01,-8.724232,-3.0005996,2.9503503,0.26742333,0.03297,-0.04029667,9.68609229779219,0.27244463819007164,stand
10/07/2020, 16:07:01,-8.724232,-3.0005996,2.9503503,0.21735778,0.017095556,-0.05250778,9.68609229779219,0.22426263966748383,stand
10/07/2020, 16:07:01,-8.709874,-2.9599216,2.9192436,0.21735778,0.017095556,-0.05250778,9.651167114786602,0.22426263966748383,stand
10/07/2020, 16:07:01,-8.709874,-2.9599216,2.9192436,0.1856089,0.0036633336,-0.047623336,9.651167114786602,0.19165610757412732,stand
10/07/2020, 16:07:01,-8.705089,-2.902494,2.9336007,0.1856089,0.0036633336,-0.047623336,9.6337454715287,0.19165610757412732,stand
10/07/2020, 16:07:01,-8.705089,-2.902494,2.9336007,0.14531223,-0.007326667,-0.045181114,9.6337454715287,0.15235044701517092,stand
10/07/2020, 16:07:01,-8.681161,-2.902494,2.9096723,0.14531223,-0.007326667,-0.045181114,9.604853921371634,0.15235044701517092,stand
10/07/2020, 16:07:01,-8.681161,-2.902494,2.9096723,0.102573335,-0.015874445,-0.046402223,9.604853921371634,0.11369456206544354,stand
10/07/2020, 16:07:01,-8.62134,-2.8881369,2.9168508,0.102573335,-0.015874445,-0.046402223,9.548657134692485,0.11369456206544354,stand
10/07/2020, 16:07:01,-8.62134,-2.8881369,2.9168508,0.06594,-0.02198,-0.037854444,9.548657134692485,0.07914646544727125,stand
10/07/2020, 16:07:01,-8.580662,-2.8594232,2.9168508,0.06594,-0.02198,-0.037854444,9.503266591320369,0.07914646544727125,stand
10/07/2020, 16:07:01,-8.580662,-2.8594232,2.9168508,0.035412222,-0.02198,-0.036633335,9.503266591320369,0.05549006346695125,stand
10/07/2020, 16:07:01,-8.537591,-2.8546374,2.9503503,0.035412222,-0.02198,-0.036633335,9.473329992617249,0.05549006346695125,stand
10/07/2020, 16:07:02,-8.602198,-3.2446675,3.1489546,-0.13920668,-0.09036223,-0.025643334,9.718106142734962,0.1679327603786833,stand
10/07/2020, 16:07:02,-8.549556,-3.2327034,3.1633115,-0.13920668,-0.09036223,-0.025643334,9.672218727729142,0.1679327603786833,stand
10/07/2020, 16:07:02,-8.549556,-3.2327034,3.1633115,-0.14653334,-0.09280445,-0.023201112,9.672218727729142,0.17499421912731286,stand
10/07/2020, 16:07:02,-8.518449,-3.2638102,3.1800613,-0.14653334,-0.09280445,-0.023201112,9.660704805429871,0.17499421912731286,stand
10/07/2020, 16:07:02,-8.518449,-3.2638102,3.1800613,-0.14409111,-0.08669889,-0.02075889,9.660704805429871,0.16943989562216943,stand
10/07/2020, 16:07:02,-8.482556,-3.306881,3.1872396,-0.14409111,-0.08669889,-0.02075889,9.646124626188346,0.16943989562216943,stand
10/07/2020, 16:07:02,-8.482556,-3.306881,3.1872396,-0.14042778,-0.09280445,-0.014653334,9.646124626188346,0.16895960414556793,stand
10/07/2020, 16:07:02,-8.456235,-3.3092737,3.1561332,-0.14042778,-0.09280445,-0.014653334,9.613551809524816,0.16895960414556793,stand
10/07/2020, 16:07:02,-8.456235,-3.3092737,3.1561332,-0.13920668,-0.09280445,-0.012211111,9.613551809524816,0.16775063546609748,stand
10/07/2020, 16:07:02,-8.449057,-3.3116665,3.1680973,-0.13920668,-0.09280445,-0.012211111,9.611999429066643,0.16775063546609748,stand
10/07/2020, 16:07:02,-8.449057,-3.3116665,3.1680973,-0.14042778,-0.09524667,-0.015874445,9.611999429066643,0.17042267730668134,stand
10/07/2020, 16:07:02,-8.396415,-3.306881,3.1369905,-0.14042778,-0.09524667,-0.015874445,9.553844884887646,0.17042267730668134,stand
10/07/2020, 16:07:02,-8.396415,-3.306881,3.1369905,-0.14042778,-0.08792,-0.025643334,9.553844884887646,0.16765282493102246,stand
10/07/2020, 16:07:02,-8.338987,-3.3044882,3.1106694,-0.14042778,-0.08792,-0.025643334,9.493925222681236,0.16765282493102246,stand
10/07/2020, 16:07:02,-8.338987,-3.3044882,3.1106694,-0.14531223,-0.081814446,-0.03174889,9.493925222681236,0.1697564170927342,stand
10/07/2020, 16:07:02,-8.3581295,-3.318845,3.0819557,-0.14531223,-0.081814446,-0.03174889,9.506393210807827,0.1697564170927342,stand
10/07/2020, 16:07:02,-8.3581295,-3.318845,3.0819557,-0.15141778,-0.07693,-0.029306669,9.506393210807827,0.17234978712381133,stand
10/07/2020, 16:07:02,-8.386844,-3.3427732,3.0699914,-0.15141778,-0.07693,-0.029306669,9.536148409383962,0.17234978712381133,stand
10/07/2020, 16:07:02,-8.386844,-3.3427732,3.0699914,-0.16118668,-0.07204556,-0.035412222,9.536148409383962,0.18007146820898007,stand
10/07/2020, 16:07:02,-8.403593,-3.3643086,3.048456,-0.16118668,-0.07204556,-0.035412222,9.551546073924413,0.18007146820898007,stand
10/07/2020, 16:07:03,-8.556734,-2.955136,3.182454,0.08792,0.02075889,0.03297,9.595756431739513,0.09616589450535531,stand
10/07/2020, 16:07:03,-8.556734,-2.955136,3.182454,0.10135223,0.028085556,0.028085556,9.595756431739513,0.10885711445008164,stand
10/07/2020, 16:07:03,-8.573483,-2.9862428,3.1633115,0.10135223,0.028085556,0.028085556,9.613990023801085,0.10885711445008164,stand
10/07/2020, 16:07:03,-8.573483,-2.9862428,3.1633115,0.109900005,0.03052778,0.015874445,9.613990023801085,0.11516055962885967,stand
10/07/2020, 16:07:03,-8.571091,-3.0149565,3.103491,0.109900005,0.03052778,0.015874445,9.601313197052418,0.11516055962885967,stand
10/07/2020, 16:07:03,-8.571091,-3.0149565,3.103491,0.12455334,0.037854444,0.01099,9.601313197052418,0.1306417735112117,stand
10/07/2020, 16:07:03,-8.585447,-3.0245278,3.0987053,0.12455334,0.037854444,0.01099,9.61559402030482,0.1306417735112117,stand
10/07/2020, 16:07:03,-8.585447,-3.0245278,3.0987053,0.14409111,0.04396,0.0024422223,9.61559402030482,0.15066749953273975,stand
10/07/2020, 16:07:03,-8.611769,-3.048456,3.1130621,0.14409111,0.04396,0.0024422223,9.651258992465877,0.15066749953273975,stand
10/07/2020, 16:07:03,-8.611769,-3.048456,3.1130621,0.15996556,0.045181114,-0.0012211112,9.651258992465877,0.1662281700862143,stand
10/07/2020, 16:07:03,-8.599805,-3.0197423,3.101098,0.15996556,0.045181114,-0.0012211112,9.627683853571734,0.1662281700862143,stand
10/07/2020, 16:07:03,-8.599805,-3.0197423,3.101098,0.17217667,0.042738892,-0.0012211112,9.627683853571734,0.1774060627099172,stand
10/07/2020, 16:07:03,-8.602198,-3.0269206,3.089134,0.17217667,0.042738892,-0.0012211112,9.628229388187611,0.1774060627099172,stand
10/07/2020, 16:07:03,-8.602198,-3.0269206,3.089134,0.17217667,0.042738892,-0.017095556,9.628229388187611,0.17822367414353385,stand
10/07/2020, 16:07:03,-8.597412,-3.0197423,3.0293136,0.17217667,0.042738892,-0.017095556,9.602659991293594,0.17822367414353385,stand
10/07/2020, 16:07:03,-8.597412,-3.0197423,3.0293136,0.17217667,0.05006556,-0.018316668,9.602659991293594,0.1802411371473085,stand
10/07/2020, 16:07:03,-8.626125,-3.010171,3.0436704,0.17217667,0.05006556,-0.018316668,9.629906384541933,0.1802411371473085,stand
10/07/2020, 16:07:03,-8.626125,-3.010171,3.0436704,0.18194556,0.059834447,-0.019537779,9.629906384541933,0.19252551382558997,stand
10/07/2020, 16:07:03,-8.647661,-3.0269206,3.0963125,0.18194556,0.059834447,-0.019537779,9.6711655804976,0.19252551382558997,stand
10/07/2020, 16:07:03,-8.647661,-3.0269206,3.0963125,0.19049335,0.064718895,-0.024422223,9.6711655804976,0.2026639950228644,stand
10/07/2020, 16:07:04,-8.738588,-2.3904297,3.062813,0.03297,0.018316668,-0.02075889,9.56336259454675,0.04305174457806473,stand
10/07/2020, 16:07:04,-8.738588,-2.3904297,3.062813,0.037854444,0.019537779,-0.012211111,9.56336259454675,0.04431472645606189,stand
10/07/2020, 16:07:04,-8.752945,-2.3569303,3.0532417,0.037854444,0.019537779,-0.012211111,9.565116336150842,0.04431472645606189,stand
10/07/2020, 16:07:04,-8.752945,-2.3569303,3.0532417,0.04029667,0.024422223,-0.014653334,9.565116336150842,0.04934558531327991,stand
10/07/2020, 16:07:04,-8.779266,-2.3688943,3.0699914,0.04029667,0.024422223,-0.014653334,9.597500979535791,0.04934558531327991,stand
10/07/2020, 16:07:04,-8.779266,-2.3688943,3.0699914,0.04029667,0.02075889,-0.014653334,9.597500979535791,0.04763898953596493,stand
10/07/2020, 16:07:04,-8.815159,-2.3665016,3.0819557,0.04029667,0.02075889,-0.014653334,9.63357700360515,0.04763898953596493,stand
10/07/2020, 16:07:04,-8.815159,-2.3665016,3.0819557,0.05006556,0.014653334,-0.013432222,9.63357700360515,0.05386747577381255,stand
10/07/2020, 16:07:04,-8.800801,-2.359323,3.0723844,0.05006556,0.014653334,-0.013432222,9.61561510747518,0.05386747577381255,stand
10/07/2020, 16:07:04,-8.800801,-2.359323,3.0723844,0.05617111,0.009768889,-0.008547778,9.61561510747518,0.05765144844126439,stand
10/07/2020, 16:07:04,-8.79123,-2.400001,3.1106694,0.05617111,0.009768889,-0.008547778,9.629226212541518,0.05765144844126439,stand
10/07/2020, 16:07:04,-8.79123,-2.400001,3.1106694,0.06227667,0.013432222,-0.0061055557,9.629226212541518,0.06400067102756,stand
10/07/2020, 16:07:04,-8.7673025,-2.4071796,3.1345978,0.06227667,0.013432222,-0.0061055557,9.61695430926122,0.06400067102756,stand
10/07/2020, 16:07:04,-8.7673025,-2.4071796,3.1345978,0.068382226,0.02198,-0.008547778,9.61695430926122,0.07233473415382777,stand
10/07/2020, 16:07:04,-8.721839,-2.400001,3.1274192,0.068382226,0.02198,-0.008547778,9.571375595256358,0.07233473415382777,stand
10/07/2020, 16:07:04,-8.721839,-2.400001,3.1274192,0.070824444,0.023201112,-0.009768889,9.571375595256358,0.07516531574956568,stand
10/07/2020, 16:07:04,-8.724232,-2.416751,3.0867412,0.070824444,0.023201112,-0.009768889,9.564563520939858,0.07516531574956568,stand
10/07/2020, 16:07:04,-8.724232,-2.416751,3.0867412,0.064718895,0.024422223,-0.014653334,9.564563520939858,0.07070856029442989,stand
10/07/2020, 16:07:04,-8.748159,-2.4191437,3.0245278,0.064718895,0.024422223,-0.014653334,9.567147825130697,0.07070856029442989,stand
10/07/2020, 16:07:04,-8.748159,-2.4191437,3.0245278,0.064718895,0.024422223,-0.023201112,9.567147825130697,0.07296075571396195,stand
10/07/2020, 16:07:05,-8.724232,-2.6009982,3.129812,0.25765446,0.05617111,-0.09280445,9.626688616436928,0.2795597950696067,stand
10/07/2020, 16:07:05,-8.702696,-2.5962126,3.1130621,0.25765446,0.05617111,-0.09280445,9.600437016236471,0.2795597950696067,stand
10/07/2020, 16:07:05,-8.702696,-2.5962126,3.1130621,0.27230778,0.057392225,-0.09402556,9.600437016236471,0.2937451313896104,stand
10/07/2020, 16:07:05,-8.645268,-2.6009982,3.129812,0.27230778,0.057392225,-0.09402556,9.555186079716968,0.2937451313896104,stand
10/07/2020, 16:07:05,-8.645268,-2.6009982,3.129812,0.28940335,0.06227667,-0.09768889,9.555186079716968,0.31173033444289294,stand
10/07/2020, 16:07:05,-8.642876,-2.6225336,3.089134,0.28940335,0.06227667,-0.09768889,9.545665554411386,0.31173033444289294,stand
10/07/2020, 16:07:05,-8.642876,-2.6225336,3.089134,0.30161446,0.057392225,-0.09036223,9.545665554411386,0.3200476281320659,stand
10/07/2020, 16:07:05,-8.645268,-2.6081767,3.0436704,0.30161446,0.057392225,-0.09036223,9.529280232301133,0.3200476281320659,stand
10/07/2020, 16:07:05,-8.645268,-2.6081767,3.0436704,0.3174889,0.05617111,-0.08792,9.529280232301133,0.33419205234600713,stand
10/07/2020, 16:07:05,-8.657232,-2.5603201,3.0364919,0.3174889,0.05617111,-0.08792,9.524872331129796,0.33419205234600713,stand
10/07/2020, 16:07:05,-8.657232,-2.5603201,3.0364919,0.31871,0.05250778,-0.09402556,9.524872331129796,0.33641334183102767,stand
10/07/2020, 16:07:05,-8.700303,-2.5387847,2.9647074,0.31871,0.05250778,-0.09402556,9.535732348837156,0.33641334183102767,stand
10/07/2020, 16:07:05,-8.700303,-2.5387847,2.9647074,0.31138334,0.042738892,-0.09524667,9.535732348837156,0.3284176060659743,stand
10/07/2020, 16:07:05,-8.743374,-2.5627131,2.9048867,0.31138334,0.042738892,-0.09524667,9.563077547847474,0.3284176060659743,stand
10/07/2020, 16:07:05,-8.743374,-2.5627131,2.9048867,0.3052778,0.029306669,-0.08669889,9.563077547847474,0.31870065922718094,stand
10/07/2020, 16:07:05,-8.76491,-2.5459633,2.9120653,0.3052778,0.029306669,-0.08669889,9.580485165594123,0.31870065922718094,stand
10/07/2020, 16:07:05,-8.76491,-2.5459633,2.9120653,0.28940335,0.012211111,-0.09524667,9.580485165594123,0.3049185766624066,stand
10/07/2020, 16:07:05,-8.848659,-2.5507488,2.8785655,0.28940335,0.012211111,-0.09524667,9.648379010748952,0.3049185766624066,stand
10/07/2020, 16:07:05,-8.848659,-2.5507488,2.8785655,0.26620224,-0.0024422223,-0.09036223,9.648379010748952,0.281131517250169,stand
10/07/2020, 16:07:05,-8.894122,-2.57707,2.8235307,0.26620224,-0.0024422223,-0.09036223,9.680858618532808,0.281131517250169,stand
10/07/2020, 16:07:06,-8.463413,-3.739982,2.9240294,-0.27108666,-0.058613338,0.035412222,9.703956709652983,0.27960244576881177,stand
10/07/2020, 16:07:06,-8.463413,-3.739982,2.9240294,-0.2515489,-0.06227667,0.051286668,9.703956709652983,0.2641695439542129,stand
10/07/2020, 16:07:06,-8.439486,-3.790231,2.981457,-0.2515489,-0.06227667,0.051286668,9.72007474837271,0.2641695439542129,stand
10/07/2020, 16:07:06,-8.439486,-3.790231,2.981457,-0.22346334,-0.05006556,0.059834447,9.72007474837271,0.2366909085566209,stand
10/07/2020, 16:07:06,-8.396415,-3.8763726,3.0388846,-0.22346334,-0.05006556,0.059834447,9.734519246862597,0.2366909085566209,stand
10/07/2020, 16:07:06,-8.396415,-3.8763726,3.0388846,-0.18683001,-0.037854444,0.07448778,9.734519246862597,0.20466275404795412,stand
10/07/2020, 16:07:06,-8.391629,-3.9361932,3.0604203,-0.18683001,-0.037854444,0.07448778,9.761108048496993,0.20466275404795412,stand
10/07/2020, 16:07:06,-8.391629,-3.9361932,3.0604203,-0.14042778,-0.035412222,0.09280445,9.761108048496993,0.17200771233159692,stand
10/07/2020, 16:07:06,-8.4012,-4.005585,3.0125637,-0.14042778,-0.035412222,0.09280445,9.782659107371439,0.17200771233159692,stand
10/07/2020, 16:07:06,-8.4012,-4.005585,3.0125637,-0.07570889,-0.028085556,0.09402556,9.782659107371439,0.12394127691768929,stand
10/07/2020, 16:07:06,-8.389236,-4.06062,2.9958138,-0.07570889,-0.028085556,0.09402556,9.789934741013205,0.12394127691768929,stand
10/07/2020, 16:07:06,-8.389236,-4.06062,2.9958138,-0.0061055557,-0.023201112,0.09402556,9.789934741013205,0.09703800943882399,stand
10/07/2020, 16:07:06,-8.365308,-4.0773697,2.9431717,-0.0061055557,-0.023201112,0.09402556,9.760408710622306,0.09703800943882399,stand
10/07/2020, 16:07:06,-8.365308,-4.0773697,2.9431717,0.058613338,-0.012211111,0.091583334,9.760408710622306,0.10941728214874451,stand
10/07/2020, 16:07:06,-8.377272,-4.0701914,2.8881369,0.058613338,-0.012211111,0.091583334,9.75122929562328,0.10941728214874451,stand
10/07/2020, 16:07:06,-8.377272,-4.0701914,2.8881369,0.09402556,0.0048844446,0.07693,9.75122929562328,0.12158490363853273,stand
10/07/2020, 16:07:06,-8.367701,-3.9960139,2.8498518,0.09402556,0.0048844446,0.07693,9.700937862812783,0.12158490363853273,stand
10/07/2020, 16:07:06,-8.367701,-3.9960139,2.8498518,0.10745778,0.013432222,0.07204556,9.700937862812783,0.13006983222050505,stand
10/07/2020, 16:07:06,-8.391629,-3.9338005,2.7996025,0.10745778,0.013432222,0.07204556,9.681528867201555,0.13006983222050505,stand
10/07/2020, 16:07:06,-8.391629,-3.9338005,2.7996025,0.11478445,0.012211111,0.06227667,9.681528867201555,0.13116007217770412,stand
10/07/2020, 16:07:07,-8.618947,-3.1872396,2.8642087,0.10745778,0.015874445,-0.007326667,9.62540575377347,0.10887080606192735,stand
10/07/2020, 16:07:07,-8.60459,-3.1609187,2.8809586,0.10745778,0.015874445,-0.007326667,9.608865986264853,0.10887080606192735,stand
10/07/2020, 16:07:07,-8.60459,-3.1609187,2.8809586,0.091583334,0.017095556,-0.01099,9.608865986264853,0.0938112211235138,stand
10/07/2020, 16:07:07,-8.630911,-3.1513474,2.8785655,0.091583334,0.017095556,-0.01099,9.62859037228423,0.0938112211235138,stand
10/07/2020, 16:07:07,-8.630911,-3.1513474,2.8785655,0.07570889,0.01099,-0.008547778,9.62859037228423,0.07697844122641093,stand
10/07/2020, 16:07:07,-8.6548395,-3.1609187,2.8881369,0.07570889,0.01099,-0.008547778,9.656033797246062,0.07697844122641093,stand
10/07/2020, 16:07:07,-8.6548395,-3.1609187,2.8881369,0.06349778,0.009768889,-0.0024422223,9.656033797246062,0.06429124306903823,stand
10/07/2020, 16:07:07,-8.659625,-3.1465619,2.8929226,0.06349778,0.009768889,-0.0024422223,9.657067826781127,0.06429124306903823,stand
10/07/2020, 16:07:07,-8.659625,-3.1465619,2.8929226,0.054950003,0.007326667,-0.0012211112,9.657067826781127,0.05544974254513671,stand
10/07/2020, 16:07:07,-8.664411,-3.158526,2.940779,0.054950003,0.007326667,-0.0012211112,9.679694105890299,0.05544974254513671,stand
10/07/2020, 16:07:07,-8.664411,-3.158526,2.940779,0.047623336,-0.0048844446,0.0036633336,9.679694105890299,0.04801312293851688,stand
10/07/2020, 16:07:07,-8.635697,-3.1752756,2.9671001,0.047623336,-0.0048844446,0.0036633336,9.667539870425177,0.04801312293851688,stand
10/07/2020, 16:07:07,-8.635697,-3.1752756,2.9671001,0.046402223,-0.0061055557,0.0036633336,9.667539870425177,0.04694533161592233,stand
10/07/2020, 16:07:07,-8.635697,-3.1609187,2.955136,0.046402223,-0.0061055557,0.0036633336,9.659166901013725,0.04694533161592233,stand
10/07/2020, 16:07:07,-8.635697,-3.1609187,2.955136,0.046402223,-0.0036633336,0.009768889,9.659166901013725,0.04756067228451908,stand
10/07/2020, 16:07:07,-8.611769,-3.1537402,2.9431717,0.046402223,-0.0036633336,0.009768889,9.63176502329225,0.04756067228451908,stand
10/07/2020, 16:07:07,-8.611769,-3.1537402,2.9431717,0.045181114,-0.0036633336,0.009768889,9.63176502329225,0.046370079724797716,stand
10/07/2020, 16:07:07,-8.578269,-3.1728828,2.9910283,0.045181114,-0.0036633336,0.009768889,9.622896377726606,0.046370079724797716,stand
10/07/2020, 16:07:07,-8.578269,-3.1728828,2.9910283,0.046402223,0.0036633336,0.009768889,9.622896377726606,0.04756067228451908,stand
10/07/2020, 16:07:07,-8.5423765,-3.2135608,2.9838498,0.046402223,0.0036633336,0.009768889,9.602214803592114,0.04756067228451908,stand
10/07/2020, 16:07:08,-8.530413,-3.5796626,2.7972097,0.0036633336,-0.0012211112,-0.035412222,9.664693826981118,0.03562213641695978,stand
10/07/2020, 16:07:08,-8.530413,-3.5796626,2.7972097,-0.008547778,-0.0061055557,-0.023201112,9.664693826981118,0.02546829219672924,stand
10/07/2020, 16:07:08,-8.508878,-3.586841,2.8139594,-0.008547778,-0.0061055557,-0.023201112,9.65322728620864,0.02546829219672924,stand
10/07/2020, 16:07:08,-8.508878,-3.586841,2.8139594,-0.017095556,-0.01099,-0.015874445,9.65322728620864,0.025788295342654474,stand
10/07/2020, 16:07:08,-8.489735,-3.6394832,2.8378878,-0.017095556,-0.01099,-0.015874445,9.663076085974787,0.025788295342654474,stand
10/07/2020, 16:07:08,-8.489735,-3.6394832,2.8378878,-0.02075889,-0.014653334,-0.014653334,9.663076085974787,0.02933209702357588,stand
10/07/2020, 16:07:08,-8.453842,-3.6801612,2.885744,-0.02075889,-0.014653334,-0.014653334,9.66118797223797,0.02933209702357588,stand
10/07/2020, 16:07:08,-8.453842,-3.6801612,2.885744,-0.029306669,-0.013432222,-0.012211111,9.66118797223797,0.03447341984128861,stand
10/07/2020, 16:07:08,-8.4705925,-3.735196,2.8977082,-0.029306669,-0.013432222,-0.012211111,9.700481429788068,0.03447341984128861,stand
10/07/2020, 16:07:08,-8.4705925,-3.735196,2.8977082,-0.028085556,-0.01099,-0.0048844446,9.700481429788068,0.03055219068871552,stand
10/07/2020, 16:07:08,-8.437093,-3.7686956,2.8402805,-0.028085556,-0.01099,-0.0048844446,9.667202003337804,0.03055219068871552,stand
10/07/2020, 16:07:08,-8.437093,-3.7686956,2.8402805,-0.029306669,-0.017095556,0.0,9.667202003337804,0.033928437731690436,stand
10/07/2020, 16:07:08,-8.425129,-3.7998023,2.7876384,-0.029306669,-0.017095556,0.0,9.653611921896267,0.033928437731690436,stand
10/07/2020, 16:07:08,-8.425129,-3.7998023,2.7876384,-0.03174889,-0.013432222,0.0,9.653611921896267,0.03447341977531033,stand
10/07/2020, 16:07:08,-8.398808,-3.8213377,2.804388,-0.03174889,-0.013432222,0.0,9.644023122291488,0.03447341977531033,stand
10/07/2020, 16:07:08,-8.398808,-3.8213377,2.804388,-0.024422223,-0.0036633336,-0.007326667,9.644023122291488,0.02575936779586784,stand
10/07/2020, 16:07:08,-8.4347,-3.8572302,2.8426733,-0.024422223,-0.0036633336,-0.007326667,9.700679383809247,0.02575936779586784,stand
10/07/2020, 16:07:08,-8.4347,-3.8572302,2.8426733,-0.014653334,-0.0036633336,-0.0048844446,9.700679383809247,0.015874445545845307,stand
10/07/2020, 16:07:08,-8.472985,-3.9194436,2.8546374,-0.014653334,-0.0036633336,-0.0048844446,9.76229850666177,0.015874445545845307,stand
10/07/2020, 16:07:08,-8.472985,-3.9194436,2.8546374,-0.0024422223,-0.01099,-0.0024422223,9.76229850666177,0.01151993953915588,stand
10/07/2020, 16:07:09,-8.465807,-3.5844483,2.8522446,-0.0036633336,-0.02198,0.023201112,9.625666560477066,0.032168805174680584,stand
10/07/2020, 16:07:09,-8.4347,-3.629912,2.8977082,-0.0036633336,-0.02198,0.023201112,9.628973848592423,0.032168805174680584,stand
10/07/2020, 16:07:09,-8.4347,-3.629912,2.8977082,-0.0036633336,-0.023201112,0.02198,9.628973848592423,0.032168805174680584,stand
10/07/2020, 16:07:09,-8.446664,-3.644269,2.914458,-0.0036633336,-0.023201112,0.02198,9.649916705297002,0.032168805174680584,stand
10/07/2020, 16:07:09,-8.446664,-3.644269,2.914458,-0.0036633336,-0.015874445,0.017095556,9.649916705297002,0.023615166365761477,stand
10/07/2020, 16:07:09,-8.420342,-3.6394832,2.8881369,-0.0036633336,-0.015874445,0.017095556,9.617137801948726,0.023615166365761477,stand
10/07/2020, 16:07:09,-8.420342,-3.6394832,2.8881369,0.0036633336,-0.017095556,0.012211111,9.617137801948726,0.02132578968055887,stand
10/07/2020, 16:07:09,-8.451449,-3.6466618,2.900101,0.0036633336,-0.017095556,0.012211111,9.650685174793091,0.02132578968055887,stand
10/07/2020, 16:07:09,-8.451449,-3.6466618,2.900101,0.013432222,-0.02075889,0.01099,9.650685174793091,0.027058015529989696,stand
10/07/2020, 16:07:09,-8.475378,-3.6203406,2.8761728,0.013432222,-0.02075889,0.01099,9.654598318118174,0.027058015529989696,stand
10/07/2020, 16:07:09,-8.475378,-3.6203406,2.8761728,0.017095556,-0.015874445,0.01099,9.654598318118174,0.025788295342654474,stand
10/07/2020, 16:07:09,-8.472985,-3.6203406,2.8666015,0.017095556,-0.015874445,0.01099,9.64965021508686,0.025788295342654474,stand
10/07/2020, 16:07:09,-8.472985,-3.6203406,2.8666015,0.018316668,-0.018316668,0.007326667,9.64965021508686,0.02691989358825027,stand
10/07/2020, 16:07:09,-8.506484,-3.5892339,2.87378,0.018316668,-0.018316668,0.007326667,9.669616432450734,0.02691989358825027,stand
10/07/2020, 16:07:09,-8.506484,-3.5892339,2.87378,0.007326667,-0.025643334,0.007326667,9.669616432450734,0.02765756085477809,stand
10/07/2020, 16:07:09,-8.504091,-3.5844483,2.8689942,0.007326667,-0.025643334,0.007326667,9.664314047933514,0.02765756085477809,stand
10/07/2020, 16:07:09,-8.504091,-3.5844483,2.8689942,-0.0061055557,-0.035412222,0.0036633336,9.664314047933514,0.03612095376218593,stand
10/07/2020, 16:07:09,-8.506484,-3.5700915,2.8666015,-0.0061055557,-0.035412222,0.0036633336,9.660394804085042,0.03612095376218593,stand
10/07/2020, 16:07:09,-8.506484,-3.5700915,2.8666015,-0.01099,-0.037854444,0.01099,9.660394804085042,0.04092088907741728,stand
10/07/2020, 16:07:09,-8.513663,-3.562913,2.902494,-0.01099,-0.037854444,0.01099,9.674775574899128,0.04092088907741728,stand
10/07/2020, 16:07:10,-8.549556,-3.493521,2.8929226,0.02075889,-0.024422223,-0.015874445,9.678253675815347,0.03576834466422324,stand
10/07/2020, 16:07:10,-8.549556,-3.493521,2.8929226,0.0048844446,-0.026864445,-0.018316668,9.678253675815347,0.03287942373522879,stand
10/07/2020, 16:07:10,-8.535198,-3.4767714,2.8594232,0.0048844446,-0.026864445,-0.018316668,9.649551718929272,0.03287942373522879,stand
10/07/2020, 16:07:10,-8.535198,-3.4767714,2.8594232,-0.013432222,-0.03297,-0.009768889,9.649551718929272,0.03691715997779637,stand
10/07/2020, 16:07:10,-8.516056,-3.4456646,2.8977082,-0.013432222,-0.03297,-0.009768889,9.632887851181808,0.03691715997779637,stand
10/07/2020, 16:07:10,-8.516056,-3.4456646,2.8977082,-0.03052778,-0.035412222,-0.0048844446,9.632887851181808,0.047008814262400105,stand
10/07/2020, 16:07:10,-8.5112705,-3.4528432,2.9120653,-0.03052778,-0.035412222,-0.0048844446,9.6355579043938,0.047008814262400105,stand
10/07/2020, 16:07:10,-8.5112705,-3.4528432,2.9120653,-0.035412222,-0.029306669,-0.008547778,9.6355579043938,0.046754366915953714,stand
10/07/2020, 16:07:10,-8.520842,-3.4839497,2.9455647,-0.035412222,-0.029306669,-0.008547778,9.665350405804956,0.046754366915953714,stand
10/07/2020, 16:07:10,-8.520842,-3.4839497,2.9455647,-0.034191113,-0.028085556,-0.0024422223,9.665350405804956,0.044314727854694806,stand
10/07/2020, 16:07:10,-8.506484,-3.5030923,2.9982069,-0.034191113,-0.028085556,-0.0024422223,9.675803351908316,0.044314727854694806,stand
10/07/2020, 16:07:10,-8.506484,-3.5030923,2.9982069,-0.024422223,-0.026864445,-0.0024422223,9.675803351908316,0.03638829221382074,stand
10/07/2020, 16:07:10,-8.492127,-3.5198421,3.022135,-0.024422223,-0.026864445,-0.0024422223,9.676715192298493,0.03638829221382074,stand
10/07/2020, 16:07:10,-8.492127,-3.5198421,3.022135,-0.01099,-0.02198,0.0048844446,9.676715192298493,0.025055105981136704,stand
10/07/2020, 16:07:10,-8.475378,-3.5557344,3.0412776,-0.01099,-0.02198,0.0048844446,9.68114919224909,0.025055105981136704,stand
10/07/2020, 16:07:10,-8.475378,-3.5557344,3.0412776,-0.0012211112,-0.019537779,0.013432222,9.68114919224909,0.02374111419174803,stand
10/07/2020, 16:07:10,-8.437093,-3.562913,3.0412776,-0.0012211112,-0.019537779,0.013432222,9.650298075581953,0.02374111419174803,stand
10/07/2020, 16:07:10,-8.437093,-3.562913,3.0412776,0.0036633336,-0.009768889,0.012211111,9.650298075581953,0.0160612095410638,stand
10/07/2020, 16:07:10,-8.437093,-3.5700915,3.050849,0.0036633336,-0.009768889,0.012211111,9.655970546592341,0.0160612095410638,stand
10/07/2020, 16:07:10,-8.437093,-3.5700915,3.050849,0.013432222,-0.01099,0.015874445,9.655970546592341,0.02352026199529735,stand
10/07/2020, 16:07:11,-8.939586,-2.792424,2.6943183,0.5238567,0.19782001,0.07326667,9.745418148900098,0.5647358692444204,stand
10/07/2020, 16:07:11,-8.939586,-2.792424,2.6943183,0.5043189,0.1746189,0.08059334,9.745418148900098,0.5397449327557985,stand
10/07/2020, 16:07:11,-8.889337,-2.7828526,2.7086751,0.5043189,0.1746189,0.08059334,9.700592500263436,0.5397449327557985,stand
10/07/2020, 16:07:11,-8.889337,-2.7828526,2.7086751,0.48966557,0.15996556,0.08669889,9.700592500263436,0.5223773025104268,stand
10/07/2020, 16:07:11,-8.882157,-2.792424,2.696711,0.48966557,0.15996556,0.08669889,9.693430812197105,0.5223773025104268,stand
10/07/2020, 16:07:11,-8.882157,-2.792424,2.696711,0.4823389,0.15141778,0.091583334,9.693430812197105,0.5137758945526467,stand
10/07/2020, 16:07:11,-8.865408,-2.806781,2.656033,0.4823389,0.15141778,0.091583334,9.670986991820167,0.5137758945526467,stand
10/07/2020, 16:07:11,-8.865408,-2.806781,2.656033,0.47257003,0.13432223,0.09402556,9.670986991820167,0.5002056590283419,stand
10/07/2020, 16:07:11,-8.807981,-2.7756743,2.6536403,0.47257003,0.13432223,0.09402556,9.608678155202771,0.5002056590283419,stand
10/07/2020, 16:07:11,-8.807981,-2.7756743,2.6536403,0.45425335,0.11234222,0.10135223,9.608678155202771,0.47878925610297546,stand
10/07/2020, 16:07:11,-8.755338,-2.7565317,2.6416762,0.45425335,0.11234222,0.10135223,9.55158932764397,0.47878925610297546,stand
10/07/2020, 16:07:11,-8.755338,-2.7565317,2.6416762,0.43227336,0.106236674,0.09280445,9.55158932764397,0.4547077658861929,stand
10/07/2020, 16:07:11,-8.76491,-2.6823542,2.6368906,0.43227336,0.106236674,0.09280445,9.537916923608128,0.4547077658861929,stand
10/07/2020, 16:07:11,-8.76491,-2.6823542,2.6368906,0.40540892,0.102573335,0.10013112,9.537916923608128,0.43000455942981225,stand
10/07/2020, 16:07:11,-8.793623,-2.656033,2.6225336,0.40540892,0.102573335,0.10013112,9.553009930161148,0.43000455942981225,stand
10/07/2020, 16:07:11,-8.793623,-2.656033,2.6225336,0.37488112,0.08669889,0.10013112,9.553009930161148,0.39759123615685055,stand
10/07/2020, 16:07:11,-8.843872,-2.6943183,2.6368906,0.37488112,0.08669889,0.10013112,9.613876250880573,0.39759123615685055,stand
10/07/2020, 16:07:11,-8.843872,-2.6943183,2.6368906,0.35412225,0.059834447,0.09524667,9.613876250880573,0.37155707302119473,stand
10/07/2020, 16:07:11,-8.879765,-2.6679974,2.656033,0.35412225,0.059834447,0.09524667,9.644840071491705,0.37155707302119473,stand
10/07/2020, 16:07:11,-8.879765,-2.6679974,2.656033,0.3370267,0.035412222,0.10013112,9.644840071491705,0.3533656077685545,stand
10/07/2020, 16:07:12,-8.79123,-2.57707,3.0580273,-0.051286668,-0.013432222,-0.008547778,9.658082056063508,0.053701130192718584,stand
10/07/2020, 16:07:12,-8.79123,-2.57707,3.0580273,-0.04029667,-0.01099,-0.0048844446,9.658082056063508,0.0420530560577076,stand
10/07/2020, 16:07:12,-8.762517,-2.565106,3.0532417,-0.04029667,-0.01099,-0.0048844446,9.627240370944886,0.0420530560577076,stand
10/07/2020, 16:07:12,-8.762517,-2.565106,3.0532417,-0.037854444,-0.0061055557,-0.0012211112,9.627240370944886,0.03836310559767599,stand
10/07/2020, 16:07:12,-8.748159,-2.5627131,3.0293136,-0.037854444,-0.0061055557,-0.0012211112,9.60596337585937,0.03836310559767599,stand
10/07/2020, 16:07:12,-8.748159,-2.5627131,3.0293136,-0.035412222,0.007326667,0.0,9.60596337585937,0.03616221134836655,stand
10/07/2020, 16:07:12,-8.748159,-2.5459633,2.9910283,-0.035412222,0.007326667,0.0,9.589498028715806,0.03616221134836655,stand
10/07/2020, 16:07:12,-8.748159,-2.5459633,2.9910283,-0.034191113,0.012211111,-0.012211111,9.589498028715806,0.03830476064140347,stand
10/07/2020, 16:07:12,-8.7673025,-2.5459633,2.9718857,-0.034191113,0.012211111,-0.012211111,9.60102218094487,0.03830476064140347,stand
10/07/2020, 16:07:12,-8.7673025,-2.5459633,2.9718857,-0.029306669,0.0061055557,-0.007326667,9.60102218094487,0.03081945323858824,stand
10/07/2020, 16:07:12,-8.784052,-2.57707,3.0293136,-0.029306669,0.0061055557,-0.007326667,9.642489208751666,0.03081945323858824,stand
10/07/2020, 16:07:12,-8.784052,-2.57707,3.0293136,-0.015874445,0.012211111,-0.007326667,9.642489208751666,0.02132578981387731,stand
10/07/2020, 16:07:12,-8.846265,-2.5698915,3.062813,-0.015874445,0.012211111,-0.007326667,9.707809609994857,0.02132578981387731,stand
10/07/2020, 16:07:12,-8.846265,-2.5698915,3.062813,0.0,0.023201112,-0.0048844446,9.707809609994857,0.023709689660038488,stand
10/07/2020, 16:07:12,-8.855837,-2.5603201,3.0963125,0.0,0.023201112,-0.0048844446,9.724620151497291,0.023709689660038488,stand
10/07/2020, 16:07:12,-8.855837,-2.5603201,3.0963125,0.034191113,0.03297,-0.0036633336,9.724620151497291,0.04763898742327349,stand
10/07/2020, 16:07:12,-8.874979,-2.5268207,3.0675986,0.034191113,0.03297,-0.0036633336,9.724208774634082,0.04763898742327349,stand
10/07/2020, 16:07:12,-8.874979,-2.5268207,3.0675986,0.05250778,0.03297,0.0012211112,9.724208774634082,0.06201273279373101,stand
10/07/2020, 16:07:12,-8.886943,-2.524428,3.062813,0.05250778,0.03297,0.0012211112,9.733001252143533,0.06201273279373101,stand
10/07/2020, 16:07:12,-8.886943,-2.524428,3.062813,0.058613338,0.03297,0.007326667,9.733001252143533,0.06764779595753141,stand
10/07/2020, 16:07:13,-8.867801,-2.2707887,2.928815,0.01099,-0.0048844446,-0.013432222,9.6110523517576,0.01802948989350118,stand
10/07/2020, 16:07:13,-8.860622,-2.2707887,2.928815,0.01099,-0.0048844446,-0.013432222,9.60442956410777,0.01802948989350118,stand
10/07/2020, 16:07:13,-8.860622,-2.2707887,2.928815,0.01099,-0.0024422223,-0.018316668,9.60442956410777,0.02149988061389732,stand
10/07/2020, 16:07:13,-8.867801,-2.2995026,2.926422,0.01099,-0.0024422223,-0.018316668,9.617148650003255,0.02149988061389732,stand
10/07/2020, 16:07:13,-8.867801,-2.2995026,2.926422,0.013432222,0.0012211112,-0.02198,9.617148650003255,0.025788294642576464,stand
10/07/2020, 16:07:13,-8.874979,-2.2851455,2.9216363,0.013432222,0.0012211112,-0.02198,9.618892948997157,0.025788294642576464,stand
10/07/2020, 16:07:13,-8.874979,-2.2851455,2.9216363,0.015874445,0.0,-0.023201112,9.618892948997157,0.028112089966470008,stand
10/07/2020, 16:07:13,-8.886943,-2.2947168,2.9048867,0.015874445,0.0,-0.023201112,9.627141096002799,0.028112089966470008,stand
10/07/2020, 16:07:13,-8.886943,-2.2947168,2.9048867,0.023201112,0.0,-0.024422223,9.627141096002799,0.03368585086173493,stand
10/07/2020, 16:07:13,-8.88455,-2.333002,2.9383862,0.023201112,0.0,-0.024422223,9.644285489805476,0.03368585086173493,stand
10/07/2020, 16:07:13,-8.88455,-2.333002,2.9383862,0.029306669,0.0,-0.02075889,9.644285489805476,0.03591395736382918,stand
10/07/2020, 16:07:13,-8.898908,-2.3282163,2.9240294,0.029306669,0.0,-0.02075889,9.651999607042537,0.03591395736382918,stand
10/07/2020, 16:07:13,-8.898908,-2.3282163,2.9240294,0.034191113,0.0,-0.014653334,9.651999607042537,0.037198822759252,stand
10/07/2020, 16:07:13,-8.894122,-2.347359,2.928815,0.034191113,0.0,-0.014653334,9.653675932126834,0.037198822759252,stand
10/07/2020, 16:07:13,-8.894122,-2.347359,2.928815,0.045181114,0.0048844446,-0.015874445,9.653675932126834,0.048137188328777544,stand
10/07/2020, 16:07:13,-8.932407,-2.349752,2.9216363,0.045181114,0.0048844446,-0.015874445,9.687372953032204,0.048137188328777544,stand
10/07/2020, 16:07:13,-8.932407,-2.349752,2.9216363,0.047623336,0.007326667,-0.009768889,9.687372953032204,0.049163944226205576,stand
10/07/2020, 16:07:13,-8.927621,-2.3258235,2.8977082,0.047623336,0.007326667,-0.009768889,9.66998358646159,0.049163944226205576,stand
10/07/2020, 16:07:13,-8.927621,-2.3258235,2.8977082,0.05006556,0.0036633336,-0.0048844446,9.66998358646159,0.05043647440890482,stand
10/07/2020, 16:07:13,-8.930014,-2.3282163,2.9096723,0.05006556,0.0036633336,-0.0048844446,9.676359221105164,0.05043647440890482,stand
10/07/2020, 16:07:14,-8.803194,-2.2899313,2.8642087,-0.11844778,-0.11600556,-0.11234222,9.53644075247764,0.2002696741640014,stand
10/07/2020, 16:07:14,-8.7984085,-2.2827528,2.8977082,-0.11844778,-0.11600556,-0.11234222,9.540422689243247,0.2002696741640014,stand
10/07/2020, 16:07:14,-8.7984085,-2.2827528,2.8977082,-0.13310112,-0.11966889,-0.12455334,9.540422689243247,0.2180598227746285,stand
10/07/2020, 16:07:14,-8.781659,-2.28036,2.8977082,-0.13310112,-0.11966889,-0.12455334,9.52440503898469,0.2180598227746285,stand
10/07/2020, 16:07:14,-8.781659,-2.28036,2.8977082,-0.1526389,-0.11844778,-0.12821667,9.52440503898469,0.231879330472114,stand
10/07/2020, 16:07:14,-8.800801,-2.2707887,2.9192436,-0.1526389,-0.11844778,-0.12821667,9.546337902419202,0.231879330472114,stand
10/07/2020, 16:07:14,-8.800801,-2.2707887,2.9192436,-0.17706113,-0.11844778,-0.12577444,9.546337902419202,0.24738579080524295,stand
10/07/2020, 16:07:14,-8.803194,-2.2851455,2.9072795,-0.17706113,-0.11844778,-0.12577444,9.548318674303053,0.24738579080524295,stand
10/07/2020, 16:07:14,-8.803194,-2.2851455,2.9072795,-0.2075889,-0.123332225,-0.12699556,9.548318674303053,0.2728220310536054,stand
10/07/2020, 16:07:14,-8.819944,-2.3186452,2.9120653,-0.2075889,-0.123332225,-0.12699556,9.573278370696004,0.2728220310536054,stand
10/07/2020, 16:07:14,-8.819944,-2.3186452,2.9120653,-0.22468445,-0.13188,-0.12943779,9.573278370696004,0.29091163007368387,stand
10/07/2020, 16:07:14,-8.839087,-2.3306093,2.9072795,-0.22468445,-0.13188,-0.12943779,9.592364910793519,0.29091163007368387,stand
10/07/2020, 16:07:14,-8.839087,-2.3306093,2.9072795,-0.23689556,-0.14287001,-0.12211112,9.592364910793519,0.30239456318690766,stand
10/07/2020, 16:07:14,-8.841479,-2.3545375,2.952743,-0.23689556,-0.14287001,-0.12211112,9.614275560616166,0.30239456318690766,stand
10/07/2020, 16:07:14,-8.841479,-2.3545375,2.952743,-0.24666445,-0.14409111,-0.12211112,9.614275560616166,0.31067141065199644,stand
10/07/2020, 16:07:14,-8.819944,-2.388037,2.9503503,-0.24666445,-0.14409111,-0.12211112,9.602015738934996,0.31067141065199644,stand
10/07/2020, 16:07:14,-8.819944,-2.388037,2.9503503,-0.25277,-0.14164889,-0.12211112,9.602015738934996,0.31443315564267615,stand
10/07/2020, 16:07:14,-8.781659,-2.4263222,2.981457,-0.25277,-0.14164889,-0.12211112,9.586118210573586,0.31443315564267615,stand
10/07/2020, 16:07:14,-8.781659,-2.4263222,2.981457,-0.26376,-0.13676445,-0.12089001,9.586118210573586,0.32076197840829984,stand
10/07/2020, 16:07:14,-8.774481,-2.4478576,2.9982069,-0.26376,-0.13676445,-0.12089001,9.59024321451333,0.32076197840829984,stand
10/07/2020, 16:07:15,-8.2145605,-4.369294,2.6488547,0.04151778,0.04029667,-0.045181114,9.67399437975293,0.07340899598896428,stand
10/07/2020, 16:07:15,-8.233703,-4.3405805,2.6416762,0.04151778,0.04029667,-0.045181114,9.675378614081984,0.07340899598896428,stand
10/07/2020, 16:07:15,-8.233703,-4.3405805,2.6416762,0.058613338,0.04151778,-0.04396,9.675378614081984,0.08421241624693541,stand
10/07/2020, 16:07:15,-8.228917,-4.331009,2.6153553,0.058613338,0.04151778,-0.04396,9.659854982749154,0.08421241624693541,stand
10/07/2020, 16:07:15,-8.228917,-4.331009,2.6153553,0.078151114,0.04029667,-0.04396,9.659854982749154,0.09830513718561106,stand
10/07/2020, 16:07:15,-8.23131,-4.316652,2.658426,0.078151114,0.04029667,-0.04396,9.667221653942645,0.09830513718561106,stand
10/07/2020, 16:07:15,-8.23131,-4.316652,2.658426,0.091583334,0.045181114,-0.042738892,9.667221653942645,0.11070434966124997,stand
10/07/2020, 16:07:15,-8.181061,-4.2687955,2.6703901,0.091583334,0.045181114,-0.042738892,9.606422541484262,0.11070434966124997,stand
10/07/2020, 16:07:15,-8.181061,-4.2687955,2.6703901,0.098910004,0.05250778,-0.04396,9.606422541484262,0.12030269157360517,stand
10/07/2020, 16:07:15,-8.178668,-4.211368,2.6656044,0.098910004,0.05250778,-0.04396,9.577665598758918,0.12030269157360517,stand
10/07/2020, 16:07:15,-8.178668,-4.211368,2.6656044,0.09646778,0.064718895,-0.045181114,9.577665598758918,0.12464309294062846,stand
10/07/2020, 16:07:15,-8.216953,-4.1491547,2.672783,0.09646778,0.064718895,-0.045181114,9.585279025872955,0.12464309294062846,stand
10/07/2020, 16:07:15,-8.216953,-4.1491547,2.672783,0.09768889,0.06960334,-0.05006556,9.585279025872955,0.12997809176619302,stand
10/07/2020, 16:07:15,-8.262417,-4.113262,2.6368906,0.09768889,0.06960334,-0.05006556,9.598940048933335,0.12997809176619302,stand
10/07/2020, 16:07:15,-8.262417,-4.113262,2.6368906,0.089141116,0.06716111,-0.045181114,9.598940048933335,0.12040800083952449,stand
10/07/2020, 16:07:15,-8.327023,-4.072584,2.6464617,0.089141116,0.06716111,-0.045181114,9.639969187178032,0.12040800083952449,stand
10/07/2020, 16:07:15,-8.327023,-4.072584,2.6464617,0.07693,0.054950003,-0.039075557,9.639969187178032,0.10229675978086275,stand
10/07/2020, 16:07:15,-8.367701,-4.024728,2.6201408,0.07693,0.054950003,-0.039075557,9.64790053550384,0.10229675978086275,stand
10/07/2020, 16:07:15,-8.367701,-4.024728,2.6201408,0.05372889,0.042738892,-0.03174889,9.64790053550384,0.07563992701400711,stand
10/07/2020, 16:07:15,-8.386844,-4.0127635,2.6512475,0.05372889,0.042738892,-0.03174889,9.66801588524456,0.07563992701400711,stand
10/07/2020, 16:07:16,-8.3174515,-4.063013,2.6632116,-0.03052778,-0.034191113,0.007326667,9.63227752283099,0.046418289493752714,stand
10/07/2020, 16:07:16,-8.3174515,-4.063013,2.6632116,-0.03297,-0.04029667,0.012211111,9.63227752283099,0.05347853552517467,stand
10/07/2020, 16:07:16,-8.310273,-4.0845485,2.696711,-0.03297,-0.04029667,0.012211111,9.644502421506713,0.05347853552517467,stand
10/07/2020, 16:07:16,-8.310273,-4.0845485,2.696711,-0.029306669,-0.04029667,0.015874445,9.644502421506713,0.0522943636590957,stand
10/07/2020, 16:07:16,-8.283952,-4.0941195,2.6799614,-0.029306669,-0.04029667,0.015874445,9.62121951555918,0.0522943636590957,stand
10/07/2020, 16:07:16,-8.283952,-4.0941195,2.6799614,-0.024422223,-0.029306669,0.017095556,9.62121951555918,0.041804112846532245,stand
10/07/2020, 16:07:16,-8.281559,-4.141976,2.6991038,-0.024422223,-0.029306669,0.017095556,9.644964748394669,0.041804112846532245,stand
10/07/2020, 16:07:16,-8.281559,-4.141976,2.6991038,-0.0061055557,-0.023201112,0.015874445,9.644964748394669,0.028767471430961377,stand
10/07/2020, 16:07:16,-8.279166,-4.2017965,2.7206392,-0.0061055557,-0.023201112,0.015874445,9.674790190603868,0.028767471430961377,stand
10/07/2020, 16:07:16,-8.279166,-4.2017965,2.7206392,0.018316668,-0.015874445,0.014653334,9.674790190603868,0.028323462643799452,stand
10/07/2020, 16:07:16,-8.283952,-4.24726,2.737389,0.018316668,-0.015874445,0.014653334,9.703420740739904,0.028323462643799452,stand
10/07/2020, 16:07:16,-8.283952,-4.24726,2.737389,0.05006556,-0.0048844446,0.009768889,9.703420740739904,0.05124303987490217,stand
10/07/2020, 16:07:16,-8.310273,-4.2568316,2.7278178,0.05006556,-0.0048844446,0.009768889,9.72739665260495,0.05124303987490217,stand
10/07/2020, 16:07:16,-8.310273,-4.2568316,2.7278178,0.078151114,0.0061055557,0.0048844446,9.72739665260495,0.0785412775150932,stand
10/07/2020, 16:07:16,-8.338987,-4.2568316,2.6919255,0.078151114,0.0061055557,0.0048844446,9.741960209784205,0.0785412775150932,stand
10/07/2020, 16:07:16,-8.338987,-4.2568316,2.6919255,0.09524667,0.007326667,0.0048844446,9.741960209784205,0.09565284365260898,stand
10/07/2020, 16:07:16,-8.374879,-4.2352962,2.6512475,0.09524667,0.007326667,0.0048844446,9.752202004912112,0.09565284365260898,stand
10/07/2020, 16:07:16,-8.374879,-4.2352962,2.6512475,0.10013112,0.0048844446,0.0,9.752202004912112,0.10025017881569115,stand
10/07/2020, 16:07:16,-8.432307,-4.213761,2.5866413,0.10013112,0.0048844446,0.0,9.774983337378213,0.10025017881569115,stand
10/07/2020, 16:07:16,-8.432307,-4.213761,2.5866413,0.10013112,-0.0024422223,-0.014653334,9.774983337378213,0.10122709722125675,stand
10/07/2020, 16:07:17,-8.394022,-4.194618,2.644069,0.15019667,0.02075889,0.009768889,9.749129593660614,0.1519388127549653,stand
10/07/2020, 16:07:17,-8.394022,-4.194618,2.644069,0.14531223,0.013432222,0.009768889,9.749129593660614,0.1462583377716475,stand
10/07/2020, 16:07:17,-8.394022,-4.1611185,2.6009982,0.14531223,0.013432222,0.009768889,9.723152976848407,0.1462583377716475,stand
10/07/2020, 16:07:17,-8.394022,-4.1611185,2.6009982,0.14409111,0.0061055557,0.0048844446,9.723152976848407,0.1443031006571743,stand
10/07/2020, 16:07:17,-8.403593,-4.1036906,2.548356,0.14409111,0.0061055557,0.0048844446,9.693026962881632,0.1443031006571743,stand
10/07/2020, 16:07:17,-8.403593,-4.1036906,2.548356,0.13920668,0.0036633336,0.007326667,9.693026962881632,0.13944747819394424,stand
10/07/2020, 16:07:17,-8.410771,-4.0941195,2.5579274,0.13920668,0.0036633336,0.007326667,9.697725627574231,0.13944747819394424,stand
10/07/2020, 16:07:17,-8.410771,-4.0941195,2.5579274,0.13188,0.0048844446,0.0061055557,9.697725627574231,0.13211158189706362,stand
10/07/2020, 16:07:17,-8.394022,-4.0510488,2.5842485,0.13188,0.0048844446,0.0061055557,9.672070186113718,0.13211158189706362,stand
10/07/2020, 16:07:17,-8.394022,-4.0510488,2.5842485,0.11844778,-0.0048844446,0.0036633336,9.672070186113718,0.118605035912273,stand
10/07/2020, 16:07:17,-8.367701,-4.019942,2.5794628,0.11844778,-0.0048844446,0.0036633336,9.634935040632367,0.118605035912273,stand
10/07/2020, 16:07:17,-8.367701,-4.019942,2.5794628,0.10379445,-0.0024422223,0.007326667,9.634935040632367,0.10408137179069758,stand
10/07/2020, 16:07:17,-8.365308,-3.979264,2.5674987,0.10379445,-0.0024422223,0.007326667,9.6127501975997,0.10408137179069758,stand
10/07/2020, 16:07:17,-8.365308,-3.979264,2.5674987,0.08669889,-0.008547778,0.0061055557,9.6127501975997,0.08733292508518996,stand
10/07/2020, 16:07:17,-8.327023,-3.9840498,2.6081767,0.08669889,-0.008547778,0.0061055557,9.592421129017872,0.08733292508518996,stand
10/07/2020, 16:07:17,-8.327023,-3.9840498,2.6081767,0.068382226,-0.015874445,0.007326667,9.592421129017872,0.07058191619266657,stand
10/07/2020, 16:07:17,-8.3174515,-3.9577286,2.6201408,0.068382226,-0.015874445,0.007326667,9.576468696831272,0.07058191619266657,stand
10/07/2020, 16:07:17,-8.3174515,-3.9577286,2.6201408,0.059834447,-0.015874445,0.014653334,9.576468696831272,0.06361508662008758,stand
10/07/2020, 16:07:17,-8.305488,-3.9840498,2.644069,0.059834447,-0.015874445,0.014653334,9.583573354928363,0.06361508662008758,stand
10/07/2020, 16:07:17,-8.305488,-3.9840498,2.644069,0.054950003,-0.014653334,0.014653334,9.583573354928363,0.05872770386597209,stand
10/07/2020, 16:07:18,-8.456235,-3.9026937,2.6273193,0.035412222,-0.0036633336,-0.025643334,9.676865949863647,0.04387511889949512,stand
10/07/2020, 16:07:18,-8.472985,-3.900301,2.6608188,0.035412222,-0.0036633336,-0.025643334,9.699679574331268,0.04387511889949512,stand
10/07/2020, 16:07:18,-8.472985,-3.900301,2.6608188,0.03297,-0.0061055557,-0.025643334,9.699679574331268,0.042212311972967494,stand
10/07/2020, 16:07:18,-8.506484,-3.8476589,2.6608188,0.03297,-0.0061055557,-0.025643334,9.707971268426794,0.042212311972967494,stand
10/07/2020, 16:07:18,-8.506484,-3.8476589,2.6608188,0.023201112,-0.019537779,-0.024422223,9.707971268426794,0.03894176857537633,stand
10/07/2020, 16:07:18,-8.520842,-3.8141594,2.6751757,0.023201112,-0.019537779,-0.024422223,9.711288188123016,0.03894176857537633,stand
10/07/2020, 16:07:18,-8.520842,-3.8141594,2.6751757,0.013432222,-0.03052778,-0.023201112,9.711288188123016,0.04062833401589171,stand
10/07/2020, 16:07:18,-8.513663,-3.804588,2.6273193,0.013432222,-0.03052778,-0.023201112,9.688145333121259,0.04062833401589171,stand
10/07/2020, 16:07:18,-8.513663,-3.804588,2.6273193,0.0024422223,-0.036633335,-0.025643334,9.688145333121259,0.04478332563625805,stand
10/07/2020, 16:07:18,-8.487342,-3.7734814,2.629712,0.0024422223,-0.036633335,-0.025643334,9.653471893469282,0.04478332563625805,stand
10/07/2020, 16:07:18,-8.487342,-3.7734814,2.629712,-0.0061055557,-0.042738892,-0.024422223,9.653471893469282,0.04960177088980441,stand
10/07/2020, 16:07:18,-8.453842,-3.7710886,2.6321049,-0.0061055557,-0.042738892,-0.024422223,9.623748366127748,0.04960177088980441,stand
10/07/2020, 16:07:18,-8.453842,-3.7710886,2.6321049,-0.018316668,-0.046402223,-0.03052778,9.623748366127748,0.05848599822197005,stand
10/07/2020, 16:07:18,-8.46102,-3.7806597,2.6105695,-0.018316668,-0.046402223,-0.03052778,9.627945158000301,0.05848599822197005,stand
10/07/2020, 16:07:18,-8.46102,-3.7806597,2.6105695,-0.029306669,-0.045181114,-0.03052778,9.627945158000301,0.061904436510776005,stand
10/07/2020, 16:07:18,-8.472985,-3.7447674,2.6105695,-0.029306669,-0.045181114,-0.03052778,9.624439486325828,0.061904436510776005,stand
10/07/2020, 16:07:18,-8.472985,-3.7447674,2.6105695,-0.046402223,-0.045181114,-0.023201112,9.624439486325828,0.0687952832997179,stand
10/07/2020, 16:07:18,-8.513663,-3.7304106,2.5866413,-0.046402223,-0.045181114,-0.023201112,9.648271295316343,0.0687952832997179,stand
10/07/2020, 16:07:18,-8.513663,-3.7304106,2.5866413,-0.068382226,-0.051286668,-0.019537779,9.648271295316343,0.08768224385100838,stand
10/07/2020, 16:07:18,-8.5016985,-3.7615173,2.629712,-0.068382226,-0.051286668,-0.019537779,9.661432364376207,0.08768224385100838,stand
10/07/2020, 16:07:19,-8.085348,-4.287938,2.7469604,0.03174889,0.02198,-0.012211111,9.555368078874055,0.04049967582467778,stand
10/07/2020, 16:07:19,-8.085348,-4.287938,2.7469604,0.04029667,0.036633335,-0.012211111,9.555368078874055,0.055811594630851245,stand
10/07/2020, 16:07:19,-8.133204,-4.278367,2.7397819,0.04029667,0.036633335,-0.012211111,9.58956954000652,0.055811594630851245,stand
10/07/2020, 16:07:19,-8.133204,-4.278367,2.7397819,0.054950003,0.047623336,-0.0024422223,9.58956954000652,0.07275609524495098,stand
10/07/2020, 16:07:19,-8.1738825,-4.2687955,2.737389,0.054950003,0.047623336,-0.0024422223,9.619161544771417,0.07275609524495098,stand
10/07/2020, 16:07:19,-8.1738825,-4.2687955,2.737389,0.06960334,0.05006556,0.0024422223,9.619161544771417,0.08577382680917037,stand
10/07/2020, 16:07:19,-8.185846,-4.28076,2.7182465,0.06960334,0.05006556,0.0024422223,9.629218478031811,0.08577382680917037,stand
10/07/2020, 16:07:19,-8.185846,-4.28076,2.7182465,0.08059334,0.051286668,0.007326667,9.629218478031811,0.09580860500246846,stand
10/07/2020, 16:07:19,-8.207381,-4.2664027,2.7110682,0.08059334,0.051286668,0.007326667,9.639148804292597,0.09580860500246846,stand
10/07/2020, 16:07:19,-8.207381,-4.2664027,2.7110682,0.09402556,0.05372889,0.01099,9.639148804292597,0.10885026216845389,stand
10/07/2020, 16:07:19,-8.240881,-4.2687955,2.7014968,0.09402556,0.05372889,0.01099,9.6660653427605,0.10885026216845389,stand
10/07/2020, 16:07:19,-8.240881,-4.2687955,2.7014968,0.10501556,0.058613338,0.012211111,9.6660653427605,0.12088383941515728,stand
10/07/2020, 16:07:19,-8.260024,-4.2687955,2.7038896,0.10501556,0.058613338,0.012211111,9.683059000193504,0.12088383941515728,stand
10/07/2020, 16:07:19,-8.260024,-4.2687955,2.7038896,0.11966889,0.06960334,0.015874445,9.683059000193504,0.13934585343913286,stand
10/07/2020, 16:07:19,-8.260024,-4.2975097,2.6751757,0.11966889,0.06960334,0.015874445,9.687783640412535,0.13934585343913286,stand
10/07/2020, 16:07:19,-8.260024,-4.2975097,2.6751757,0.13554333,0.068382226,0.013432222,9.687783640412535,0.15240914715824383,stand
10/07/2020, 16:07:19,-8.250452,-4.2831526,2.672783,0.13554333,0.068382226,0.013432222,9.672596514718192,0.15240914715824383,stand
10/07/2020, 16:07:19,-8.250452,-4.2831526,2.672783,0.14897557,0.07326667,0.018316668,9.672596514718192,0.16702462253155637,stand
10/07/2020, 16:07:19,-8.29113,-4.254439,2.6608188,0.14897557,0.07326667,0.018316668,9.691390235486674,0.16702462253155637,stand
10/07/2020, 16:07:19,-8.29113,-4.254439,2.6608188,0.14775445,0.07693,0.014653334,9.691390235486674,0.16722536152373496,stand
10/07/2020, 16:07:20,-8.664411,-4.208975,2.5220351,0.6459678,0.15141778,0.024422223,9.957315965503618,0.6639263234204806,stand
10/07/2020, 16:07:20,-8.755338,-4.0941195,2.495714,0.6459678,0.15141778,0.024422223,9.982301413121366,0.6639263234204806,stand
10/07/2020, 16:07:20,-8.755338,-4.0941195,2.495714,0.6569578,0.12821667,0.0061055557,9.982301413121366,0.6693805716979284,stand
10/07/2020, 16:07:20,-8.805588,-3.9242291,2.5220351,0.6569578,0.12821667,0.0061055557,9.964868864604627,0.6693805716979284,stand
10/07/2020, 16:07:20,-8.805588,-3.9242291,2.5220351,0.64841,0.106236674,0.0,9.964868864604627,0.6570553917632379,stand
10/07/2020, 16:07:20,-8.827123,-3.7758741,2.5148566,0.64841,0.106236674,0.0,9.924707756995153,0.6570553917632379,stand
10/07/2020, 16:07:20,-8.827123,-3.7758741,2.5148566,0.58979666,0.07570889,-0.023201112,9.924707756995153,0.5950884222316783,stand
10/07/2020, 16:07:20,-8.800801,-3.6275191,2.4741786,0.58979666,0.07570889,-0.023201112,9.835372777581863,0.5950884222316783,stand
10/07/2020, 16:07:20,-8.800801,-3.6275191,2.4741786,0.5189722,0.06349778,-0.03297,9.835372777581863,0.5238808569563825,stand
10/07/2020, 16:07:20,-8.803194,-3.5389848,2.507678,0.5189722,0.06349778,-0.03297,9.813719364501855,0.5238808569563825,stand
10/07/2020, 16:07:20,-8.803194,-3.5389848,2.507678,0.4689067,0.06105556,-0.023201112,9.813719364501855,0.4734338040616767,stand
10/07/2020, 16:07:20,-8.793623,-3.4863427,2.4765713,0.4689067,0.06105556,-0.023201112,9.778332969457566,0.4734338040616767,stand
10/07/2020, 16:07:20,-8.793623,-3.4863427,2.4765713,0.43349445,0.03174889,-0.028085556,9.778332969457566,0.43556196751055537,stand
10/07/2020, 16:07:20,-8.7673025,-3.438486,2.4909284,0.43349445,0.03174889,-0.028085556,9.741329701967317,0.43556196751055537,stand
10/07/2020, 16:07:20,-8.7673025,-3.438486,2.4909284,0.40052447,0.018316668,-0.036633335,9.741329701967317,0.40261315228916167,stand
10/07/2020, 16:07:20,-8.700303,-3.359523,2.5220351,0.40052447,0.018316668,-0.036633335,9.66138344010826,0.40261315228916167,stand
10/07/2020, 16:07:20,-8.700303,-3.359523,2.5220351,0.35168,0.014653334,-0.039075557,9.66138344010826,0.3541474963914841,stand
10/07/2020, 16:07:20,-8.662018,-3.2159536,2.5196424,0.35168,0.014653334,-0.039075557,9.577134635362732,0.3541474963914841,stand
10/07/2020, 16:07:20,-8.662018,-3.2159536,2.5196424,0.29306668,0.007326667,-0.035412222,9.577134635362732,0.2952893237295658,stand
10/07/2020, 16:07:20,-8.6141615,-3.182454,2.5316064,0.29306668,0.007326667,-0.035412222,9.525797788247957,0.2952893237295658,stand
10/07/2020, 16:07:21,-8.106883,-3.818945,2.8522446,-0.15508112,0.0036633336,0.02075889,9.404317758537768,0.15650720832380094,stand
10/07/2020, 16:07:21,-8.106883,-3.818945,2.8522446,-0.13676445,0.014653334,0.026864445,9.404317758537768,0.14014611624375542,stand
10/07/2020, 16:07:21,-8.154739,-3.897908,2.8785655,-0.13676445,0.014653334,0.026864445,9.485757773599142,0.14014611624375542,stand
10/07/2020, 16:07:21,-8.154739,-3.897908,2.8785655,-0.11356334,0.03052778,0.037854444,9.485757773599142,0.12353758809142662,stand
10/07/2020, 16:07:21,-8.161918,-3.9361932,2.8809586,-0.11356334,0.03052778,0.037854444,9.50844044282806,0.12353758809142662,stand
10/07/2020, 16:07:21,-8.161918,-3.9361932,2.8809586,-0.089141116,0.05006556,0.04029667,9.50844044282806,0.10989322197558676,stand
10/07/2020, 16:07:21,-8.183454,-4.0127635,2.87378,-0.089141116,0.05006556,0.04029667,9.556662316593991,0.10989322197558676,stand
10/07/2020, 16:07:21,-8.183454,-4.0127635,2.87378,-0.058613338,0.068382226,0.04396,9.556662316593991,0.1002204264663804,stand
10/07/2020, 16:07:21,-8.236095,-4.082155,2.8809586,-0.058613338,0.068382226,0.04396,9.63312936783406,0.1002204264663804,stand
10/07/2020, 16:07:21,-8.236095,-4.082155,2.8809586,-0.008547778,0.078151114,0.051286668,9.63312936783406,0.0938668389201507,stand
10/07/2020, 16:07:21,-8.305488,-4.1778684,2.87378,-0.008547778,0.078151114,0.051286668,9.731100680886552,0.0938668389201507,stand
10/07/2020, 16:07:21,-8.305488,-4.1778684,2.87378,0.05250778,0.08669889,0.045181114,9.731100680886552,0.11097340931866277,stand
10/07/2020, 16:07:21,-8.355737,-4.2185464,2.8474588,0.05250778,0.08669889,0.045181114,9.783787192790843,0.11097340931866277,stand
10/07/2020, 16:07:21,-8.355737,-4.2185464,2.8474588,0.117226675,0.09768889,0.042738892,9.783787192790843,0.15846711233602245,stand
10/07/2020, 16:07:21,-8.374879,-4.249653,2.8019953,0.117226675,0.09768889,0.042738892,9.800475666912694,0.15846711233602245,stand
10/07/2020, 16:07:21,-8.374879,-4.249653,2.8019953,0.19171445,0.11356334,0.03297,9.800475666912694,0.22525115515602856,stand
10/07/2020, 16:07:21,-8.360522,-4.2711883,2.8115666,0.19171445,0.11356334,0.03297,9.800320835184154,0.22525115515602856,stand
10/07/2020, 16:07:21,-8.360522,-4.2711883,2.8115666,0.2515489,0.12699556,0.02075889,9.800320835184154,0.2825520250270472,stand
10/07/2020, 16:07:21,-8.389236,-4.24726,2.8235307,0.2515489,0.12699556,0.02075889,9.817883274292805,0.2825520250270472,stand
10/07/2020, 16:07:21,-8.389236,-4.24726,2.8235307,0.29917222,0.14409111,0.017095556,9.817883274292805,0.3325034226665692,stand
10/07/2020, 16:07:22,-8.477771,-3.591627,2.7565317,-0.09036223,-0.047623336,-0.017095556,9.610975423423026,0.10356434011888249,stand
10/07/2020, 16:07:22,-8.456235,-3.5772698,2.7445676,-0.09036223,-0.047623336,-0.017095556,9.583184224636804,0.10356434011888249,stand
10/07/2020, 16:07:22,-8.456235,-3.5772698,2.7445676,-0.08792,-0.051286668,-0.014653334,9.583184224636804,0.10283466995605706,stand
10/07/2020, 16:07:22,-8.446664,-3.615555,2.7589245,-0.08792,-0.051286668,-0.014653334,9.593228493039188,0.10283466995605706,stand
10/07/2020, 16:07:22,-8.446664,-3.615555,2.7589245,-0.09402556,-0.048844445,-0.012211111,9.593228493039188,0.1066569124725496,stand
10/07/2020, 16:07:22,-8.465807,-3.6011982,2.737389,-0.09402556,-0.048844445,-0.012211111,9.598531917386772,0.1066569124725496,stand
10/07/2020, 16:07:22,-8.465807,-3.6011982,2.737389,-0.09402556,-0.05250778,-0.015874445,9.598531917386772,0.10885711236064828,stand
10/07/2020, 16:07:22,-8.451449,-3.591627,2.6919255,-0.09402556,-0.05250778,-0.015874445,9.569390971340376,0.10885711236064828,stand
10/07/2020, 16:07:22,-8.451449,-3.591627,2.6919255,-0.09768889,-0.05372889,-0.017095556,9.569390971340376,0.11279260197639768,stand
10/07/2020, 16:07:22,-8.458628,-3.5796626,2.6991038,-0.09768889,-0.05372889,-0.017095556,9.57327154799673,0.11279260197639768,stand
10/07/2020, 16:07:22,-8.458628,-3.5796626,2.6991038,-0.102573335,-0.047623336,-0.014653334,9.57327154799673,0.11403504487087189,stand
10/07/2020, 16:07:22,-8.451449,-3.5940197,2.6679974,-0.102573335,-0.047623336,-0.014653334,9.563586358270541,0.11403504487087189,stand
10/07/2020, 16:07:22,-8.451449,-3.5940197,2.6679974,-0.10867889,-0.05006556,-0.014653334,9.563586358270541,0.12055032960916943,stand
10/07/2020, 16:07:22,-8.4682,-3.6370904,2.6799614,-0.10867889,-0.05006556,-0.014653334,9.597969936577053,0.12055032960916943,stand
10/07/2020, 16:07:22,-8.4682,-3.6370904,2.6799614,-0.102573335,-0.046402223,-0.019537779,9.597969936577053,0.11426364346009561,stand
10/07/2020, 16:07:22,-8.46102,-3.6849468,2.7110682,-0.102573335,-0.046402223,-0.019537779,9.61860648213538,0.11426364346009561,stand
10/07/2020, 16:07:22,-8.46102,-3.6849468,2.7110682,-0.10013112,-0.039075557,-0.019537779,9.61860648213538,0.1092468054938219,stand
10/07/2020, 16:07:22,-8.465807,-3.7040894,2.7589245,-0.10013112,-0.039075557,-0.019537779,9.643745647738816,0.1092468054938219,stand
10/07/2020, 16:07:22,-8.465807,-3.7040894,2.7589245,-0.10135223,-0.025643334,-0.018316668,9.643745647738816,0.10613837828691162,stand
10/07/2020, 16:07:22,-8.382058,-3.6993039,2.751746,-0.10135223,-0.025643334,-0.018316668,9.566391876040063,0.10613837828691162,stand
10/07/2020, 16:07:23,-8.688339,-3.4360933,2.6153553,-0.15019667,-0.06960334,-0.06960334,9.702270822351773,0.17957808797326502,stand
10/07/2020, 16:07:23,-8.688339,-3.4360933,2.6153553,-0.18072446,-0.089141116,-0.06227667,9.702270822351773,0.2109166927664558,stand
10/07/2020, 16:07:23,-8.721839,-3.5006995,2.6129622,-0.18072446,-0.089141116,-0.06227667,9.754637026457422,0.2109166927664558,stand
10/07/2020, 16:07:23,-8.721839,-3.5006995,2.6129622,-0.19782001,-0.10745778,-0.06105556,9.754637026457422,0.23325460594550562,stand
10/07/2020, 16:07:23,-8.717052,-3.4863427,2.658426,-0.19782001,-0.10745778,-0.06105556,9.75750059348791,0.23325460594550562,stand
10/07/2020, 16:07:23,-8.717052,-3.4863427,2.658426,-0.21491556,-0.117226675,-0.06227667,9.75750059348791,0.2526047786949605,stand
10/07/2020, 16:07:23,-8.683554,-3.5413775,2.7110682,-0.21491556,-0.117226675,-0.06227667,9.761933734154125,0.2526047786949605,stand
10/07/2020, 16:07:23,-8.683554,-3.5413775,2.7110682,-0.22102112,-0.11478445,-0.05250778,9.761933734154125,0.2545247933755124,stand
10/07/2020, 16:07:23,-8.63809,-3.5940197,2.7302105,-0.22102112,-0.11478445,-0.05250778,9.746159654933436,0.2545247933755124,stand
10/07/2020, 16:07:23,-8.63809,-3.5940197,2.7302105,-0.22346334,-0.11112112,-0.05372889,9.746159654933436,0.25528525516111145,stand
10/07/2020, 16:07:23,-8.590233,-3.6514473,2.7900312,-0.22346334,-0.11112112,-0.05372889,9.74214770088978,0.25528525516111145,stand
10/07/2020, 16:07:23,-8.590233,-3.6514473,2.7900312,-0.23933779,-0.10379445,-0.04396,9.74214770088978,0.26455310519668684,stand
10/07/2020, 16:07:23,-8.508878,-3.6729827,2.8019953,-0.23933779,-0.10379445,-0.04396,9.682095849129077,0.26455310519668684,stand
10/07/2020, 16:07:23,-8.508878,-3.6729827,2.8019953,-0.26376,-0.09646778,-0.036633335,9.682095849129077,0.283226713592946,stand
10/07/2020, 16:07:23,-8.446664,-3.6753755,2.8163524,-0.26376,-0.09646778,-0.036633335,9.632567453475165,0.283226713592946,stand
10/07/2020, 16:07:23,-8.446664,-3.6753755,2.8163524,-0.27963445,-0.098910004,-0.028085556,9.632567453475165,0.29793860216115275,stand
10/07/2020, 16:07:23,-8.374879,-3.735196,2.8139594,-0.27963445,-0.098910004,-0.028085556,9.592114136015732,0.29793860216115275,stand
10/07/2020, 16:07:23,-8.374879,-3.735196,2.8139594,-0.28818223,-0.09768889,-0.028085556,9.592114136015732,0.3055829099785334,stand
10/07/2020, 16:07:23,-8.3174515,-3.818945,2.8115666,-0.28818223,-0.09768889,-0.028085556,9.574405786075774,0.3055829099785334,stand
10/07/2020, 16:07:23,-8.3174515,-3.818945,2.8115666,-0.28818223,-0.08425667,-0.028085556,9.574405786075774,0.3015575933674799,stand
10/07/2020, 16:07:24,-8.427522,-2.8498518,3.1250265,-0.014653334,-0.06227667,0.0036633336,9.429240056893338,0.06408216370059058,stand
10/07/2020, 16:07:24,-8.427522,-2.8498518,3.1250265,-0.024422223,-0.047623336,0.007326667,9.429240056893338,0.054019507383676495,stand
10/07/2020, 16:07:24,-8.420342,-2.8809586,3.1920254,-0.024422223,-0.047623336,0.007326667,9.454687483288408,0.054019507383676495,stand
10/07/2020, 16:07:24,-8.420342,-2.8809586,3.1920254,-0.03174889,-0.04151778,0.018316668,9.454687483288408,0.055382473522570703,stand
10/07/2020, 16:07:24,-8.408379,-2.952743,3.196811,-0.03174889,-0.04151778,0.018316668,9.467793964673927,0.055382473522570703,stand
10/07/2020, 16:07:24,-8.408379,-2.952743,3.196811,-0.03174889,-0.037854444,0.03174889,9.467793964673927,0.058727702936463226,stand
10/07/2020, 16:07:24,-8.439486,-3.0005996,3.1848469,-0.03174889,-0.037854444,0.03174889,9.5064064756334,0.058727702936463226,stand
10/07/2020, 16:07:24,-8.439486,-3.0005996,3.1848469,-0.029306669,-0.035412222,0.042738892,9.5064064756334,0.06276558941038099,stand
10/07/2020, 16:07:24,-8.465807,-3.0364919,3.1680973,-0.029306669,-0.035412222,0.042738892,9.535565563591286,0.06276558941038099,stand
10/07/2020, 16:07:24,-8.465807,-3.0364919,3.1680973,-0.025643334,-0.03297,0.045181114,9.535565563591286,0.06152994843659548,stand
10/07/2020, 16:07:24,-8.425129,-3.0556345,3.1752756,-0.025643334,-0.03297,0.045181114,9.508000562617536,0.06152994843659548,stand
10/07/2020, 16:07:24,-8.425129,-3.0556345,3.1752756,-0.03052778,-0.03174889,0.045181114,9.508000562617536,0.0630973097379025,stand
10/07/2020, 16:07:24,-8.410771,-3.0795627,3.1657043,-0.03052778,-0.03174889,0.045181114,9.499813926577513,0.0630973097379025,stand
10/07/2020, 16:07:24,-8.410771,-3.0795627,3.1657043,-0.037854444,-0.02198,0.051286668,9.499813926577513,0.06742700979134214,stand
10/07/2020, 16:07:24,-8.429914,-3.103491,3.1369905,-0.037854444,-0.02198,0.051286668,9.515031505398115,0.06742700979134214,stand
10/07/2020, 16:07:24,-8.429914,-3.103491,3.1369905,-0.047623336,-0.015874445,0.054950003,9.515031505398115,0.07442770292976579,stand
10/07/2020, 16:07:24,-8.432307,-3.1489546,3.1202407,-0.047623336,-0.015874445,0.054950003,9.526574550195578,0.07442770292976579,stand
10/07/2020, 16:07:24,-8.432307,-3.1489546,3.1202407,-0.070824444,-0.012211111,0.06227667,9.526574550195578,0.09509782664800265,stand
10/07/2020, 16:07:24,-8.422736,-3.1920254,3.1465619,-0.070824444,-0.012211111,0.06227667,9.541088114094642,0.09509782664800265,stand
10/07/2020, 16:07:24,-8.422736,-3.1920254,3.1465619,-0.081814446,-0.0012211112,0.059834447,9.541088114094642,0.10136693559940037,stand
10/07/2020, 16:07:25,-9.068798,-1.6319051,2.7493532,0.29795113,0.06716111,-0.051286668,9.615880375148905,0.3097027840848386,stand
10/07/2020, 16:07:25,-9.066405,-1.5960127,2.7158537,0.29795113,0.06716111,-0.051286668,9.598063494479446,0.3097027840848386,stand
10/07/2020, 16:07:25,-9.066405,-1.5960127,2.7158537,0.26864445,0.059834447,-0.04151778,9.598063494479446,0.27834102940917554,stand
10/07/2020, 16:07:25,-9.109476,-1.5888343,2.696711,0.26864445,0.059834447,-0.04151778,9.632195989060678,0.27834102940917554,stand
10/07/2020, 16:07:25,-9.109476,-1.5888343,2.696711,0.23201112,0.05250778,-0.03297,9.632195989060678,0.24015255527264143,stand
10/07/2020, 16:07:25,-9.114262,-1.5816557,2.672783,0.23201112,0.05250778,-0.03297,9.62887160111607,0.24015255527264143,stand
10/07/2020, 16:07:25,-9.114262,-1.5816557,2.672783,0.19049335,0.045181114,-0.024422223,9.62887160111607,0.19729544504450544,stand
10/07/2020, 16:07:25,-9.131011,-1.579263,2.6225336,0.19049335,0.045181114,-0.024422223,9.630530403723752,0.19729544504450544,stand
10/07/2020, 16:07:25,-9.131011,-1.579263,2.6225336,0.15141778,0.04151778,-0.028085556,9.630530403723752,0.15949880129823354,stand
10/07/2020, 16:07:25,-9.116654,-1.5529419,2.6608188,0.15141778,0.04151778,-0.028085556,9.623147756658273,0.15949880129823354,stand
10/07/2020, 16:07:25,-9.116654,-1.5529419,2.6608188,0.11600556,0.035412222,-0.028085556,9.623147756658273,0.12449945541455956,stand
10/07/2020, 16:07:25,-9.12144,-1.5314065,2.6249263,0.11600556,0.035412222,-0.028085556,9.614370006994196,0.12449945541455956,stand
10/07/2020, 16:07:25,-9.12144,-1.5314065,2.6249263,0.07570889,0.023201112,-0.012211111,9.614370006994196,0.0801201511408536,stand
10/07/2020, 16:07:25,-9.123833,-1.5337993,2.6368906,0.07570889,0.023201112,-0.012211111,9.620293953341676,0.0801201511408536,stand
10/07/2020, 16:07:25,-9.123833,-1.5337993,2.6368906,0.04396,0.017095556,-0.009768889,9.620293953341676,0.048168153019919537,stand
10/07/2020, 16:07:25,-9.162118,-1.5481563,2.6321049,0.04396,0.017095556,-0.009768889,9.657596458402388,0.048168153019919537,stand
10/07/2020, 16:07:25,-9.162118,-1.5481563,2.6321049,0.013432222,0.009768889,-0.0012211112,9.657596458402388,0.016653735600197332,stand
10/07/2020, 16:07:25,-9.135797,-1.6007984,2.7014968,0.013432222,0.009768889,-0.0012211112,9.66040470877943,0.016653735600197332,stand
10/07/2020, 16:07:25,-9.135797,-1.6007984,2.7014968,-0.012211111,-0.0012211112,0.007326667,9.66040470877943,0.014292739614090928,stand
10/07/2020, 16:07:25,-9.119047,-1.6079768,2.7445676,-0.012211111,-0.0012211112,0.007326667,9.6579118890748,0.014292739614090928,stand
10/07/2020, 16:07:26,-9.018549,-1.7730815,2.821138,0.03297,-0.0024422223,-0.023201112,9.614409117218571,0.04038906953651617,stand
10/07/2020, 16:07:26,-8.992228,-1.7635103,2.8259234,0.03297,-0.0024422223,-0.023201112,9.589367467950922,0.04038906953651617,stand
10/07/2020, 16:07:26,-8.992228,-1.7635103,2.8259234,0.025643334,0.0012211112,-0.02075889,9.589367467950922,0.033015196176002445,stand
10/07/2020, 16:07:26,-9.013762,-1.7850457,2.8163524,0.025643334,0.0012211112,-0.02075889,9.61073061222199,0.033015196176002445,stand
10/07/2020, 16:07:26,-9.013762,-1.7850457,2.8163524,0.02198,0.0,-0.018316668,9.61073061222199,0.02861154903704171,stand
10/07/2020, 16:07:26,-9.032906,-1.8089739,2.8354948,0.02198,0.0,-0.018316668,9.638765497135429,0.02861154903704171,stand
10/07/2020, 16:07:26,-9.032906,-1.8089739,2.8354948,0.019537779,-0.0036633336,-0.015874445,9.638765497135429,0.0254390019955473,stand
10/07/2020, 16:07:26,-9.025727,-1.8185452,2.8235307,0.019537779,-0.0036633336,-0.015874445,9.630326317499781,0.0254390019955473,stand
10/07/2020, 16:07:26,-9.025727,-1.8185452,2.8235307,0.018316668,-0.0024422223,-0.014653334,9.630326317499781,0.023583574114743804,stand
10/07/2020, 16:07:26,-8.980264,-1.8568304,2.8115666,0.018316668,-0.0024422223,-0.014653334,9.591551593924184,0.023583574114743804,stand
10/07/2020, 16:07:26,-8.980264,-1.8568304,2.8115666,0.023201112,-0.0024422223,-0.01099,9.591551593924184,0.02578829465911374,stand
10/07/2020, 16:07:26,-8.965906,-1.8592232,2.8235307,0.023201112,-0.0024422223,-0.01099,9.58209316986521,0.02578829465911374,stand
10/07/2020, 16:07:26,-8.965906,-1.8592232,2.8235307,0.023201112,0.0,-0.019537779,9.58209316986521,0.030331771722168832,stand
10/07/2020, 16:07:26,-8.949157,-1.8640088,2.8402805,0.023201112,0.0,-0.019537779,9.572310535556324,0.030331771722168832,stand
10/07/2020, 16:07:26,-8.949157,-1.8640088,2.8402805,0.02198,0.0012211112,-0.018316668,9.572310535556324,0.028637595059044955,stand
10/07/2020, 16:07:26,-8.956335,-1.8807586,2.8187451,0.02198,0.0012211112,-0.018316668,9.575934161363607,0.028637595059044955,stand
10/07/2020, 16:07:26,-8.956335,-1.8807586,2.8187451,0.023201112,0.0048844446,-0.023201112,9.575934161363607,0.0331728950814061,stand
10/07/2020, 16:07:26,-8.977871,-1.9046868,2.8187451,0.023201112,0.0048844446,-0.023201112,9.600798019860639,0.0331728950814061,stand
10/07/2020, 16:07:26,-8.977871,-1.9046868,2.8187451,0.026864445,0.0048844446,-0.024422223,9.600798019860639,0.03663333399842183,stand
10/07/2020, 16:07:26,-8.997013,-1.9118652,2.8283165,0.026864445,0.0048844446,-0.024422223,9.622933398646333,0.03663333399842183,stand
10/07/2020, 16:07:27,-9.025727,-1.861616,2.7684958,0.051286668,0.0061055557,-0.0012211112,9.622574289773613,0.05166324800791768,stand
10/07/2020, 16:07:27,-8.99462,-1.8400806,2.7708886,0.051286668,0.0061055557,-0.0012211112,9.589938211096625,0.05166324800791768,stand
10/07/2020, 16:07:27,-8.99462,-1.8400806,2.7708886,0.05006556,0.0036633336,-0.01099,9.589938211096625,0.0513883280384065,stand
10/07/2020, 16:07:27,-8.999406,-1.8329022,2.7828526,0.05006556,0.0036633336,-0.01099,9.596515261721592,0.0513883280384065,stand
10/07/2020, 16:07:27,-8.999406,-1.8329022,2.7828526,0.046402223,0.0061055557,-0.01099,9.596515261721592,0.04807519375651333,stand
10/07/2020, 16:07:27,-8.975478,-1.8329022,2.778067,0.046402223,0.0061055557,-0.01099,9.572690099937251,0.04807519375651333,stand
10/07/2020, 16:07:27,-8.975478,-1.8329022,2.778067,0.045181114,0.007326667,-0.015874445,9.572690099937251,0.04844596116239011,stand
10/07/2020, 16:07:27,-9.006584,-1.8329022,2.7948167,0.045181114,0.007326667,-0.015874445,9.606721052628137,0.04844596116239011,stand
10/07/2020, 16:07:27,-9.006584,-1.8329022,2.7948167,0.046402223,0.0061055557,-0.019537779,9.606721052628137,0.05071655488076807,stand
10/07/2020, 16:07:27,-9.018549,-1.8544376,2.7948167,0.046402223,0.0061055557,-0.019537779,9.622066554743999,0.05071655488076807,stand
10/07/2020, 16:07:27,-9.018549,-1.8544376,2.7948167,0.047623336,0.0061055557,-0.02198,9.622066554743999,0.05280511718612579,stand
10/07/2020, 16:07:27,-9.020942,-1.8664017,2.8115666,0.047623336,0.0061055557,-0.02198,9.63149789355701,0.05280511718612579,stand
10/07/2020, 16:07:27,-9.020942,-1.8664017,2.8115666,0.05250778,0.0061055557,-0.015874445,9.63149789355701,0.05519368478777896,stand
10/07/2020, 16:07:27,-9.0233345,-1.9094725,2.7972097,0.05250778,0.0061055557,-0.015874445,9.637999428331415,0.05519368478777896,stand
10/07/2020, 16:07:27,-9.0233345,-1.9094725,2.7972097,0.05617111,0.0024422223,-0.017095556,9.637999428331415,0.05876577488604527,stand
10/07/2020, 16:07:27,-9.0233345,-1.8831514,2.8115666,0.05617111,0.0024422223,-0.017095556,9.636998054053372,0.05876577488604527,stand
10/07/2020, 16:07:27,-9.0233345,-1.8831514,2.8115666,0.06227667,0.008547778,-0.014653334,9.636998054053372,0.06454586124886921,stand
10/07/2020, 16:07:27,-9.013762,-1.8855443,2.766103,0.06227667,0.008547778,-0.014653334,9.615327202688794,0.06454586124886921,stand
10/07/2020, 16:07:27,-9.013762,-1.8855443,2.766103,0.06349778,0.008547778,-0.007326667,9.615327202688794,0.06448808302856873,stand
10/07/2020, 16:07:27,-9.0233345,-1.8831514,2.7708886,0.06349778,0.008547778,-0.007326667,9.625208997590281,0.06448808302856873,stand
10/07/2020, 16:07:28,-9.044869,-1.875973,2.7278178,0.04151778,-0.0012211112,0.0036633336,9.63171466197655,0.041696967729091046,stand
10/07/2020, 16:07:28,-9.068798,-1.8568304,2.7158537,0.04151778,-0.0012211112,0.0036633336,9.647112448751034,0.041696967729091046,stand
10/07/2020, 16:07:28,-9.068798,-1.8568304,2.7158537,0.028085556,-0.007326667,0.012211111,9.647112448751034,0.03148951797612805,stand
10/07/2020, 16:07:28,-9.092726,-1.8592232,2.725425,0.028085556,-0.007326667,0.012211111,9.672761455333688,0.03148951797612805,stand
10/07/2020, 16:07:28,-9.092726,-1.8592232,2.725425,0.012211111,-0.015874445,0.03297,9.672761455333688,0.03857629016405139,stand
10/07/2020, 16:07:28,-9.116654,-1.8640088,2.7445676,0.012211111,-0.015874445,0.03297,9.701575522326342,0.03857629016405139,stand
10/07/2020, 16:07:28,-9.116654,-1.8640088,2.7445676,-0.0012211112,-0.018316668,0.04029667,9.701575522326342,0.044281068627942365,stand
10/07/2020, 16:07:28,-9.071191,-1.8831514,2.7397819,-0.0012211112,-0.018316668,0.04029667,9.661219747507767,0.044281068627942365,stand
10/07/2020, 16:07:28,-9.071191,-1.8831514,2.7397819,-0.007326667,-0.02075889,0.048844445,9.661219747507767,0.05357603387874035,stand
10/07/2020, 16:07:28,-9.020942,-1.8711873,2.7756743,-0.007326667,-0.02075889,0.048844445,9.622011216694034,0.05357603387874035,stand
10/07/2020, 16:07:28,-9.020942,-1.8711873,2.7756743,-0.0048844446,-0.019537779,0.048844445,9.622011216694034,0.05283334597446429,stand
10/07/2020, 16:07:28,-8.9826565,-1.8568304,2.7732813,-0.0048844446,-0.019537779,0.048844445,9.582641899055364,0.05283334597446429,stand
10/07/2020, 16:07:28,-8.9826565,-1.8568304,2.7732813,-0.01099,-0.017095556,0.04396,9.582641899055364,0.04843056756560946,stand
10/07/2020, 16:07:28,-8.958728,-1.8544376,2.806781,-0.01099,-0.017095556,0.04396,9.569522616455284,0.04843056756560946,stand
10/07/2020, 16:07:28,-8.958728,-1.8544376,2.806781,-0.008547778,-0.014653334,0.048844445,9.569522616455284,0.05170652354991512,stand
10/07/2020, 16:07:28,-8.946764,-1.8807586,2.792424,-0.008547778,-0.014653334,0.048844445,9.5592609860837,0.05170652354991512,stand
10/07/2020, 16:07:28,-8.946764,-1.8807586,2.792424,-0.0048844446,-0.008547778,0.037854444,9.5592609860837,0.03911369658719472,stand
10/07/2020, 16:07:28,-8.946764,-1.8807586,2.7876384,-0.0048844446,-0.008547778,0.037854444,9.557864144306464,0.03911369658719472,stand
10/07/2020, 16:07:28,-8.946764,-1.8807586,2.7876384,0.0024422223,-0.008547778,0.026864445,9.557864144306464,0.028297126340479584,stand
10/07/2020, 16:07:28,-8.946764,-1.8783658,2.833102,0.0024422223,-0.008547778,0.026864445,9.570752881432297,0.028297126340479584,stand
10/07/2020, 16:07:29,-8.975478,-1.7587247,2.78046,0.028085556,-0.007326667,-0.02075889,9.559460136627603,0.03568487073601062,stand
10/07/2020, 16:07:29,-8.975478,-1.7587247,2.78046,0.024422223,-0.0036633336,-0.024422223,9.559460136627603,0.03473197289240695,stand
10/07/2020, 16:07:29,-8.99462,-1.7515461,2.7948167,0.024422223,-0.0036633336,-0.024422223,9.58029797147173,0.03473197289240695,stand
10/07/2020, 16:07:29,-8.99462,-1.7515461,2.7948167,0.026864445,0.0012211112,-0.026864445,9.58029797147173,0.038011681168615086,stand
10/07/2020, 16:07:29,-8.992228,-1.7778672,2.8019953,0.026864445,0.0012211112,-0.026864445,9.584995863169897,0.038011681168615086,stand
10/07/2020, 16:07:29,-8.992228,-1.7778672,2.8019953,0.028085556,-0.0048844446,-0.02198,9.584995863169897,0.03599689816684229,stand
10/07/2020, 16:07:29,-8.989835,-1.7922242,2.7708886,0.028085556,-0.0048844446,-0.02198,9.576378250236985,0.03599689816684229,stand
10/07/2020, 16:07:29,-8.989835,-1.7922242,2.7708886,0.03297,-0.008547778,-0.018316668,9.576378250236985,0.03867280344128146,stand
10/07/2020, 16:07:29,-9.030513,-1.7922242,2.78046,0.03297,-0.008547778,-0.018316668,9.61733779313015,0.03867280344128146,stand
10/07/2020, 16:07:29,-9.030513,-1.7922242,2.78046,0.03052778,-0.009768889,-0.018316668,9.61733779313015,0.0369171619801482,stand
10/07/2020, 16:07:29,-9.035298,-1.7682959,2.7589245,0.03052778,-0.009768889,-0.018316668,9.611199242108176,0.0369171619801482,stand
10/07/2020, 16:07:29,-9.035298,-1.7682959,2.7589245,0.028085556,-0.008547778,-0.023201112,9.611199242108176,0.03741863902294129,stand
10/07/2020, 16:07:29,-9.032906,-1.7587247,2.7445676,0.028085556,-0.008547778,-0.023201112,9.603080090047696,0.03741863902294129,stand
10/07/2020, 16:07:29,-9.032906,-1.7587247,2.7445676,0.02075889,-0.009768889,-0.02075889,9.603080090047696,0.03094017120209219,stand
10/07/2020, 16:07:29,-9.056833,-1.7587247,2.7756743,0.02075889,-0.009768889,-0.02075889,9.634506184671329,0.03094017120209219,stand
10/07/2020, 16:07:29,-9.056833,-1.7587247,2.7756743,0.014653334,-0.0048844446,-0.02075889,9.634506184671329,0.02587488176598935,stand
10/07/2020, 16:07:29,-9.059227,-1.7324036,2.737389,0.014653334,-0.0048844446,-0.02075889,9.621024634987139,0.02587488176598935,stand
10/07/2020, 16:07:29,-9.059227,-1.7324036,2.737389,0.007326667,-0.0061055557,-0.018316668,9.621024634987139,0.020650863704886266,stand
10/07/2020, 16:07:29,-9.049655,-1.7443677,2.751746,0.007326667,-0.0061055557,-0.018316668,9.618273200462392,0.020650863704886266,stand
10/07/2020, 16:07:29,-9.049655,-1.7443677,2.751746,0.007326667,-0.009768889,-0.012211111,9.618273200462392,0.017269119580458948,stand
10/07/2020, 16:07:30,-9.073584,-1.7347964,2.7326035,-0.0036633336,-0.013432222,-0.0012211112,9.633616150044144,0.013976255743960088,stand
10/07/2020, 16:07:30,-9.073584,-1.7347964,2.7326035,-0.0048844446,-0.014653334,0.0012211112,9.633616150044144,0.015494164088479381,stand
10/07/2020, 16:07:30,-9.052048,-1.7802601,2.7493532,-0.0048844446,-0.014653334,0.0012211112,9.626413502783992,0.015494164088479381,stand
10/07/2020, 16:07:30,-9.052048,-1.7802601,2.7493532,-0.0012211112,-0.013432222,0.0024422223,9.626413502783992,0.013706938441303143,stand
10/07/2020, 16:07:30,-9.06162,-1.7754744,2.754139,-0.0012211112,-0.013432222,0.0024422223,9.635898683302216,0.013706938441303143,stand
10/07/2020, 16:07:30,-9.06162,-1.7754744,2.754139,0.0024422223,-0.015874445,0.0036633336,9.635898683302216,0.01647369056700755,stand
10/07/2020, 16:07:30,-9.066405,-1.8065811,2.792424,0.0024422223,-0.015874445,0.0036633336,9.657177227495765,0.01647369056700755,stand
10/07/2020, 16:07:30,-9.066405,-1.8065811,2.792424,0.0012211112,-0.014653334,0.007326667,9.657177227495765,0.01642837099496898,stand
10/07/2020, 16:07:30,-9.016156,-1.8113668,2.8187451,0.0012211112,-0.014653334,0.007326667,9.618598981973356,0.01642837099496898,stand
10/07/2020, 16:07:30,-9.016156,-1.8113668,2.8187451,0.01099,-0.009768889,0.0061055557,9.618598981973356,0.01592134150674857,stand
10/07/2020, 16:07:30,-9.020942,-1.7922242,2.821138,0.01099,-0.009768889,0.0061055557,9.62020147007053,0.01592134150674857,stand
10/07/2020, 16:07:30,-9.020942,-1.7922242,2.821138,0.019537779,-0.012211111,0.007326667,9.62020147007053,0.02417676745779986,stand
10/07/2020, 16:07:30,-9.020942,-1.7826529,2.8115666,0.019537779,-0.012211111,0.007326667,9.61561998376314,0.02417676745779986,stand
10/07/2020, 16:07:30,-9.020942,-1.7826529,2.8115666,0.02075889,-0.009768889,0.007326667,9.61561998376314,0.024084076651619556,stand
10/07/2020, 16:07:30,-9.008977,-1.8113668,2.8187451,0.02075889,-0.009768889,0.007326667,9.611869706469509,0.024084076651619556,stand
10/07/2020, 16:07:30,-9.008977,-1.8113668,2.8187451,0.025643334,-0.0036633336,0.0012211112,9.611869706469509,0.02593244480422172,stand
10/07/2020, 16:07:30,-8.992228,-1.8113668,2.8115666,0.025643334,-0.0036633336,0.0012211112,9.59406653912925,0.02593244480422172,stand
10/07/2020, 16:07:30,-8.992228,-1.8113668,2.8115666,0.03297,-0.0036633336,0.0,9.59406653912925,0.033172894310050806,stand
10/07/2020, 16:07:30,-8.965906,-1.8568304,2.8259234,0.03297,-0.0036633336,0.0,9.582334540889685,0.033172894310050806,stand
10/07/2020, 16:07:30,-8.965906,-1.8568304,2.8259234,0.03297,-0.007326667,-0.0012211112,9.582334540889685,0.03379633217576763,stand
10/07/2020, 16:07:31,-9.083155,-1.7443677,2.7445676,0.0,-0.015874445,-0.0012211112,9.647754616442867,0.01592134197996689,stand
