DATE,TIME,ax,ay,az,gx,gy,gz,ma,mg,label
10/07/2020, 16:11:39,-1.1964114,0.33020952,9.659825,-0.024422223,-0.18438779,-0.0048844446,9.739233224865718,0.18606224547735742,stand
10/07/2020, 16:11:39,-1.1964114,0.33020952,9.659825,0.24544334,-0.14287001,-0.0024422223,9.739233224865718,0.28400746306548563,stand
10/07/2020, 16:11:39,-1.0169497,0.1363909,10.01157,0.24544334,-0.14287001,-0.0024422223,10.06401125171514,0.28400746306548563,stand
10/07/2020, 16:11:39,-1.0169497,0.1363909,10.01157,0.22346334,-0.068382226,-0.0012211112,10.06401125171514,0.23369528230570769,stand
10/07/2020, 16:11:39,-0.7968099,0.3804588,9.987641,0.22346334,-0.068382226,-0.0012211112,10.02659634984482,0.23369528230570769,stand
10/07/2020, 16:11:39,-0.7968099,0.3804588,9.987641,-0.028085556,-0.01099,-0.0048844446,10.02659634984482,0.03055219068871552,stand
10/07/2020, 16:11:39,-0.85902333,0.5479564,10.095319,-0.028085556,-0.01099,-0.0048844446,10.14660725895806,0.03055219068871552,stand
10/07/2020, 16:11:39,-0.85902333,0.5479564,10.095319,-0.14897557,0.06349778,-0.03174889,10.14660725895806,0.16502629982323927,stand
10/07/2020, 16:11:39,-0.8446664,0.4546363,9.937392,-0.14897557,0.06349778,-0.03174889,9.983582521425573,0.16502629982323927,stand
10/07/2020, 16:11:39,-0.8446664,0.4546363,9.937392,-0.03174889,0.07937223,-0.0024422223,9.983582521425573,0.0855213831224612,stand
10/07/2020, 16:11:39,-1.0600204,0.2656033,10.100104,-0.03174889,0.07937223,-0.0024422223,10.159049954563521,0.0855213831224612,stand
10/07/2020, 16:11:39,-1.0600204,0.2656033,10.100104,0.09524667,0.04396,0.0,10.159049954563521,0.10490190829135954,stand
10/07/2020, 16:11:39,-1.0887343,0.2536392,9.722038,0.09524667,0.04396,0.0,9.786097447550224,0.10490190829135954,stand
10/07/2020, 16:11:39,-1.0887343,0.2536392,9.722038,0.06349778,0.009768889,-0.0048844446,9.786097447550224,0.06443025131848919,stand
10/07/2020, 16:11:39,-1.1844472,0.35653058,9.600004,0.06349778,0.009768889,-0.0048844446,9.679365150442054,0.06443025131848919,stand
10/07/2020, 16:11:39,-1.1844472,0.35653058,9.600004,-0.023201112,-0.05617111,-0.008547778,9.679365150442054,0.06137222412303164,stand
10/07/2020, 16:11:39,-1.1676974,0.30149564,9.504292,-0.023201112,-0.05617111,-0.008547778,9.580499698886971,0.06137222412303164,stand
10/07/2020, 16:11:39,-1.1676974,0.30149564,9.504292,-0.0061055557,-0.078151114,0.0,9.580499698886971,0.07838924973639044,stand
10/07/2020, 16:11:39,-1.1270195,0.2656033,9.803394,-0.0061055557,-0.078151114,0.0,9.871537786520376,0.07838924973639044,stand
10/07/2020, 16:11:39,-1.1270195,0.2656033,9.803394,0.09646778,-0.047623336,-0.009768889,9.871537786520376,0.10802520802404716,stand
10/07/2020, 16:11:40,-1.0289137,0.30388847,9.827323,0.037854444,0.013432222,-0.0048844446,9.88571131670205,0.04046283908664556,stand
10/07/2020, 16:11:40,-1.0313065,0.3062813,9.738789,0.037854444,0.013432222,-0.0048844446,9.798030660758602,0.04046283908664556,stand
10/07/2020, 16:11:40,-1.0313065,0.3062813,9.738789,0.0012211112,-0.01099,-0.008547778,9.798030660758602,0.013976256028755196,stand
10/07/2020, 16:11:40,-1.0576276,0.32063824,9.707682,0.0012211112,-0.01099,-0.008547778,9.77038730376011,0.013976256028755196,stand
10/07/2020, 16:11:40,-1.0576276,0.32063824,9.707682,0.0048844446,0.009768889,-0.009768889,9.77038730376011,0.014653333928436041,stand
10/07/2020, 16:11:40,-1.0959128,0.29192436,9.549755,0.0048844446,0.009768889,-0.009768889,9.616863684619085,0.014653333928436041,stand
10/07/2020, 16:11:40,-1.0959128,0.29192436,9.549755,0.05006556,-0.02198,0.0012211112,9.616863684619085,0.05469160520363221,stand
10/07/2020, 16:11:40,-1.0863415,0.29910284,9.868001,0.05006556,-0.02198,0.0012211112,9.93212181710552,0.05469160520363221,stand
10/07/2020, 16:11:40,-1.0863415,0.29910284,9.868001,0.057392225,-0.0012211112,-0.017095556,9.93212181710552,0.059896716240779135,stand
10/07/2020, 16:11:40,-1.0073783,0.3062813,9.803394,0.057392225,-0.0012211112,-0.017095556,9.859774819947058,0.059896716240779135,stand
10/07/2020, 16:11:40,-1.0073783,0.3062813,9.803394,0.012211111,-0.0061055557,0.0036633336,9.859774819947058,0.014135383415226287,stand
10/07/2020, 16:11:40,-0.9619147,0.3469593,9.899107,0.012211111,-0.0061055557,0.0036633336,9.951782738028983,0.014135383415226287,stand
10/07/2020, 16:11:40,-0.9619147,0.3469593,9.899107,-0.008547778,0.0024422223,-0.013432222,9.951782738028983,0.016107562255969817,stand
10/07/2020, 16:11:40,-0.98584294,0.33260235,9.829716,-0.008547778,0.0024422223,-0.013432222,9.884625533694217,0.016107562255969817,stand
10/07/2020, 16:11:40,-0.98584294,0.33260235,9.829716,0.012211111,-0.012211111,-0.0036633336,9.884625533694217,0.01765339896564627,stand
10/07/2020, 16:11:40,-1.0049855,0.2727818,9.822537,0.012211111,-0.012211111,-0.0036633336,9.877583058260278,0.01765339896564627,stand
10/07/2020, 16:11:40,-1.0049855,0.2727818,9.822537,0.048844445,-0.0036633336,-0.007326667,9.877583058260278,0.049526557735825066,stand
10/07/2020, 16:11:40,-1.0743774,0.33499518,9.812965,0.048844445,-0.0036633336,-0.007326667,9.877286996527,0.049526557735825066,stand
10/07/2020, 16:11:40,-1.0743774,0.33499518,9.812965,0.034191113,-0.0048844446,-0.007326667,9.877286996527,0.035306799026448336,stand
10/07/2020, 16:11:40,-1.0648061,0.29671,9.71486,0.034191113,-0.0048844446,-0.007326667,9.777543298875022,0.035306799026448336,stand
10/07/2020, 16:11:41,-1.0576276,0.32063824,9.803394,0.02075889,-0.0036633336,-0.007326667,9.865491628924255,0.022316620786767508,stand
10/07/2020, 16:11:41,-1.0576276,0.32063824,9.803394,0.02075889,0.0012211112,-0.007326667,9.865491628924255,0.022047736000621463,stand
10/07/2020, 16:11:41,-1.0648061,0.32063824,9.769895,0.02075889,0.0012211112,-0.007326667,9.832978257500873,0.022047736000621463,stand
10/07/2020, 16:11:41,-1.0648061,0.32063824,9.769895,0.02075889,-0.0048844446,-0.0024422223,9.832978257500873,0.021465175224205976,stand
10/07/2020, 16:11:41,-1.0336994,0.32303107,9.765109,0.02075889,-0.0048844446,-0.0024422223,9.824980330922111,0.021465175224205976,stand
10/07/2020, 16:11:41,-1.0336994,0.32303107,9.765109,0.025643334,-0.008547778,-0.0061055557,9.824980330922111,0.02771142167256083,stand
10/07/2020, 16:11:41,-1.0145568,0.3062813,9.80818,0.025643334,-0.008547778,-0.0061055557,9.865268660260272,0.02771142167256083,stand
10/07/2020, 16:11:41,-1.0145568,0.3062813,9.80818,0.024422223,-0.01099,-0.008547778,9.865268660260272,0.028112089642837464,stand
10/07/2020, 16:11:41,-0.9954142,0.3062813,9.84168,0.024422223,-0.01099,-0.008547778,9.896631471212427,0.028112089642837464,stand
10/07/2020, 16:11:41,-0.9954142,0.3062813,9.84168,0.014653334,0.0024422223,-0.008547778,9.896631471212427,0.017139112333941702,stand
10/07/2020, 16:11:41,-1.0552348,0.27756742,9.777073,0.014653334,0.0024422223,-0.008547778,9.837770009065641,0.017139112333941702,stand
10/07/2020, 16:11:41,-1.0552348,0.27756742,9.777073,0.013432222,-0.0024422223,-0.0061055557,9.837770009065641,0.014955495953500033,stand
10/07/2020, 16:11:41,-1.052842,0.30867413,9.77468,0.013432222,-0.0024422223,-0.0061055557,9.836062618284618,0.014955495953500033,stand
10/07/2020, 16:11:41,-1.052842,0.30867413,9.77468,0.026864445,-0.017095556,-0.0036633336,9.836062618284618,0.03205271378378368,stand
10/07/2020, 16:11:41,-1.0408778,0.30867413,9.815358,0.026864445,-0.017095556,-0.0036633336,9.875219602505117,0.03205271378378368,stand
10/07/2020, 16:11:41,-1.0408778,0.30867413,9.815358,0.039075557,-0.017095556,-0.0012211112,9.875219602505117,0.04266905588263612,stand
10/07/2020, 16:11:41,-1.026521,0.30867413,9.836894,0.039075557,-0.017095556,-0.0012211112,9.895125531077067,0.04266905588263612,stand
10/07/2020, 16:11:41,-1.026521,0.30867413,9.836894,0.026864445,-0.0036633336,-0.0061055557,9.895125531077067,0.027792017193812676,stand
10/07/2020, 16:11:41,-1.0432707,0.31345975,9.834501,0.026864445,-0.0036633336,-0.0061055557,9.894649359432336,0.027792017193812676,stand
10/07/2020, 16:11:41,-1.0432707,0.31345975,9.834501,0.013432222,0.0012211112,-0.008547778,9.894649359432336,0.015968100213537086,stand
10/07/2020, 16:11:42,-1.0289137,0.32542387,9.80818,0.024422223,-0.01099,-0.0024422223,9.867368253215195,0.026892183271185702,stand
10/07/2020, 16:11:42,-1.0289137,0.32542387,9.80818,0.02198,-0.0048844446,-0.008547778,9.867368253215195,0.024084076509959768,stand
10/07/2020, 16:11:42,-1.0576276,0.30149564,9.79143,0.02198,-0.0048844446,-0.008547778,9.852998852571409,0.024084076509959768,stand
10/07/2020, 16:11:42,-1.0576276,0.30149564,9.79143,0.018316668,-0.007326667,-0.0061055557,9.852998852571409,0.020650863704886266,stand
10/07/2020, 16:11:42,-1.0456635,0.31106696,9.829716,0.018316668,-0.007326667,-0.0061055557,9.890070073763091,0.020650863704886266,stand
10/07/2020, 16:11:42,-1.0456635,0.31106696,9.829716,0.02198,-0.0048844446,-0.0061055557,9.890070073763091,0.02332929571853399,stand
10/07/2020, 16:11:42,-1.0193424,0.27517462,9.820144,0.02198,-0.0048844446,-0.0061055557,9.876740470734191,0.02332929571853399,stand
10/07/2020, 16:11:42,-1.0193424,0.27517462,9.820144,0.029306669,-0.012211111,-0.0048844446,9.876740470734191,0.03212242014423477,stand
10/07/2020, 16:11:42,-1.0289137,0.32063824,9.812965,0.029306669,-0.012211111,-0.0048844446,9.871968504959389,0.03212242014423477,stand
10/07/2020, 16:11:42,-1.0289137,0.32063824,9.812965,0.03052778,-0.0061055557,-0.0024422223,9.871968504959389,0.031227993877544623,stand
10/07/2020, 16:11:42,-1.0193424,0.3397808,9.77468,0.03052778,-0.0061055557,-0.0024422223,9.833558957187494,0.031227993877544623,stand
10/07/2020, 16:11:42,-1.0193424,0.3397808,9.77468,0.023201112,-0.009768889,-0.0036633336,9.833558957187494,0.02543900145908833,stand
10/07/2020, 16:11:42,-1.0001999,0.33260235,9.757931,0.023201112,-0.009768889,-0.0036633336,9.814694942982001,0.02543900145908833,stand
10/07/2020, 16:11:42,-1.0001999,0.33260235,9.757931,0.023201112,-0.008547778,-0.008547778,9.814694942982001,0.026161433638712678,stand
10/07/2020, 16:11:42,-1.052842,0.31345975,9.812965,0.023201112,-0.008547778,-0.008547778,9.874260637842692,0.026161433638712678,stand
10/07/2020, 16:11:42,-1.052842,0.31345975,9.812965,0.023201112,-0.008547778,-0.009768889,9.874260637842692,0.026585471503144043,stand
10/07/2020, 16:11:42,-1.0241281,0.28953153,9.772287,0.023201112,-0.008547778,-0.009768889,9.830069544372964,0.026585471503144043,stand
10/07/2020, 16:11:42,-1.0241281,0.28953153,9.772287,0.023201112,-0.0036633336,-0.007326667,9.830069544372964,0.024604707874246897,stand
10/07/2020, 16:11:42,-1.038485,0.29671,9.798609,0.023201112,-0.0036633336,-0.007326667,9.857952224157835,0.024604707874246897,stand
10/07/2020, 16:11:42,-1.038485,0.29671,9.798609,0.024422223,-0.012211111,-0.0036633336,9.857952224157835,0.027549523008930404,stand
10/07/2020, 16:11:43,-1.0313065,0.30149564,9.796216,0.015874445,-0.0024422223,0.0,9.85496528987295,0.01606121003671381,stand
10/07/2020, 16:11:43,-1.0863415,0.28713873,9.757931,0.015874445,-0.0024422223,0.0,9.822413101526957,0.01606121003671381,stand
10/07/2020, 16:11:43,-1.0863415,0.28713873,9.757931,0.008547778,0.009768889,-0.007326667,9.822413101526957,0.014905561477319529,stand
10/07/2020, 16:11:43,-1.0552348,0.34217364,9.789038,0.008547778,0.009768889,-0.007326667,9.851693379228962,0.014905561477319529,stand
10/07/2020, 16:11:43,-1.0552348,0.34217364,9.789038,0.019537779,-0.009768889,-0.0024422223,9.851693379228962,0.02198000089265406,stand
10/07/2020, 16:11:43,-1.0169497,0.26081768,9.772287,0.019537779,-0.009768889,-0.0024422223,9.82852038083247,0.02198000089265406,stand
10/07/2020, 16:11:43,-1.0169497,0.26081768,9.772287,0.037854444,-0.01099,0.0012211112,9.82852038083247,0.03943640663272483,stand
10/07/2020, 16:11:43,-1.0432707,0.35413775,9.844072,0.037854444,-0.01099,0.0012211112,9.905533180308284,0.03943640663272483,stand
10/07/2020, 16:11:43,-1.0432707,0.35413775,9.844072,0.026864445,-0.013432222,-0.009768889,9.905533180308284,0.03158408132862682,stand
10/07/2020, 16:11:43,-1.038485,0.29671,9.79143,0.026864445,-0.013432222,-0.009768889,9.850817161338062,0.03158408132862682,stand
10/07/2020, 16:11:43,-1.038485,0.29671,9.79143,0.008547778,-0.009768889,-0.007326667,9.850817161338062,0.014905561477319529,stand
10/07/2020, 16:11:43,-1.0217353,0.3469593,9.84168,0.008547778,-0.009768889,-0.007326667,9.900655564886806,0.014905561477319529,stand
10/07/2020, 16:11:43,-1.0217353,0.3469593,9.84168,0.012211111,-0.007326667,-0.007326667,9.900655564886806,0.016014722770804356,stand
10/07/2020, 16:11:43,-1.0001999,0.27517462,9.762716,0.012211111,-0.007326667,-0.007326667,9.817675405223687,0.016014722770804356,stand
10/07/2020, 16:11:43,-1.0001999,0.27517462,9.762716,0.03174889,-0.014653334,-0.0036633336,9.817675405223687,0.03515867309533117,stand
10/07/2020, 16:11:43,-1.012164,0.3182454,9.80818,0.03174889,-0.014653334,-0.0036633336,9.86540157178653,0.03515867309533117,stand
10/07/2020, 16:11:43,-1.012164,0.3182454,9.80818,0.036633335,-0.0036633336,-0.01099,9.86540157178653,0.038421365898134795,stand
10/07/2020, 16:11:43,-0.9906286,0.32303107,9.767502,0.036633335,-0.0036633336,-0.01099,9.822921465319196,0.038421365898134795,stand
10/07/2020, 16:11:43,-0.9906286,0.32303107,9.767502,0.019537779,-0.0024422223,-0.0036633336,9.822921465319196,0.020027712161412012,stand
10/07/2020, 16:11:43,-0.971486,0.34456646,9.836894,0.019537779,-0.0024422223,-0.0036633336,9.890753020143583,0.020027712161412012,stand
10/07/2020, 16:11:44,-1.0217353,0.31585258,9.777073,0.026864445,-0.013432222,-0.0048844446,9.835388173202874,0.030429932549501788,stand
10/07/2020, 16:11:44,-1.0049855,0.32063824,9.757931,0.026864445,-0.013432222,-0.0048844446,9.814785645650241,0.030429932549501788,stand
10/07/2020, 16:11:44,-1.0049855,0.32063824,9.757931,0.04151778,-0.019537779,-0.0048844446,9.814785645650241,0.04614443176860892,stand
10/07/2020, 16:11:44,-1.0313065,0.33260235,9.789038,0.04151778,-0.019537779,-0.0048844446,9.848831230742979,0.04614443176860892,stand
10/07/2020, 16:11:44,-1.0313065,0.33260235,9.789038,0.026864445,0.0012211112,-0.0036633336,9.848831230742979,0.027140551245685807,stand
10/07/2020, 16:11:44,-1.0815558,0.33499518,9.786645,0.026864445,0.0012211112,-0.0036633336,9.851923868403656,0.027140551245685807,stand
10/07/2020, 16:11:44,-1.0815558,0.33499518,9.786645,0.0048844446,0.0048844446,-0.01099,9.851923868403656,0.01298058959326769,stand
10/07/2020, 16:11:44,-1.0719845,0.30867413,9.755538,0.0048844446,0.0048844446,-0.01099,9.819111566689681,0.01298058959326769,stand
10/07/2020, 16:11:44,-1.0719845,0.30867413,9.755538,0.008547778,-0.007326667,-0.008547778,9.819111566689681,0.014135383897950387,stand
10/07/2020, 16:11:44,-1.0289137,0.32303107,9.789038,0.008547778,-0.007326667,-0.008547778,9.848262370952703,0.014135383897950387,stand
10/07/2020, 16:11:44,-1.0289137,0.32303107,9.789038,0.035412222,-0.018316668,-0.008547778,9.848262370952703,0.04077487338476833,stand
10/07/2020, 16:11:44,-1.0169497,0.29671,9.805787,0.035412222,-0.018316668,-0.008547778,9.8628435968605,0.04077487338476833,stand
10/07/2020, 16:11:44,-1.0169497,0.29671,9.805787,0.04396,-0.009768889,-0.0024422223,9.8628435968605,0.04509852950779333,stand
10/07/2020, 16:11:44,-1.0241281,0.32063824,9.858429,0.04396,-0.009768889,-0.0024422223,9.916666207245397,0.04509852950779333,stand
10/07/2020, 16:11:44,-1.0241281,0.32063824,9.858429,0.01099,0.0024422223,-0.009768889,9.916666207245397,0.014905561210280313,stand
10/07/2020, 16:11:44,-1.0193424,0.31585258,9.796216,0.01099,0.0024422223,-0.009768889,9.8541701813609,0.014905561210280313,stand
10/07/2020, 16:11:44,-1.0193424,0.31585258,9.796216,0.0012211112,-0.0036633336,-0.013432222,9.8541701813609,0.013976255743960088,stand
10/07/2020, 16:11:44,-1.0408778,0.31345975,9.812965,0.0012211112,-0.0036633336,-0.013432222,9.872992122811821,0.013976255743960088,stand
10/07/2020, 16:11:44,-1.0408778,0.31345975,9.812965,0.02075889,-0.013432222,-0.01099,9.872992122811821,0.027058015529989696,stand
10/07/2020, 16:11:44,-1.0480564,0.31106696,9.786645,0.02075889,-0.013432222,-0.01099,9.847517651093726,0.027058015529989696,stand
10/07/2020, 16:11:45,-1.0241281,0.30867413,9.765109,0.01099,0.0036633336,-0.007326667,9.823516327476602,0.013706938845776092,stand
10/07/2020, 16:11:45,-1.0241281,0.30867413,9.765109,-0.0012211112,-0.007326667,-0.0048844446,9.823516327476602,0.008889823628835239,stand
10/07/2020, 16:11:45,-1.0289137,0.29910284,9.765109,-0.0012211112,-0.007326667,-0.0048844446,9.823720322971907,0.008889823628835239,stand
10/07/2020, 16:11:45,-1.0289137,0.29910284,9.765109,0.029306669,-0.019537779,-0.0061055557,9.823720322971907,0.035747495537566516,stand
10/07/2020, 16:11:45,-0.9906286,0.29671,9.820144,0.029306669,-0.019537779,-0.0061055557,9.87444196588776,0.035747495537566516,stand
10/07/2020, 16:11:45,-0.9906286,0.29671,9.820144,0.05250778,-0.015874445,-0.0061055557,9.87444196588776,0.05519368478777896,stand
10/07/2020, 16:11:45,-1.0025927,0.29910284,9.844072,0.05250778,-0.015874445,-0.0061055557,9.899515890748921,0.05519368478777896,stand
10/07/2020, 16:11:45,-1.0025927,0.29910284,9.844072,0.028085556,-0.0048844446,-0.0061055557,9.899515890748921,0.029153628571353705,stand
10/07/2020, 16:11:45,-1.0456635,0.33260235,9.829716,0.028085556,-0.0048844446,-0.0061055557,9.890770836377682,0.029153628571353705,stand
10/07/2020, 16:11:45,-1.0456635,0.33260235,9.829716,0.0,-0.0036633336,-0.009768889,9.890770836377682,0.010433178371371648,stand
10/07/2020, 16:11:45,-1.052842,0.32542387,9.741181,0.0,-0.0036633336,-0.009768889,9.80331533550518,0.010433178371371648,stand
10/07/2020, 16:11:45,-1.052842,0.32542387,9.741181,0.012211111,-0.012211111,-0.0048844446,9.80331533550518,0.01794659526079803,stand
10/07/2020, 16:11:45,-1.0336994,0.31585258,9.755538,0.012211111,-0.012211111,-0.0048844446,9.815234011500799,0.01794659526079803,stand
10/07/2020, 16:11:45,-1.0336994,0.31585258,9.755538,0.045181114,-0.01099,-0.007326667,9.815234011500799,0.04707221305848078,stand
10/07/2020, 16:11:45,-1.026521,0.33020952,9.786645,0.045181114,-0.01099,-0.007326667,9.845872369765583,0.04707221305848078,stand
10/07/2020, 16:11:45,-1.026521,0.33020952,9.786645,0.04396,-0.0024422223,-0.007326667,9.845872369765583,0.04463324117859731,stand
10/07/2020, 16:11:45,-1.0671989,0.3062813,9.805787,0.04396,-0.0024422223,-0.007326667,9.868443750301624,0.04463324117859731,stand
10/07/2020, 16:11:45,-1.0671989,0.3062813,9.805787,0.014653334,0.0024422223,-0.007326667,9.868443750301624,0.016563958190864838,stand
10/07/2020, 16:11:45,-1.038485,0.30388847,9.815358,0.014653334,0.0024422223,-0.007326667,9.874819251436636,0.016563958190864838,stand
10/07/2020, 16:11:45,-1.038485,0.30388847,9.815358,0.0061055557,-0.0036633336,-0.0036633336,9.874819251436636,0.008007361385402178,stand
10/07/2020, 16:11:46,-1.052842,0.30149564,9.798609,0.03174889,-0.015874445,-0.008547778,9.859620173447832,0.03651102029174721,stand
10/07/2020, 16:11:46,-1.0073783,0.3062813,9.80818,0.03174889,-0.015874445,-0.008547778,9.864533006078393,0.03651102029174721,stand
10/07/2020, 16:11:46,-1.0073783,0.3062813,9.80818,0.039075557,-0.012211111,-0.0012211112,9.864533006078393,0.040957313381817094,stand
10/07/2020, 16:11:46,-1.0217353,0.32542387,9.815358,0.039075557,-0.012211111,-0.0012211112,9.873758128727943,0.040957313381817094,stand
10/07/2020, 16:11:46,-1.0217353,0.32542387,9.815358,0.019537779,0.0,-0.009768889,9.873758128727943,0.021843900507324685,stand
10/07/2020, 16:11:46,-1.0648061,0.32063824,9.731609,0.019537779,0.0,-0.009768889,9.794939578816349,0.021843900507324685,stand
10/07/2020, 16:11:46,-1.0648061,0.32063824,9.731609,0.01099,-0.014653334,-0.0061055557,9.794939578816349,0.01930746297070049,stand
10/07/2020, 16:11:46,-1.052842,0.31345975,9.80818,0.01099,-0.014653334,-0.0061055557,9.869504821081911,0.01930746297070049,stand
10/07/2020, 16:11:46,-1.052842,0.31345975,9.80818,0.024422223,-0.008547778,-0.012211111,9.869504821081911,0.028611548679310803,stand
10/07/2020, 16:11:46,-1.0313065,0.29671,9.79143,0.024422223,-0.008547778,-0.012211111,9.850062977174064,0.028611548679310803,stand
10/07/2020, 16:11:46,-1.0313065,0.29671,9.79143,0.03052778,-0.008547778,0.0024422223,9.850062977174064,0.03179582211912049,stand
10/07/2020, 16:11:46,-1.0480564,0.31585258,9.798609,0.03052778,-0.008547778,0.0024422223,9.859559778091707,0.03179582211912049,stand
10/07/2020, 16:11:46,-1.0480564,0.31585258,9.798609,0.025643334,0.0012211112,-0.008547778,9.859559778091707,0.02705801532509345,stand
10/07/2020, 16:11:46,-1.0671989,0.3469593,9.741181,0.025643334,0.0012211112,-0.008547778,9.805605985242615,0.02705801532509345,stand
10/07/2020, 16:11:46,-1.0671989,0.3469593,9.741181,0.013432222,-0.008547778,0.0012211112,9.805605985242615,0.015968100213537086,stand
10/07/2020, 16:11:46,-1.0408778,0.33260235,9.786645,0.013432222,-0.008547778,0.0012211112,9.847460081379651,0.015968100213537086,stand
10/07/2020, 16:11:46,-1.0408778,0.33260235,9.786645,0.015874445,-0.02198,-0.007326667,9.847460081379651,0.028085556772092117,stand
10/07/2020, 16:11:46,-1.012164,0.29671,9.860822,0.015874445,-0.02198,-0.007326667,9.917072040683557,0.028085556772092117,stand
10/07/2020, 16:11:46,-1.012164,0.29671,9.860822,0.026864445,-0.012211111,-0.008547778,9.917072040683557,0.030722534893055157,stand
10/07/2020, 16:11:46,-1.0241281,0.27996024,9.844072,0.026864445,-0.012211111,-0.008547778,9.901160352943469,0.030722534893055157,stand
10/07/2020, 16:11:47,-1.0480564,0.3278167,9.80818,0.0061055557,-0.012211111,-0.007326667,9.869461890223711,0.015494163528815812,stand
10/07/2020, 16:11:47,-1.0336994,0.31106696,9.805787,0.0061055557,-0.012211111,-0.007326667,9.865026987893158,0.015494163528815812,stand
10/07/2020, 16:11:47,-1.0336994,0.31106696,9.805787,0.017095556,-0.008547778,-0.0048844446,9.865026987893158,0.019727654796858403,stand
10/07/2020, 16:11:47,-1.0576276,0.27996024,9.798609,0.017095556,-0.008547778,-0.0048844446,9.859497340804712,0.019727654796858403,stand
10/07/2020, 16:11:47,-1.0576276,0.27996024,9.798609,0.037854444,-0.009768889,-0.0024422223,9.859497340804712,0.03917083859359311,stand
10/07/2020, 16:11:47,-1.0408778,0.3062813,9.77468,0.037854444,-0.009768889,-0.0024422223,9.834714366011083,0.03917083859359311,stand
10/07/2020, 16:11:47,-1.0408778,0.3062813,9.77468,0.035412222,-0.008547778,-0.0048844446,9.834714366011083,0.03675524166318839,stand
10/07/2020, 16:11:47,-1.0600204,0.3278167,9.784252,0.035412222,-0.008547778,-0.0048844446,9.846963877033579,0.03675524166318839,stand
10/07/2020, 16:11:47,-1.0600204,0.3278167,9.784252,0.013432222,-0.01099,-0.008547778,9.846963877033579,0.019346038850737098,stand
10/07/2020, 16:11:47,-1.0360922,0.33738798,9.767502,0.013432222,-0.01099,-0.008547778,9.828092878910075,0.019346038850737098,stand
10/07/2020, 16:11:47,-1.0360922,0.33738798,9.767502,0.007326667,-0.009768889,-0.0061055557,9.828092878910075,0.01365243788996545,stand
10/07/2020, 16:11:47,-1.0313065,0.33260235,9.798609,0.007326667,-0.009768889,-0.0061055557,9.858344255190197,0.01365243788996545,stand
10/07/2020, 16:11:47,-1.0313065,0.33260235,9.798609,0.026864445,-0.0061055557,-0.0061055557,9.858344255190197,0.028217973295319734,stand
10/07/2020, 16:11:47,-1.0001999,0.29192436,9.805787,0.026864445,-0.0061055557,-0.0061055557,9.860987784389861,0.028217973295319734,stand
10/07/2020, 16:11:47,-1.0001999,0.29192436,9.805787,0.04151778,-0.0061055557,-0.0048844446,9.860987784389861,0.04224762244194293,stand
10/07/2020, 16:11:47,-1.0217353,0.29910284,9.836894,0.04151778,-0.0061055557,-0.0048844446,9.894336249486601,0.04224762244194293,stand
10/07/2020, 16:11:47,-1.0217353,0.29910284,9.836894,0.026864445,-0.0036633336,-0.0061055557,9.894336249486601,0.027792017193812676,stand
10/07/2020, 16:11:47,-1.0241281,0.31585258,9.77468,0.026864445,-0.0036633336,-0.0061055557,9.833258512311689,0.027792017193812676,stand
10/07/2020, 16:11:47,-1.0241281,0.31585258,9.77468,0.0061055557,-0.0036633336,-0.0048844446,9.833258512311689,0.008634559790229474,stand
10/07/2020, 16:11:47,-1.0408778,0.33260235,9.79143,0.0061055557,-0.0036633336,-0.0048844446,9.852216079274493,0.008634559790229474,stand
10/07/2020, 16:11:48,-1.0767702,0.35653058,9.798609,0.0012211112,0.0012211112,-0.008547778,9.864039847260523,0.008720478071565224,stand
10/07/2020, 16:11:48,-1.0648061,0.33020952,9.741181,0.0012211112,0.0012211112,-0.008547778,9.804767458800733,0.008720478071565224,stand
10/07/2020, 16:11:48,-1.0648061,0.33020952,9.741181,0.0061055557,-0.012211111,-0.0048844446,9.804767458800733,0.014499891403388927,stand
10/07/2020, 16:11:48,-1.0648061,0.33260235,9.743574,0.0061055557,-0.012211111,-0.0048844446,9.807225572633708,0.014499891403388927,stand
10/07/2020, 16:11:48,-1.0648061,0.33260235,9.743574,0.039075557,-0.019537779,-0.0048844446,9.807225572633708,0.04396000178530812,stand
10/07/2020, 16:11:48,-1.026521,0.31106696,9.82493,0.039075557,-0.019537779,-0.0048844446,9.88330719982893,0.04396000178530812,stand
10/07/2020, 16:11:48,-1.026521,0.31106696,9.82493,0.047623336,-0.008547778,-0.0048844446,9.88330719982893,0.04863028350851064,stand
10/07/2020, 16:11:48,-0.9810573,0.29910284,9.88475,0.047623336,-0.008547778,-0.0048844446,9.93781795525616,0.04863028350851064,stand
10/07/2020, 16:11:48,-0.9810573,0.29910284,9.88475,0.015874445,0.0012211112,-0.007326667,9.93781795525616,0.017526242685166865,stand
10/07/2020, 16:11:48,-0.9906286,0.30388847,9.801002,0.015874445,0.0012211112,-0.007326667,9.85562400786834,0.017526242685166865,stand
10/07/2020, 16:11:48,-0.9906286,0.30388847,9.801002,-0.0024422223,-0.0024422223,-0.008547778,9.85562400786834,0.009219187198306071,stand
10/07/2020, 16:11:48,-1.0145568,0.32542387,9.757931,-0.0024422223,-0.0024422223,-0.008547778,9.81592780916875,0.009219187198306071,stand
10/07/2020, 16:11:48,-1.0145568,0.32542387,9.757931,0.026864445,-0.015874445,-0.007326667,9.81592780916875,0.032052713872485095,stand
10/07/2020, 16:11:48,-1.0217353,0.2847459,9.765109,0.026864445,-0.015874445,-0.007326667,9.82254438880265,0.032052713872485095,stand
10/07/2020, 16:11:48,-1.0217353,0.2847459,9.765109,0.05250778,-0.012211111,-0.0061055557,9.82254438880265,0.05425362719182508,stand
10/07/2020, 16:11:48,-1.0097711,0.30867413,9.80818,0.05250778,-0.012211111,-0.0061055557,9.864852228150292,0.05425362719182508,stand
10/07/2020, 16:11:48,-1.0097711,0.30867413,9.80818,0.029306669,0.0024422223,-0.008547778,9.864852228150292,0.030625313030092926,stand
10/07/2020, 16:11:48,-1.0504491,0.3397808,9.786645,0.029306669,0.0024422223,-0.008547778,9.848721413140536,0.030625313030092926,stand
10/07/2020, 16:11:48,-1.0504491,0.3397808,9.786645,-0.0036633336,-0.0024422223,-0.01099,9.848721413140536,0.011839111882768507,stand
10/07/2020, 16:11:48,-1.0360922,0.33260235,9.772287,-0.0036633336,-0.0024422223,-0.01099,9.832685884885771,0.011839111882768507,stand
10/07/2020, 16:11:49,-0.9954142,0.31106696,9.827323,0.046402223,-0.014653334,-0.007326667,9.882504168142187,0.049209415748493794,stand
10/07/2020, 16:11:49,-0.9954142,0.31106696,9.827323,0.03297,-0.0048844446,-0.0048844446,9.882504168142187,0.03368585018652659,stand
10/07/2020, 16:11:49,-1.0217353,0.3493521,9.834501,0.03297,-0.0048844446,-0.0048844446,9.893604251691675,0.03368585018652659,stand
10/07/2020, 16:11:49,-1.0217353,0.3493521,9.834501,0.0036633336,-0.0012211112,-0.0061055557,9.893604251691675,0.007224191011396785,stand
10/07/2020, 16:11:49,-1.0432707,0.31345975,9.801002,0.0036633336,-0.0012211112,-0.0061055557,9.861353971167595,0.007224191011396785,stand
10/07/2020, 16:11:49,-1.0432707,0.31345975,9.801002,0.008547778,-0.008547778,-0.01099,9.861353971167595,0.016337353916028925,stand
10/07/2020, 16:11:49,-0.98584294,0.28713873,9.793823,0.008547778,-0.008547778,-0.01099,9.847502660993992,0.016337353916028925,stand
10/07/2020, 16:11:49,-0.98584294,0.28713873,9.793823,0.039075557,-0.017095556,-0.0024422223,9.847502660993992,0.04272144271107783,stand
10/07/2020, 16:11:49,-1.012164,0.29671,9.839287,0.039075557,-0.017095556,-0.0024422223,9.895659533558591,0.04272144271107783,stand
10/07/2020, 16:11:49,-1.012164,0.29671,9.839287,0.046402223,-0.013432222,-0.0036633336,9.895659533558591,0.048445959061415515,stand
10/07/2020, 16:11:49,-1.0408778,0.3062813,9.82493,0.046402223,-0.013432222,-0.0036633336,9.884659231697002,0.048445959061415515,stand
10/07/2020, 16:11:49,-1.0408778,0.3062813,9.82493,0.017095556,-0.0061055557,-0.007326667,9.884659231697002,0.019575901356434056,stand
10/07/2020, 16:11:49,-1.0217353,0.3182454,9.79143,0.017095556,-0.0061055557,-0.007326667,9.849737757951432,0.019575901356434056,stand
10/07/2020, 16:11:49,-1.0217353,0.3182454,9.79143,0.0,-0.009768889,-0.01099,9.849737757951432,0.014704125445814157,stand
10/07/2020, 16:11:49,-1.0241281,0.2943172,9.762716,0.0,-0.009768889,-0.01099,9.820697040083076,0.014704125445814157,stand
10/07/2020, 16:11:49,-1.0241281,0.2943172,9.762716,0.025643334,-0.013432222,-0.009768889,9.820697040083076,0.030552190837608063,stand
10/07/2020, 16:11:49,-1.0217353,0.27996024,9.77468,0.025643334,-0.013432222,-0.009768889,9.831922120146045,0.030552190837608063,stand
10/07/2020, 16:11:49,-1.0217353,0.27996024,9.77468,0.047623336,-0.01099,-0.0024422223,9.831922120146045,0.048935945059894334,stand
10/07/2020, 16:11:49,-1.0336994,0.29671,9.769895,0.047623336,-0.01099,-0.0024422223,9.828906946436252,0.048935945059894334,stand
10/07/2020, 16:11:49,-1.0336994,0.29671,9.769895,0.026864445,-0.0036633336,-0.007326667,9.828906946436252,0.0280855561039694,stand
10/07/2020, 16:11:50,-1.0360922,0.28953153,9.801002,0.02198,-0.007326667,-0.0024422223,9.859865457176522,0.023297315963203155,stand
10/07/2020, 16:11:50,-1.026521,0.28953153,9.79143,0.02198,-0.007326667,-0.0024422223,9.84934944638215,0.023297315963203155,stand
10/07/2020, 16:11:50,-1.026521,0.28953153,9.79143,0.024422223,-0.007326667,-0.0024422223,9.84934944638215,0.025614243421500652,stand
10/07/2020, 16:11:50,-1.0671989,0.2847459,9.772287,0.024422223,-0.007326667,-0.0024422223,9.8345103630084,0.025614243421500652,stand
10/07/2020, 16:11:50,-1.0671989,0.2847459,9.772287,0.03052778,-0.007326667,-0.0061055557,9.8345103630084,0.03198285797056135,stand
10/07/2020, 16:11:50,-1.0480564,0.3182454,9.779466,0.03052778,-0.007326667,-0.0061055557,9.84061233761618,0.03198285797056135,stand
10/07/2020, 16:11:50,-1.0480564,0.3182454,9.779466,0.023201112,-0.007326667,-0.0061055557,9.84061233761618,0.025084844962072726,stand
10/07/2020, 16:11:50,-1.0097711,0.32303107,9.822537,0.023201112,-0.007326667,-0.0061055557,9.879586437333476,0.025084844962072726,stand
10/07/2020, 16:11:50,-1.0097711,0.32303107,9.822537,0.013432222,-0.0024422223,-0.01099,9.879586437333476,0.017526241930840163,stand
10/07/2020, 16:11:50,-1.012164,0.31345975,9.820144,0.013432222,-0.0024422223,-0.01099,9.877143071520079,0.017526241930840163,stand
10/07/2020, 16:11:50,-1.012164,0.31345975,9.820144,0.017095556,-0.0048844446,-0.007326667,9.877143071520079,0.019230078084533517,stand
10/07/2020, 16:11:50,-1.0217353,0.32542387,9.796216,0.017095556,-0.0048844446,-0.007326667,9.854729416520232,0.019230078084533517,stand
10/07/2020, 16:11:50,-1.0217353,0.32542387,9.796216,0.03052778,-0.012211111,-0.007326667,9.854729416520232,0.03368585214463078,stand
10/07/2020, 16:11:50,-1.0289137,0.32542387,9.784252,0.03052778,-0.012211111,-0.007326667,9.843584440245563,0.03368585214463078,stand
10/07/2020, 16:11:50,-1.0289137,0.32542387,9.784252,0.03297,-0.015874445,-0.007326667,9.843584440245563,0.037318882272172824,stand
10/07/2020, 16:11:50,-1.0025927,0.3062813,9.8321085,0.03297,-0.015874445,-0.007326667,9.887838885742134,0.037318882272172824,stand
10/07/2020, 16:11:50,-1.0025927,0.3062813,9.8321085,0.02075889,-0.01099,-0.0061055557,9.887838885742134,0.024269104136117846,stand
10/07/2020, 16:11:50,-1.0001999,0.2847459,9.858429,0.02075889,-0.01099,-0.0061055557,9.913127738451196,0.024269104136117846,stand
10/07/2020, 16:11:50,-1.0001999,0.2847459,9.858429,0.013432222,-0.0012211112,-0.0048844446,9.913127738451196,0.014344807807537718,stand
10/07/2020, 16:11:50,-1.038485,0.2727818,9.781859,0.013432222,-0.0012211112,-0.0048844446,9.84061148425851,0.014344807807537718,stand
10/07/2020, 16:11:51,-1.0600204,0.31585258,9.762716,0.026864445,-0.0061055557,-0.0061055557,9.825173567198558,0.028217973295319734,stand
10/07/2020, 16:11:51,-1.0289137,0.3062813,9.79143,0.026864445,-0.0061055557,-0.0061055557,9.85010570626499,0.028217973295319734,stand
10/07/2020, 16:11:51,-1.0289137,0.3062813,9.79143,0.029306669,-0.0024422223,-0.0048844446,9.85010570626499,0.02981112350779171,stand
10/07/2020, 16:11:51,-1.0313065,0.29192436,9.793823,0.029306669,-0.0024422223,-0.0048844446,9.8522985458896,0.02981112350779171,stand
10/07/2020, 16:11:51,-1.0313065,0.29192436,9.793823,0.017095556,-0.0024422223,-0.0048844446,9.8522985458896,0.01794659579943007,stand
10/07/2020, 16:11:51,-1.0336994,0.29192436,9.777073,0.017095556,-0.0024422223,-0.0048844446,9.835898987128997,0.01794659579943007,stand
10/07/2020, 16:11:51,-1.0336994,0.29192436,9.777073,0.014653334,-0.012211111,-0.0048844446,9.835898987128997,0.019689826035976864,stand
10/07/2020, 16:11:51,-1.0097711,0.28235307,9.8321085,0.014653334,-0.012211111,-0.0048844446,9.887857121683018,0.019689826035976864,stand
10/07/2020, 16:11:51,-1.0097711,0.28235307,9.8321085,0.028085556,-0.012211111,-0.01099,9.887857121683018,0.03253751369425823,stand
10/07/2020, 16:11:51,-1.0001999,0.27038896,9.84168,0.028085556,-0.012211111,-0.01099,9.896068253444616,0.03253751369425823,stand
10/07/2020, 16:11:51,-1.0001999,0.27038896,9.84168,0.034191113,-0.013432222,-0.0036633336,9.896068253444616,0.03691716156427513,stand
10/07/2020, 16:11:51,-1.0073783,0.28713873,9.853643,0.034191113,-0.013432222,-0.0036633336,9.909164867248617,0.03691716156427513,stand
10/07/2020, 16:11:51,-1.0073783,0.28713873,9.853643,0.023201112,-0.007326667,-0.009768889,9.909164867248617,0.026218368263447096,stand
10/07/2020, 16:11:51,-1.0600204,0.2943172,9.772287,0.023201112,-0.007326667,-0.009768889,9.83401578051396,0.026218368263447096,stand
10/07/2020, 16:11:51,-1.0600204,0.2943172,9.772287,0.014653334,-0.008547778,-0.009768889,9.83401578051396,0.01957590150166982,stand
10/07/2020, 16:11:51,-1.0671989,0.29671,9.734002,0.014653334,-0.008547778,-0.009768889,9.796823332528268,0.01957590150166982,stand
10/07/2020, 16:11:51,-1.0671989,0.29671,9.734002,0.017095556,-0.009768889,-0.015874445,9.796823332528268,0.025292039603466043,stand
10/07/2020, 16:11:51,-1.0193424,0.3062813,9.803394,0.017095556,-0.009768889,-0.015874445,9.861004378607065,0.025292039603466043,stand
10/07/2020, 16:11:51,-1.0193424,0.3062813,9.803394,0.028085556,-0.0048844446,-0.0048844446,9.861004378607065,0.028922552586119896,stand
10/07/2020, 16:11:51,-1.0552348,0.2943172,9.810573,0.028085556,-0.0048844446,-0.0048844446,9.871548930256116,0.028922552586119896,stand
10/07/2020, 16:11:52,-1.0336994,0.30867413,9.772287,0.042738892,-0.008547778,-0.0024422223,9.831653704751536,0.04365365808170265,stand
10/07/2020, 16:11:52,-1.0336994,0.30867413,9.772287,0.036633335,-0.007326667,-0.007326667,9.831653704751536,0.03807047861014406,stand
10/07/2020, 16:11:52,-1.0169497,0.33020952,9.829716,0.036633335,-0.007326667,-0.007326667,9.887696204657898,0.03807047861014406,stand
10/07/2020, 16:11:52,-1.0169497,0.33020952,9.829716,0.008547778,-0.007326667,-0.0036633336,9.887696204657898,0.011839112218973567,stand
10/07/2020, 16:11:52,-1.0073783,0.32063824,9.822537,0.008547778,-0.007326667,-0.0036633336,9.879264214004891,0.011839112218973567,stand
10/07/2020, 16:11:52,-1.0073783,0.32063824,9.822537,0.0061055557,-0.009768889,-0.01099,9.879264214004891,0.01592134150674857,stand
10/07/2020, 16:11:52,-1.0336994,0.30867413,9.793823,0.0061055557,-0.009768889,-0.01099,9.853059821774083,0.01592134150674857,stand
10/07/2020, 16:11:52,-1.0336994,0.30867413,9.793823,0.03297,-0.018316668,-0.0048844446,9.853059821774083,0.03803128991519514,stand
10/07/2020, 16:11:52,-1.0360922,0.31585258,9.777073,0.03297,-0.018316668,-0.0048844446,9.836889978096583,0.03803128991519514,stand
10/07/2020, 16:11:52,-1.0360922,0.31585258,9.777073,0.04029667,-0.012211111,-0.007326667,9.836889978096583,0.042738892244441176,stand
10/07/2020, 16:11:52,-1.0456635,0.3062813,9.772287,0.04029667,-0.012211111,-0.007326667,9.832843981101146,0.042738892244441176,stand
10/07/2020, 16:11:52,-1.0456635,0.3062813,9.772287,0.018316668,-0.0024422223,-0.009768889,9.832843981101146,0.020902056287245,stand
10/07/2020, 16:11:52,-1.0480564,0.29671,9.772287,0.018316668,-0.0024422223,-0.009768889,9.832805265679019,0.020902056287245,stand
10/07/2020, 16:11:52,-1.0480564,0.29671,9.772287,0.007326667,0.0012211112,-0.0036633336,9.832805265679019,0.008281979095432419,stand
10/07/2020, 16:11:52,-1.0767702,0.3062813,9.734002,0.007326667,0.0012211112,-0.0036633336,9.798165104277084,0.008281979095432419,stand
10/07/2020, 16:11:52,-1.0767702,0.3062813,9.734002,0.02198,-0.0048844446,-0.0012211112,9.798165104277084,0.022549264753896663,stand
10/07/2020, 16:11:52,-1.052842,0.29910284,9.74836,0.02198,-0.0048844446,-0.0012211112,9.809610353414229,0.022549264753896663,stand
10/07/2020, 16:11:52,-1.052842,0.29910284,9.74836,0.042738892,-0.008547778,-0.0024422223,9.809610353414229,0.04365365808170265,stand
10/07/2020, 16:11:52,-1.0145568,0.33260235,9.79143,0.042738892,-0.008547778,-0.0024422223,9.84947006031478,0.04365365808170265,stand
10/07/2020, 16:11:52,-1.0145568,0.33260235,9.79143,0.034191113,-0.0048844446,-0.0048844446,9.84947006031478,0.0348819122862609,stand
10/07/2020, 16:11:53,-1.0624132,0.32542387,9.777073,0.019537779,-0.007326667,-0.007326667,9.8400090016502,0.022115263867558476,stand
10/07/2020, 16:11:53,-1.0360922,0.3397808,9.789038,0.019537779,-0.007326667,-0.007326667,9.849578526265255,0.022115263867558476,stand
10/07/2020, 16:11:53,-1.0360922,0.3397808,9.789038,0.01099,-0.0036633336,-0.0012211112,9.849578526265255,0.011648657981601578,stand
10/07/2020, 16:11:53,-1.0145568,0.32063824,9.812965,0.01099,-0.0036633336,-0.0012211112,9.870482466253113,0.011648657981601578,stand
10/07/2020, 16:11:53,-1.0145568,0.32063824,9.812965,0.02075889,-0.008547778,-0.009768889,9.870482466253113,0.02448320258478944,stand
10/07/2020, 16:11:53,-1.0001999,0.29671,9.789038,0.02075889,-0.008547778,-0.009768889,9.844475398924313,0.02448320258478944,stand
10/07/2020, 16:11:53,-1.0001999,0.29671,9.789038,0.037854444,-0.019537779,-0.0048844446,9.844475398924313,0.04287821753934257,stand
10/07/2020, 16:11:53,-0.997807,0.3182454,9.812965,0.037854444,-0.019537779,-0.0048844446,9.868697422053442,0.04287821753934257,stand
10/07/2020, 16:11:53,-0.997807,0.3182454,9.812965,0.036633335,-0.01099,-0.0061055557,9.868697422053442,0.03873059713808391,stand
10/07/2020, 16:11:53,-0.99302137,0.30867413,9.827323,0.036633335,-0.01099,-0.0061055557,9.882188407130398,0.03873059713808391,stand
10/07/2020, 16:11:53,-0.99302137,0.30867413,9.827323,0.017095556,-0.0036633336,-0.007326667,9.882188407130398,0.018956743304761988,stand
10/07/2020, 16:11:53,-1.0241281,0.31106696,9.820144,0.017095556,-0.0036633336,-0.007326667,9.878300625888997,0.018956743304761988,stand
10/07/2020, 16:11:53,-1.0241281,0.31106696,9.820144,0.008547778,-0.0048844446,-0.008547778,9.878300625888997,0.013037899569900863,stand
10/07/2020, 16:11:53,-1.052842,0.29910284,9.777073,0.008547778,-0.0048844446,-0.008547778,9.838144817527162,0.013037899569900863,stand
10/07/2020, 16:11:53,-1.052842,0.29910284,9.777073,0.028085556,-0.013432222,-0.0048844446,9.838144817527162,0.03151318529961518,stand
10/07/2020, 16:11:53,-1.0504491,0.29192436,9.753145,0.028085556,-0.013432222,-0.0048844446,9.813893460429489,0.03151318529961518,stand
10/07/2020, 16:11:53,-1.0504491,0.29192436,9.753145,0.045181114,-0.0048844446,-0.007326667,9.813893460429489,0.046031195231497554,stand
10/07/2020, 16:11:53,-1.0504491,0.31585258,9.796216,0.045181114,-0.0048844446,-0.007326667,9.85743650092634,0.046031195231497554,stand
10/07/2020, 16:11:53,-1.0504491,0.31585258,9.796216,0.026864445,-0.0048844446,-0.0036633336,9.85743650092634,0.027549522843809817,stand
10/07/2020, 16:11:53,-1.0504491,0.32063824,9.822537,0.026864445,-0.0048844446,-0.0036633336,9.883748968460095,0.027549522843809817,stand
10/07/2020, 16:11:54,-1.0408778,0.29671,9.817751,0.009768889,0.0024422223,-0.008547778,9.877231231766183,0.01320833678420628,stand
10/07/2020, 16:11:54,-1.0576276,0.30388847,9.765109,0.009768889,0.0024422223,-0.008547778,9.826916060069793,0.01320833678420628,stand
10/07/2020, 16:11:54,-1.0576276,0.30388847,9.765109,0.007326667,-0.0061055557,-0.0048844446,9.826916060069793,0.010715207041083216,stand
10/07/2020, 16:11:54,-1.0719845,0.29192436,9.765109,0.007326667,-0.0061055557,-0.0048844446,9.828108956380587,0.010715207041083216,stand
10/07/2020, 16:11:54,-1.0719845,0.29192436,9.765109,0.03297,-0.012211111,-0.0024422223,9.828108956380587,0.03524339079475752,stand
10/07/2020, 16:11:54,-1.0336994,0.30388847,9.779466,0.03297,-0.012211111,-0.0024422223,9.838639719658302,0.03524339079475752,stand
10/07/2020, 16:11:54,-1.0336994,0.30388847,9.779466,0.04151778,-0.009768889,-0.009768889,9.838639719658302,0.04375600973614424,stand
10/07/2020, 16:11:54,-1.0217353,0.29671,9.817751,0.04151778,-0.009768889,-0.009768889,9.875232312021701,0.04375600973614424,stand
10/07/2020, 16:11:54,-1.0217353,0.29671,9.817751,0.02075889,0.0024422223,-0.009768889,9.875232312021701,0.02307221588430446,stand
10/07/2020, 16:11:54,-1.052842,0.31106696,9.786645,0.02075889,0.0024422223,-0.009768889,9.848028130926316,0.02307221588430446,stand
10/07/2020, 16:11:54,-1.052842,0.31106696,9.786645,-0.0012211112,0.0048844446,-0.009768889,9.848028130926316,0.01099000044632703,stand
10/07/2020, 16:11:54,-1.038485,0.2847459,9.7196455,-0.0012211112,0.0048844446,-0.009768889,9.779112438116588,0.01099000044632703,stand
10/07/2020, 16:11:54,-1.038485,0.2847459,9.7196455,0.015874445,-0.018316668,-0.012211111,9.779112438116588,0.0271405520994428,stand
10/07/2020, 16:11:54,-1.0097711,0.29192436,9.757931,0.015874445,-0.018316668,-0.012211111,9.814380782996544,0.0271405520994428,stand
10/07/2020, 16:11:54,-1.0097711,0.29192436,9.757931,0.045181114,-0.02198,-0.0036633336,9.814380782996544,0.050377311607658806,stand
10/07/2020, 16:11:54,-1.038485,0.29910284,9.801002,0.045181114,-0.02198,-0.0036633336,9.860402885734558,0.050377311607658806,stand
10/07/2020, 16:11:54,-1.038485,0.29910284,9.801002,0.039075557,-0.008547778,-0.008547778,9.860402885734558,0.04090266729349817,stand
10/07/2020, 16:11:54,-1.0480564,0.31585258,9.801002,0.039075557,-0.008547778,-0.008547778,9.861937758626532,0.04090266729349817,stand
10/07/2020, 16:11:54,-1.0480564,0.31585258,9.801002,0.0061055557,0.007326667,-0.0048844446,9.861937758626532,0.010715207041083216,stand
10/07/2020, 16:11:54,-1.0313065,0.32303107,9.796216,0.0061055557,0.007326667,-0.0048844446,9.855647635420535,0.010715207041083216,stand
10/07/2020, 16:11:55,-1.0408778,0.32063824,9.8321085,0.035412222,0.0012211112,-0.0048844446,9.892249138781986,0.03576834339640445,stand
10/07/2020, 16:11:55,-1.0313065,0.31106696,9.786645,0.035412222,0.0012211112,-0.0048844446,9.84574907531324,0.03576834339640445,stand
10/07/2020, 16:11:55,-1.0313065,0.31106696,9.786645,0.015874445,-0.0024422223,-0.007326667,9.84574907531324,0.017653399674276492,stand
10/07/2020, 16:11:55,-1.0408778,0.32063824,9.789038,0.015874445,-0.0024422223,-0.007326667,9.84944133919587,0.017653399674276492,stand
10/07/2020, 16:11:55,-1.0408778,0.32063824,9.789038,0.007326667,-0.01099,-0.013432222,9.84944133919587,0.018838385243100723,stand
10/07/2020, 16:11:55,-0.98584294,0.33020952,9.796216,0.007326667,-0.01099,-0.013432222,9.851232043410171,0.018838385243100723,stand
10/07/2020, 16:11:55,-0.98584294,0.33020952,9.796216,0.03174889,-0.019537779,-0.0024422223,9.851232043410171,0.037358818413747295,stand
10/07/2020, 16:11:55,-0.9882358,0.32303107,9.817751,0.03174889,-0.019537779,-0.0024422223,9.872648699823555,0.037358818413747295,stand
10/07/2020, 16:11:55,-0.9882358,0.32303107,9.817751,0.04151778,-0.01099,-0.007326667,9.872648699823555,0.043568178200927316,stand
10/07/2020, 16:11:55,-1.0145568,0.31106696,9.803394,0.04151778,-0.01099,-0.007326667,9.860660638522837,0.043568178200927316,stand
10/07/2020, 16:11:55,-1.0145568,0.31106696,9.803394,0.023201112,0.0036633336,-0.0048844446,9.860660638522837,0.023991027423380877,stand
10/07/2020, 16:11:55,-1.0360922,0.3278167,9.777073,0.023201112,0.0036633336,-0.0048844446,9.837281401527454,0.023991027423380877,stand
10/07/2020, 16:11:55,-1.0360922,0.3278167,9.777073,0.0061055557,-0.0061055557,-0.0036633336,9.837281401527454,0.009379532693616889,stand
10/07/2020, 16:11:55,-1.0360922,0.31585258,9.77468,0.0061055557,-0.0061055557,-0.0036633336,9.834511762936543,0.009379532693616889,stand
10/07/2020, 16:11:55,-1.0360922,0.31585258,9.77468,0.018316668,-0.01099,-0.013432222,9.834511762936543,0.0252330143986875,stand
10/07/2020, 16:11:55,-1.0336994,0.2847459,9.810573,0.018316668,-0.01099,-0.013432222,9.868989303828817,0.0252330143986875,stand
10/07/2020, 16:11:55,-1.0336994,0.2847459,9.810573,0.04151778,-0.0061055557,-0.0061055557,9.868989303828817,0.04240615064794894,stand
10/07/2020, 16:11:55,-1.0360922,0.28713873,9.834501,0.04151778,-0.0061055557,-0.0061055557,9.893096116951952,0.04240615064794894,stand
10/07/2020, 16:11:55,-1.0360922,0.28713873,9.834501,0.03174889,0.0048844446,-0.0024422223,9.893096116951952,0.032215125659244594,stand
10/07/2020, 16:11:55,-1.0360922,0.31345975,9.801002,0.03174889,0.0048844446,-0.0024422223,9.860597108935055,0.032215125659244594,stand
10/07/2020, 16:11:56,-1.038485,0.31585258,9.793823,0.013432222,-0.0061055557,-0.0036633336,9.853790527129506,0.01520271102146125,stand
10/07/2020, 16:11:56,-1.0313065,0.31345975,9.755538,0.013432222,-0.0061055557,-0.0036633336,9.81490557958013,0.01520271102146125,stand
10/07/2020, 16:11:56,-1.0313065,0.31345975,9.755538,0.007326667,-0.013432222,-0.007326667,9.81490557958013,0.016964218329540696,stand
10/07/2020, 16:11:56,-0.9834501,0.3182454,9.789038,0.007326667,-0.013432222,-0.007326667,9.843460440780946,0.016964218329540696,stand
10/07/2020, 16:11:56,-0.9834501,0.3182454,9.789038,0.028085556,-0.013432222,-0.009768889,9.843460440780946,0.03262903992050589,stand
10/07/2020, 16:11:56,-1.0001999,0.3062813,9.8321085,0.028085556,-0.013432222,-0.009768889,9.887596553795863,0.03262903992050589,stand
10/07/2020, 16:11:56,-1.0001999,0.3062813,9.8321085,0.037854444,-0.0048844446,-0.0048844446,9.887596553795863,0.038479534135963236,stand
10/07/2020, 16:11:56,-1.0576276,0.28235307,9.827323,0.037854444,-0.0048844446,-0.0048844446,9.888102743658656,0.038479534135963236,stand
10/07/2020, 16:11:56,-1.0576276,0.28235307,9.827323,0.02075889,-0.0048844446,-0.014653334,9.888102743658656,0.02587488176598935,stand
10/07/2020, 16:11:56,-1.0480564,0.29671,9.767502,0.02075889,-0.0048844446,-0.014653334,9.828049195771955,0.02587488176598935,stand
10/07/2020, 16:11:56,-1.0480564,0.29671,9.767502,0.012211111,-0.008547778,-0.007326667,9.828049195771955,0.016608907431630588,stand
10/07/2020, 16:11:56,-1.0504491,0.30867413,9.767502,0.012211111,-0.008547778,-0.007326667,9.828673110705358,0.016608907431630588,stand
10/07/2020, 16:11:56,-1.0504491,0.30867413,9.767502,0.02075889,-0.007326667,-0.007326667,9.828673110705358,0.023201112096246923,stand
10/07/2020, 16:11:56,-1.079163,0.27517462,9.779466,0.02075889,-0.007326667,-0.007326667,9.842675583892222,0.023201112096246923,stand
10/07/2020, 16:11:56,-1.079163,0.27517462,9.779466,0.03297,0.0,-0.0061055557,9.842675583892222,0.03353056387983953,stand
10/07/2020, 16:11:56,-1.038485,0.29910284,9.810573,0.03297,0.0,-0.0061055557,9.869916358556358,0.03353056387983953,stand
10/07/2020, 16:11:56,-1.038485,0.29910284,9.810573,0.03297,-0.0012211112,-0.009768889,9.869916358556358,0.03440847590628357,stand
10/07/2020, 16:11:56,-1.0001999,0.30149564,9.822537,0.03297,-0.0012211112,-0.009768889,9.877932015350082,0.03440847590628357,stand
10/07/2020, 16:11:56,-1.0001999,0.30149564,9.822537,0.018316668,-0.009768889,-0.007326667,9.877932015350082,0.02201389468913426,stand
10/07/2020, 16:11:56,-0.9954142,0.31585258,9.80818,0.018316668,-0.009768889,-0.007326667,9.863620245789402,0.02201389468913426,stand
10/07/2020, 16:11:57,-1.0169497,0.31106696,9.796216,0.012211111,-0.0048844446,-0.009768889,9.853770719060128,0.0163829252069518,stand
10/07/2020, 16:11:57,-1.0169497,0.31106696,9.796216,0.0036633336,-0.0012211112,-0.0048844446,9.853770719060128,0.006226469705183319,stand
10/07/2020, 16:11:57,-1.0289137,0.30149564,9.753145,0.0036633336,-0.0012211112,-0.0048844446,9.81190117867172,0.006226469705183319,stand
10/07/2020, 16:11:57,-1.0289137,0.30149564,9.753145,0.024422223,-0.007326667,-0.0061055557,9.81190117867172,0.026218368111631037,stand
10/07/2020, 16:11:57,-1.0313065,0.30388847,9.755538,0.024422223,-0.007326667,-0.0061055557,9.814604562633214,0.026218368111631037,stand
10/07/2020, 16:11:57,-1.0313065,0.30388847,9.755538,0.045181114,-0.008547778,-0.01099,9.814604562633214,0.047277666004888204,stand
10/07/2020, 16:11:57,-1.0504491,0.32063824,9.789038,0.045181114,-0.008547778,-0.01099,9.850457422927004,0.047277666004888204,stand
10/07/2020, 16:11:57,-1.0504491,0.32063824,9.789038,0.025643334,-0.0048844446,-0.013432222,9.850457422927004,0.029357502730503783,stand
10/07/2020, 16:11:57,-1.038485,0.32303107,9.827323,0.025643334,-0.0048844446,-0.013432222,9.88731899093292,0.029357502730503783,stand
10/07/2020, 16:11:57,-1.038485,0.32303107,9.827323,0.0024422223,-0.0024422223,-0.009768889,9.88731899093292,0.010361471787788037,stand
10/07/2020, 16:11:57,-1.0145568,0.30867413,9.805787,0.0024422223,-0.0024422223,-0.009768889,9.862964337999133,0.010361471787788037,stand
10/07/2020, 16:11:57,-1.0145568,0.30867413,9.805787,0.008547778,-0.012211111,-0.007326667,9.862964337999133,0.016608907431630588,stand
10/07/2020, 16:11:57,-1.012164,0.30867413,9.796216,0.008547778,-0.012211111,-0.007326667,9.853202718299478,0.016608907431630588,stand
10/07/2020, 16:11:57,-1.012164,0.30867413,9.796216,0.039075557,-0.017095556,-0.0061055557,9.853202718299478,0.04308636707471409,stand
10/07/2020, 16:11:57,-1.038485,0.29671,9.8321085,0.039075557,-0.017095556,-0.0061055557,9.891250959361386,0.04308636707471409,stand
10/07/2020, 16:11:57,-1.038485,0.29671,9.8321085,0.04396,-0.007326667,-0.007326667,9.891250959361386,0.04516460805161459,stand
10/07/2020, 16:11:57,-1.0456635,0.29910284,9.829716,0.04396,-0.007326667,-0.007326667,9.889701002751444,0.04516460805161459,stand
10/07/2020, 16:11:57,-1.0456635,0.29910284,9.829716,0.012211111,0.0012211112,-0.008547778,9.889701002751444,0.014955496191131814,stand
10/07/2020, 16:11:57,-1.0624132,0.2943172,9.801002,0.012211111,0.0012211112,-0.008547778,9.86280770397553,0.014955496191131814,stand
10/07/2020, 16:11:57,-1.0624132,0.2943172,9.801002,0.0024422223,-0.0024422223,-0.01099,9.86280770397553,0.01151993953915588,stand
10/07/2020, 16:11:58,-1.0600204,0.31106696,9.82493,0.04151778,-0.013432222,-0.009768889,9.886842734518089,0.044716683567260176,stand
10/07/2020, 16:11:58,-1.0600204,0.31106696,9.82493,0.02075889,0.0,-0.01099,9.886842734518089,0.023488542000759793,stand
10/07/2020, 16:11:58,-1.0671989,0.29910284,9.801002,0.02075889,0.0,-0.01099,9.863468320176082,0.023488542000759793,stand
10/07/2020, 16:11:58,-1.0671989,0.29910284,9.801002,0.0024422223,-0.0012211112,-0.008547778,9.863468320176082,0.008973297899715035,stand
10/07/2020, 16:11:58,-1.026521,0.29910284,9.767502,0.0024422223,-0.0012211112,-0.008547778,9.825848555056997,0.008973297899715035,stand
10/07/2020, 16:11:58,-1.026521,0.29910284,9.767502,0.015874445,-0.019537779,-0.0012211112,9.825848555056997,0.025203450595943717,stand
10/07/2020, 16:11:58,-1.0193424,0.28713873,9.79143,0.015874445,-0.019537779,-0.0012211112,9.84853381670178,0.025203450595943717,stand
10/07/2020, 16:11:58,-1.0193424,0.28713873,9.79143,0.04396,-0.018316668,-0.0048844446,9.84853381670178,0.04787316393121778,stand
10/07/2020, 16:11:58,-1.0432707,0.3062813,9.834501,0.04396,-0.018316668,-0.0048844446,9.894424549335456,0.04787316393121778,stand
10/07/2020, 16:11:58,-1.0432707,0.3062813,9.834501,0.039075557,0.0012211112,-0.01099,9.894424549335456,0.040609978893305664,stand
10/07/2020, 16:11:58,-1.0695918,0.2943172,9.839287,0.039075557,0.0012211112,-0.01099,9.90162683378906,0.040609978893305664,stand
10/07/2020, 16:11:58,-1.0695918,0.2943172,9.839287,0.008547778,0.0036633336,-0.008547778,9.90162683378906,0.012631272255010711,stand
10/07/2020, 16:11:58,-1.0313065,0.31345975,9.798609,0.008547778,0.0036633336,-0.008547778,9.857716984511226,0.012631272255010711,stand
10/07/2020, 16:11:58,-1.0313065,0.31345975,9.798609,0.0012211112,-0.009768889,-0.012211111,9.857716984511226,0.0156854566823754,stand
10/07/2020, 16:11:58,-1.012164,0.30388847,9.781859,0.0012211112,-0.009768889,-0.012211111,9.838780282048232,0.0156854566823754,stand
10/07/2020, 16:11:58,-1.012164,0.30388847,9.781859,0.03174889,-0.019537779,-0.0061055557,9.838780282048232,0.03777558303524177,stand
10/07/2020, 16:11:58,-1.0217353,0.28713873,9.817751,0.03174889,-0.019537779,-0.0061055557,9.874949368691317,0.03777558303524177,stand
10/07/2020, 16:11:58,-1.0217353,0.28713873,9.817751,0.047623336,-0.009768889,-0.007326667,9.874949368691317,0.049163944226205576,stand
10/07/2020, 16:11:58,-1.0504491,0.30388847,9.834501,0.047623336,-0.009768889,-0.007326667,9.895110244125469,0.049163944226205576,stand
10/07/2020, 16:11:58,-1.0504491,0.30388847,9.834501,0.02075889,0.0,-0.01099,9.895110244125469,0.023488542000759793,stand
10/07/2020, 16:11:59,-1.0193424,0.31345975,9.801002,0.024422223,-0.017095556,-0.0024422223,9.858851218604771,0.029910992382263628,stand
10/07/2020, 16:11:59,-1.0193424,0.31345975,9.801002,0.034191113,-0.012211111,-0.0024422223,9.858851218604771,0.036388293401440036,stand
10/07/2020, 16:11:59,-1.0336994,0.31345975,9.805787,0.034191113,-0.012211111,-0.0024422223,9.865102728230198,0.036388293401440036,stand
10/07/2020, 16:11:59,-1.0336994,0.31345975,9.805787,0.024422223,-0.007326667,-0.0061055557,9.865102728230198,0.026218368111631037,stand
10/07/2020, 16:11:59,-1.0576276,0.3182454,9.803394,0.024422223,-0.007326667,-0.0061055557,9.86541414951195,0.026218368111631037,stand
10/07/2020, 16:11:59,-1.0576276,0.3182454,9.803394,0.014653334,-0.007326667,-0.008547778,9.86541414951195,0.01847876548756999,stand
10/07/2020, 16:11:59,-1.0360922,0.32063824,9.784252,0.014653334,-0.007326667,-0.008547778,9.844180327051147,0.01847876548756999,stand
10/07/2020, 16:11:59,-1.0360922,0.32063824,9.784252,0.018316668,-0.013432222,-0.007326667,9.844180327051147,0.02386639814905509,stand
10/07/2020, 16:11:59,-0.9882358,0.31585258,9.798609,0.018316668,-0.013432222,-0.007326667,9.853380476562288,0.02386639814905509,stand
10/07/2020, 16:11:59,-0.9882358,0.31585258,9.798609,0.03297,-0.009768889,-0.012211111,9.853380476562288,0.03649059252354784,stand
10/07/2020, 16:11:59,-1.0289137,0.31106696,9.805787,0.03297,-0.009768889,-0.012211111,9.864526674556906,0.03649059252354784,stand
10/07/2020, 16:11:59,-1.0289137,0.31106696,9.805787,0.03297,-0.007326667,-0.0048844446,9.864526674556906,0.03412563194340476,stand
10/07/2020, 16:11:59,-1.052842,0.31345975,9.8321085,0.03297,-0.007326667,-0.0048844446,9.893285139300028,0.03412563194340476,stand
10/07/2020, 16:11:59,-1.052842,0.31345975,9.8321085,0.017095556,-0.0036633336,-0.0036633336,9.893285139300028,0.017863316533063136,stand
10/07/2020, 16:11:59,-1.0695918,0.32542387,9.769895,0.017095556,-0.0036633336,-0.0036633336,9.833654850601233,0.017863316533063136,stand
10/07/2020, 16:11:59,-1.0695918,0.32542387,9.769895,0.01099,-0.0048844446,-0.0061055557,9.833654850601233,0.01348761346452477,stand
10/07/2020, 16:11:59,-1.0600204,0.2943172,9.750752,0.01099,-0.0048844446,-0.0061055557,9.81261633183853,0.01348761346452477,stand
10/07/2020, 16:11:59,-1.0600204,0.2943172,9.750752,0.029306669,-0.009768889,-0.0036633336,9.81261633183853,0.03110839189655743,stand
10/07/2020, 16:11:59,-1.0289137,0.28713873,9.753145,0.029306669,-0.009768889,-0.0036633336,9.811470520193456,0.03110839189655743,stand
10/07/2020, 16:11:59,-1.0289137,0.28713873,9.753145,0.037854444,-0.007326667,-0.0024422223,9.811470520193456,0.0386342264121705,stand
10/07/2020, 16:12:00,-1.0097711,0.27517462,9.784252,0.014653334,-0.008547778,-0.008547778,9.84006855792152,0.018996032074919275,stand
10/07/2020, 16:12:00,-1.0360922,0.2847459,9.765109,0.014653334,-0.008547778,-0.008547778,9.824048157129342,0.018996032074919275,stand
10/07/2020, 16:12:00,-1.0360922,0.2847459,9.765109,0.034191113,-0.007326667,-0.007326667,9.824048157129342,0.03572663306612627,stand
10/07/2020, 16:12:00,-1.038485,0.31106696,9.762716,0.034191113,-0.007326667,-0.007326667,9.8227207674013,0.03572663306612627,stand
10/07/2020, 16:12:00,-1.038485,0.31106696,9.762716,0.035412222,-0.0024422223,-0.0024422223,9.8227207674013,0.03558025262869797,stand
10/07/2020, 16:12:00,-1.0360922,0.3062813,9.812965,0.035412222,-0.0024422223,-0.0024422223,9.872263418674555,0.03558025262869797,stand
10/07/2020, 16:12:00,-1.0360922,0.3062813,9.812965,0.015874445,0.0012211112,-0.007326667,9.872263418674555,0.017526242685166865,stand
10/07/2020, 16:12:00,-1.0504491,0.32303107,9.801002,0.015874445,0.0012211112,-0.007326667,9.862424844356532,0.017526242685166865,stand
10/07/2020, 16:12:00,-1.0504491,0.32303107,9.801002,0.013432222,-0.0048844446,-0.0036633336,9.862424844356532,0.014754742004605803,stand
10/07/2020, 16:12:00,-1.0432707,0.30388847,9.820144,0.013432222,-0.0048844446,-0.0036633336,9.88008017438181,0.014754742004605803,stand
10/07/2020, 16:12:00,-1.0432707,0.30388847,9.820144,0.025643334,-0.01099,-0.0048844446,9.88008017438181,0.028323461559690934,stand
10/07/2020, 16:12:00,-1.0360922,0.31106696,9.8632145,0.025643334,-0.01099,-0.0048844446,9.922361097544602,0.028323461559690934,stand
10/07/2020, 16:12:00,-1.0360922,0.31106696,9.8632145,0.035412222,-0.01099,-0.0061055557,9.922361097544602,0.03757769810522401,stand
10/07/2020, 16:12:00,-1.0456635,0.3182454,9.877572,0.035412222,-0.01099,-0.0061055557,9.937863051974558,0.03757769810522401,stand
10/07/2020, 16:12:00,-1.0456635,0.3182454,9.877572,0.024422223,-0.0036633336,-0.007326667,9.937863051974558,0.02575936779586784,stand
10/07/2020, 16:12:00,-1.0456635,0.33020952,9.839287,0.024422223,-0.0036633336,-0.007326667,9.900202788310906,0.02575936779586784,stand
10/07/2020, 16:12:00,-1.0456635,0.33020952,9.839287,0.009768889,-0.01099,-0.007326667,9.900202788310906,0.016428370501743266,stand
10/07/2020, 16:12:00,-1.0169497,0.32063824,9.817751,0.009768889,-0.01099,-0.007326667,9.875486257269364,0.016428370501743266,stand
10/07/2020, 16:12:00,-1.0169497,0.32063824,9.817751,0.018316668,-0.017095556,-0.007326667,9.875486257269364,0.02610437536049782,stand
10/07/2020, 16:12:00,-1.0241281,0.32303107,9.82493,0.018316668,-0.017095556,-0.007326667,9.883442753041582,0.02610437536049782,stand
10/07/2020, 16:12:01,-1.0193424,0.27517462,9.812965,0.047623336,-0.013432222,-0.0012211112,9.869603327898272,0.04949644303738263,stand
10/07/2020, 16:12:01,-1.0097711,0.2847459,9.853643,0.047623336,-0.013432222,-0.0012211112,9.909339358245532,0.04949644303738263,stand
10/07/2020, 16:12:01,-1.0097711,0.2847459,9.853643,0.028085556,0.0012211112,-0.007326667,9.909339358245532,0.02905115512062443,stand
10/07/2020, 16:12:01,-1.0432707,0.3062813,9.858429,0.028085556,0.0012211112,-0.007326667,9.918207673991716,0.02905115512062443,stand
10/07/2020, 16:12:01,-1.0432707,0.3062813,9.858429,-0.0036633336,-0.0048844446,-0.009768889,9.918207673991716,0.011519939687235872,stand
10/07/2020, 16:12:01,-1.026521,0.28953153,9.79143,-0.0036633336,-0.0048844446,-0.009768889,9.84934944638215,0.011519939687235872,stand
10/07/2020, 16:12:01,-1.026521,0.28953153,9.79143,0.007326667,-0.017095556,-0.009768889,9.84934944638215,0.02100879105382652,stand
10/07/2020, 16:12:01,-1.012164,0.27996024,9.777073,0.007326667,-0.017095556,-0.009768889,9.833311157175466,0.02100879105382652,stand
10/07/2020, 16:12:01,-1.012164,0.27996024,9.777073,0.042738892,-0.023201112,-0.0061055557,9.833311157175466,0.04901206275743638,stand
10/07/2020, 16:12:01,-1.0336994,0.28953153,9.82493,0.042738892,-0.023201112,-0.0061055557,9.883401044211338,0.04901206275743638,stand
10/07/2020, 16:12:01,-1.0336994,0.28953153,9.82493,0.04151778,-0.008547778,-0.009768889,9.883401044211338,0.043499674746115435,stand
10/07/2020, 16:12:01,-1.0504491,0.2943172,9.822537,0.04151778,-0.008547778,-0.009768889,9.88293010179089,0.043499674746115435,stand
10/07/2020, 16:12:01,-1.0504491,0.2943172,9.822537,0.0048844446,0.0024422223,-0.01099,9.88293010179089,0.01227201518037393,stand
10/07/2020, 16:12:01,-1.079163,0.33499518,9.769895,0.0048844446,0.0024422223,-0.01099,9.83502185805233,0.01227201518037393,stand
10/07/2020, 16:12:01,-1.079163,0.33499518,9.769895,-0.0048844446,-0.0061055557,-0.0036633336,9.83502185805233,0.008634559790229474,stand
10/07/2020, 16:12:01,-1.0576276,0.31585258,9.734002,-0.0048844446,-0.0061055557,-0.0036633336,9.796383825133354,0.008634559790229474,stand
10/07/2020, 16:12:01,-1.0576276,0.31585258,9.734002,0.025643334,-0.017095556,-0.007326667,9.796383825133354,0.03167836283130327,stand
10/07/2020, 16:12:01,-1.0169497,0.30867413,9.810573,0.025643334,-0.017095556,-0.007326667,9.867968460095259,0.03167836283130327,stand
10/07/2020, 16:12:01,-1.0169497,0.30867413,9.810573,0.054950003,-0.012211111,-0.0024422223,9.867968460095259,0.056343397789795364,stand
10/07/2020, 16:12:01,-1.026521,0.30388847,9.844072,0.054950003,-0.012211111,-0.0024422223,9.902113601235646,0.056343397789795364,stand
10/07/2020, 16:12:02,-1.0217353,0.31106696,9.786645,-0.0048844446,-0.0048844446,-0.0012211112,9.84475112896161,0.007014749561045169,stand
10/07/2020, 16:12:02,-1.0217353,0.31106696,9.786645,0.017095556,-0.015874445,-0.0048844446,9.84475112896161,0.023835139372305122,stand
10/07/2020, 16:12:02,-1.0193424,0.29910284,9.74836,0.017095556,-0.015874445,-0.0048844446,9.806071483470374,0.023835139372305122,stand
10/07/2020, 16:12:02,-1.0193424,0.29910284,9.74836,0.048844445,-0.015874445,-0.0061055557,9.806071483470374,0.0517209404797918,stand
10/07/2020, 16:12:02,-1.038485,0.30867413,9.80818,0.048844445,-0.015874445,-0.0061055557,9.867832740319182,0.0517209404797918,stand
10/07/2020, 16:12:02,-1.038485,0.30867413,9.80818,0.04396,-0.009768889,-0.0012211112,9.867832740319182,0.04504890704961581,stand
10/07/2020, 16:12:02,-1.0600204,0.34456646,9.77468,0.04396,-0.009768889,-0.0012211112,9.83802526877492,0.04504890704961581,stand
10/07/2020, 16:12:02,-1.0600204,0.34456646,9.77468,0.008547778,0.0036633336,-0.0048844446,9.83802526877492,0.01050439552691326,stand
10/07/2020, 16:12:02,-1.0935199,0.32063824,9.705289,0.008547778,0.0036633336,-0.0048844446,9.771961271406056,0.01050439552691326,stand
10/07/2020, 16:12:02,-1.0935199,0.32063824,9.705289,-0.0012211112,-0.0048844446,-0.009768889,9.771961271406056,0.01099000044632703,stand
10/07/2020, 16:12:02,-1.0719845,0.31585258,9.710074,-0.0012211112,-0.0048844446,-0.009768889,9.77417306064207,0.01099000044632703,stand
10/07/2020, 16:12:02,-1.0719845,0.31585258,9.710074,0.034191113,-0.015874445,-0.007326667,9.77417306064207,0.03840195666891963,stand
10/07/2020, 16:12:02,-1.0360922,0.3278167,9.769895,0.034191113,-0.015874445,-0.007326667,9.830147061330043,0.03840195666891963,stand
10/07/2020, 16:12:02,-1.0360922,0.3278167,9.769895,0.048844445,-0.012211111,-0.007326667,9.830147061330043,0.05087800260524226,stand
10/07/2020, 16:12:02,-1.0360922,0.3493521,9.860822,0.048844445,-0.012211111,-0.007326667,9.921256922567332,0.05087800260524226,stand
10/07/2020, 16:12:02,-1.0360922,0.3493521,9.860822,0.025643334,0.0,-0.008547778,9.921256922567332,0.027030447293121113,stand
10/07/2020, 16:12:02,-1.0097711,0.34217364,9.860822,0.025643334,0.0,-0.008547778,9.918292472006037,0.027030447293121113,stand
10/07/2020, 16:12:02,-1.0097711,0.34217364,9.860822,-0.0024422223,0.0,-0.012211111,9.918292472006037,0.01245293904507187,stand
10/07/2020, 16:12:02,-1.0504491,0.3397808,9.822537,-0.0024422223,0.0,-0.012211111,9.884388488324554,0.01245293904507187,stand
10/07/2020, 16:12:02,-1.0504491,0.3397808,9.822537,0.013432222,-0.007326667,-0.01099,9.884388488324554,0.018838385243100723,stand
10/07/2020, 16:12:03,-1.0504491,0.31345975,9.810573,0.029306669,-0.008547778,-0.008547778,9.871627809690425,0.031701890498629086,stand
10/07/2020, 16:12:03,-1.0504491,0.31345975,9.810573,0.047623336,-0.009768889,-0.007326667,9.871627809690425,0.049163944226205576,stand
10/07/2020, 16:12:03,-1.0576276,0.31345975,9.834501,0.047623336,-0.009768889,-0.007326667,9.896173413531988,0.049163944226205576,stand
10/07/2020, 16:12:03,-1.0576276,0.31345975,9.834501,0.03052778,-0.0061055557,-0.0061055557,9.896173413531988,0.031725399319741686,stand
10/07/2020, 16:12:03,-1.0193424,0.32063824,9.844072,0.03052778,-0.0061055557,-0.0061055557,9.901900228126262,0.031725399319741686,stand
10/07/2020, 16:12:03,-1.0193424,0.32063824,9.844072,0.0036633336,0.0048844446,-0.0036633336,9.901900228126262,0.007120240556108301,stand
10/07/2020, 16:12:03,-1.0049855,0.2943172,9.812965,0.0036633336,0.0048844446,-0.0036633336,9.868683203424242,0.007120240556108301,stand
10/07/2020, 16:12:03,-1.0049855,0.2943172,9.812965,0.008547778,-0.0048844446,-0.0036633336,9.868683203424242,0.01050439552691326,stand
10/07/2020, 16:12:03,-1.0025927,0.29671,9.80818,0.008547778,-0.0048844446,-0.0036633336,9.863752885951735,0.01050439552691326,stand
10/07/2020, 16:12:03,-1.0025927,0.29671,9.80818,0.039075557,-0.014653334,-0.0036633336,9.863752885951735,0.04189319023320845,stand
10/07/2020, 16:12:03,-1.0193424,0.3182454,9.789038,0.039075557,-0.014653334,-0.0036633336,9.847111164973265,0.04189319023320845,stand
10/07/2020, 16:12:03,-1.0193424,0.3182454,9.789038,0.04029667,-0.013432222,-0.0036633336,9.847111164973265,0.042634097026046265,stand
10/07/2020, 16:12:03,-1.0408778,0.3397808,9.798609,0.04029667,-0.013432222,-0.0036633336,9.859594903089619,0.042634097026046265,stand
10/07/2020, 16:12:03,-1.0408778,0.3397808,9.798609,0.013432222,0.0012211112,-0.008547778,9.859594903089619,0.015968100213537086,stand
10/07/2020, 16:12:03,-1.052842,0.32542387,9.784252,0.013432222,0.0012211112,-0.008547778,9.846114333917086,0.015968100213537086,stand
10/07/2020, 16:12:03,-1.052842,0.32542387,9.784252,0.0048844446,0.0,-0.0024422223,9.846114333917086,0.005460975126831171,stand
10/07/2020, 16:12:03,-1.0695918,0.3278167,9.789038,0.0048844446,0.0,-0.0024422223,9.852753396863998,0.005460975126831171,stand
10/07/2020, 16:12:03,-1.0695918,0.3278167,9.789038,0.019537779,-0.0061055557,-0.007326667,9.852753396863998,0.021741266153646712,stand
10/07/2020, 16:12:03,-1.0815558,0.31585258,9.798609,0.019537779,-0.0061055557,-0.007326667,9.863176968797116,0.021741266153646712,stand
10/07/2020, 16:12:03,-1.0815558,0.31585258,9.798609,0.039075557,-0.009768889,-0.007326667,9.863176968797116,0.040939106195513934,stand
10/07/2020, 16:12:04,-1.0648061,0.32542387,9.769895,0.036633335,-0.013432222,-0.0048844446,9.833135472717967,0.039322813171761,stand
10/07/2020, 16:12:04,-1.0648061,0.32542387,9.769895,0.018316668,-0.0036633336,-0.0048844446,9.833135472717967,0.019307462852896463,stand
10/07/2020, 16:12:04,-1.079163,0.32063824,9.74836,0.018316668,-0.0036633336,-0.0048844446,9.813150259661242,0.019307462852896463,stand
10/07/2020, 16:12:04,-1.079163,0.32063824,9.74836,0.01099,0.0036633336,-0.0012211112,9.813150259661242,0.011648657981601578,stand
10/07/2020, 16:12:04,-1.0863415,0.30388847,9.743574,0.01099,0.0036633336,-0.0012211112,9.808655520861814,0.011648657981601578,stand
10/07/2020, 16:12:04,-1.0863415,0.30388847,9.743574,0.023201112,-0.0036633336,-0.0048844446,9.808655520861814,0.023991027423380877,stand
10/07/2020, 16:12:04,-1.0480564,0.30388847,9.757931,0.023201112,-0.0036633336,-0.0048844446,9.81875669195374,0.023991027423380877,stand
10/07/2020, 16:12:04,-1.0480564,0.30388847,9.757931,0.036633335,-0.009768889,0.0,9.81875669195374,0.03791348618958165,stand
10/07/2020, 16:12:04,-1.0360922,0.30388847,9.755538,0.036633335,-0.009768889,0.0,9.815108587357456,0.03791348618958165,stand
10/07/2020, 16:12:04,-1.0360922,0.30388847,9.755538,0.03174889,-0.0048844446,-0.0012211112,9.815108587357456,0.032145621534519116,stand
10/07/2020, 16:12:04,-1.0648061,0.29910284,9.80818,0.03174889,-0.0048844446,-0.0012211112,9.87034278147899,0.032145621534519116,stand
10/07/2020, 16:12:04,-1.0648061,0.29910284,9.80818,0.012211111,-0.0061055557,-0.0048844446,9.87034278147899,0.014499891403388927,stand
10/07/2020, 16:12:04,-1.0193424,0.30388847,9.803394,0.012211111,-0.0061055557,-0.0048844446,9.860930347757145,0.014499891403388927,stand
10/07/2020, 16:12:04,-1.0193424,0.30388847,9.803394,0.008547778,-0.008547778,-0.012211111,9.860930347757145,0.017182557048333286,stand
10/07/2020, 16:12:04,-1.038485,0.29910284,9.779466,0.008547778,-0.008547778,-0.012211111,9.838997032497502,0.017182557048333286,stand
10/07/2020, 16:12:04,-1.038485,0.29910284,9.779466,0.028085556,-0.012211111,-0.0061055557,9.838997032497502,0.031227992256961667,stand
10/07/2020, 16:12:04,-1.0648061,0.30149564,9.77468,0.028085556,-0.012211111,-0.0061055557,9.837127805074902,0.031227992256961667,stand
10/07/2020, 16:12:04,-1.0648061,0.30149564,9.77468,0.03174889,-0.007326667,-0.0048844446,9.837127805074902,0.0329473811340151,stand
10/07/2020, 16:12:04,-1.0839486,0.29671,9.760324,0.03174889,-0.007326667,-0.0048844446,9.824810264272402,0.0329473811340151,stand
10/07/2020, 16:12:04,-1.0839486,0.29671,9.760324,0.02075889,-0.0012211112,-0.007326667,9.824810264272402,0.022047736000621463,stand
10/07/2020, 16:12:05,-1.0145568,0.33260235,9.779466,0.019537779,-0.017095556,-0.007326667,9.837575852335538,0.026975227434957446,stand
10/07/2020, 16:12:05,-1.0193424,0.29192436,9.80818,0.019537779,-0.017095556,-0.007326667,9.865326699078873,0.026975227434957446,stand
10/07/2020, 16:12:05,-1.0193424,0.29192436,9.80818,0.03174889,-0.013432222,-0.008547778,9.865326699078873,0.035517336384754704,stand
10/07/2020, 16:12:05,-1.0504491,0.27996024,9.772287,0.03174889,-0.013432222,-0.008547778,9.832569427035846,0.035517336384754704,stand
10/07/2020, 16:12:05,-1.0504491,0.27996024,9.772287,0.03174889,-0.0061055557,-0.0024422223,9.832569427035846,0.03242274405445195,stand
10/07/2020, 16:12:05,-1.0695918,0.29910284,9.767502,0.03174889,-0.0061055557,-0.0024422223,9.830441549831393,0.03242274405445195,stand
10/07/2020, 16:12:05,-1.0695918,0.29910284,9.767502,0.018316668,-0.0036633336,-0.0061055557,9.830441549831393,0.019651924399293755,stand
10/07/2020, 16:12:05,-1.0719845,0.30149564,9.760324,0.018316668,-0.0036633336,-0.0061055557,9.823643201772168,0.019651924399293755,stand
10/07/2020, 16:12:05,-1.0719845,0.30149564,9.760324,0.015874445,-0.009768889,-0.0036633336,9.823643201772168,0.018996031925250068,stand
10/07/2020, 16:12:05,-1.0600204,0.3278167,9.769895,0.015874445,-0.009768889,-0.0036633336,9.832697881381783,0.018996031925250068,stand
10/07/2020, 16:12:05,-1.0600204,0.3278167,9.769895,0.024422223,-0.0048844446,-0.012211111,9.832697881381783,0.027738312934174704,stand
10/07/2020, 16:12:05,-1.0480564,0.3182454,9.827323,0.024422223,-0.0048844446,-0.012211111,9.88817368587306,0.027738312934174704,stand
10/07/2020, 16:12:05,-1.0480564,0.3182454,9.827323,0.034191113,0.0012211112,-0.009768889,9.88817368587306,0.03558025458243072,stand
10/07/2020, 16:12:05,-1.052842,0.30867413,9.829716,0.034191113,0.0012211112,-0.009768889,9.89075666195368,0.03558025458243072,stand
10/07/2020, 16:12:05,-1.052842,0.30867413,9.829716,0.02075889,-0.0036633336,-0.008547778,9.89075666195368,0.022746780519166614,stand
10/07/2020, 16:12:05,-1.0336994,0.3182454,9.801002,0.02075889,-0.0036633336,-0.008547778,9.86049927418271,0.022746780519166614,stand
10/07/2020, 16:12:05,-1.0336994,0.3182454,9.801002,0.01099,-0.01099,-0.0036633336,9.86049927418271,0.01596810031146461,stand
10/07/2020, 16:12:05,-1.0552348,0.31106696,9.745967,0.01099,-0.01099,-0.0036633336,9.807861854087669,0.01596810031146461,stand
10/07/2020, 16:12:05,-1.0552348,0.31106696,9.745967,0.02075889,-0.012211111,-0.0048844446,9.807861854087669,0.024574387856705487,stand
10/07/2020, 16:12:05,-1.0456635,0.2943172,9.810573,0.02075889,-0.012211111,-0.0048844446,9.870530377125363,0.024574387856705487,stand
10/07/2020, 16:12:06,-1.0360922,0.2656033,9.738789,0.02075889,-0.013432222,-0.0024422223,9.797348394908777,0.024845936227819585,stand
10/07/2020, 16:12:06,-1.0360922,0.2656033,9.738789,0.039075557,-0.01099,-0.008547778,9.797348394908777,0.04148184887527316,stand
10/07/2020, 16:12:06,-1.079163,0.28713873,9.762716,0.039075557,-0.01099,-0.008547778,9.826376278091361,0.04148184887527316,stand
10/07/2020, 16:12:06,-1.079163,0.28713873,9.762716,0.028085556,-0.0012211112,-0.007326667,9.826376278091361,0.02905115512062443,stand
10/07/2020, 16:12:06,-1.0456635,0.3062813,9.74836,0.028085556,-0.0012211112,-0.007326667,9.809064012067916,0.02905115512062443,stand
10/07/2020, 16:12:06,-1.0456635,0.3062813,9.74836,0.009768889,-0.0061055557,-0.007326667,9.809064012067916,0.01365243788996545,stand
10/07/2020, 16:12:06,-1.0169497,0.28953153,9.798609,0.009768889,-0.0061055557,-0.007326667,9.855493347668597,0.01365243788996545,stand
10/07/2020, 16:12:06,-1.0169497,0.28953153,9.798609,0.01099,-0.008547778,-0.01099,9.855493347668597,0.017737664089895886,stand
10/07/2020, 16:12:06,-1.0145568,0.2847459,9.827323,0.01099,-0.008547778,-0.01099,9.883657330022977,0.017737664089895886,stand
10/07/2020, 16:12:06,-1.0145568,0.2847459,9.827323,0.03174889,-0.01099,-0.0024422223,9.883657330022977,0.03368585206022973,stand
10/07/2020, 16:12:06,-1.0049855,0.27756742,9.839287,0.03174889,-0.01099,-0.0024422223,9.894372352204938,0.03368585206022973,stand
10/07/2020, 16:12:06,-1.0049855,0.27756742,9.839287,0.039075557,-0.009768889,-0.0048844446,9.894372352204938,0.040573244427084626,stand
10/07/2020, 16:12:06,-1.0001999,0.2847459,9.820144,0.039075557,-0.009768889,-0.0048844446,9.875054550645517,0.040573244427084626,stand
10/07/2020, 16:12:06,-1.0001999,0.2847459,9.820144,0.019537779,-0.018316668,-0.0048844446,9.875054550645517,0.027222837843638183,stand
10/07/2020, 16:12:06,-1.0360922,0.30388847,9.815358,0.019537779,-0.018316668,-0.0048844446,9.874567890165304,0.027222837843638183,stand
10/07/2020, 16:12:06,-1.0360922,0.30388847,9.815358,0.012211111,-0.013432222,-0.009768889,9.874567890165304,0.020614728665873543,stand
10/07/2020, 16:12:06,-1.0480564,0.30149564,9.822537,0.012211111,-0.013432222,-0.009768889,9.882892449794284,0.020614728665873543,stand
10/07/2020, 16:12:06,-1.0480564,0.30149564,9.822537,0.023201112,-0.0024422223,-0.008547778,9.882892449794284,0.024845936227819585,stand
10/07/2020, 16:12:06,-1.0671989,0.27517462,9.786645,0.023201112,-0.0024422223,-0.008547778,9.848505145428415,0.024845936227819585,stand
10/07/2020, 16:12:06,-1.0671989,0.27517462,9.786645,0.03297,0.0012211112,-0.009768889,9.848505145428415,0.03440847590628357,stand
10/07/2020, 16:12:07,-1.0408778,0.30149564,9.772287,0.007326667,0.0012211112,-0.009768889,9.832188295285395,0.012272015423632838,stand
10/07/2020, 16:12:07,-1.0408778,0.30149564,9.772287,0.01099,-0.0061055557,-0.0012211112,9.832188295285395,0.012631271906127598,stand
10/07/2020, 16:12:07,-1.0432707,0.27517462,9.765109,0.01099,-0.0061055557,-0.0012211112,9.82453509511668,0.012631271906127598,stand
10/07/2020, 16:12:07,-1.0432707,0.27517462,9.765109,0.034191113,-0.012211111,-0.0061055557,9.82453509511668,0.03681604618981221,stand
10/07/2020, 16:12:07,-1.0360922,0.27996024,9.812965,0.034191113,-0.012211111,-0.0061055557,9.871481880278765,0.03681604618981221,stand
10/07/2020, 16:12:07,-1.0360922,0.27996024,9.812965,0.04151778,-0.01099,-0.007326667,9.871481880278765,0.043568178200927316,stand
10/07/2020, 16:12:07,-1.0145568,0.3062813,9.848858,0.04151778,-0.01099,-0.007326667,9.905712250898764,0.043568178200927316,stand
10/07/2020, 16:12:07,-1.0145568,0.3062813,9.848858,0.02198,-0.0061055557,-0.0048844446,9.905712250898764,0.02332929571853399,stand
10/07/2020, 16:12:07,-1.0217353,0.3278167,9.84168,0.02198,-0.0061055557,-0.0048844446,9.90000321460082,0.02332929571853399,stand
10/07/2020, 16:12:07,-1.0217353,0.3278167,9.84168,0.0012211112,0.0,-0.01099,9.90000321460082,0.011057631740940412,stand
10/07/2020, 16:12:07,-1.026521,0.31106696,9.82493,0.0012211112,0.0,-0.01099,9.88330719982893,0.011057631740940412,stand
10/07/2020, 16:12:07,-1.026521,0.31106696,9.82493,0.018316668,-0.0048844446,-0.0048844446,9.88330719982893,0.019575901211198288,stand
10/07/2020, 16:12:07,-1.0145568,0.31106696,9.822537,0.018316668,-0.0048844446,-0.0048844446,9.879692783248027,0.019575901211198288,stand
10/07/2020, 16:12:07,-1.0145568,0.31106696,9.822537,0.037854444,-0.018316668,-0.0036633336,9.879692783248027,0.04221231183826173,stand
10/07/2020, 16:12:07,-0.9882358,0.30388847,9.8321085,0.037854444,-0.018316668,-0.0036633336,9.886319621148399,0.04221231183826173,stand
10/07/2020, 16:12:07,-0.9882358,0.30388847,9.8321085,0.034191113,-0.013432222,-0.008547778,9.886319621148399,0.037716326939029717,stand
10/07/2020, 16:12:07,-1.0073783,0.31345975,9.82493,0.034191113,-0.013432222,-0.008547778,9.881412925063616,0.037716326939029717,stand
10/07/2020, 16:12:07,-1.0073783,0.31345975,9.82493,0.008547778,-0.0012211112,-0.0061055557,9.881412925063616,0.010575132887019998,stand
10/07/2020, 16:12:07,-1.0360922,0.32303107,9.779466,0.008547778,-0.0012211112,-0.0061055557,9.839501254365192,0.010575132887019998,stand
10/07/2020, 16:12:07,-1.0360922,0.32303107,9.779466,0.008547778,-0.0036633336,-0.007326667,9.839501254365192,0.011839112218973567,stand
10/07/2020, 16:12:08,-1.0217353,0.30388847,9.834501,0.04396,-0.018316668,-0.0061055557,9.892103234771652,0.0480131214936587,stand
10/07/2020, 16:12:08,-1.0217353,0.30388847,9.834501,0.035412222,0.0024422223,-0.007326667,9.892103234771652,0.036244585519372464,stand
10/07/2020, 16:12:08,-1.0480564,0.31345975,9.810573,0.035412222,0.0024422223,-0.007326667,9.871373479635341,0.036244585519372464,stand
10/07/2020, 16:12:08,-1.0480564,0.31345975,9.810573,0.009768889,0.0024422223,-0.008547778,9.871373479635341,0.01320833678420628,stand
10/07/2020, 16:12:08,-1.0624132,0.3182454,9.772287,0.009768889,0.0024422223,-0.008547778,9.835019186572016,0.01320833678420628,stand
10/07/2020, 16:12:08,-1.0624132,0.3182454,9.772287,0.01099,-0.012211111,-0.008547778,9.835019186572016,0.018519067501027806,stand
10/07/2020, 16:12:08,-1.0049855,0.32063824,9.753145,0.01099,-0.012211111,-0.008547778,9.810027842979771,0.018519067501027806,stand
10/07/2020, 16:12:08,-1.0049855,0.32063824,9.753145,0.035412222,-0.017095556,-0.008547778,9.810027842979771,0.04024112376292363,stand
10/07/2020, 16:12:08,-1.0193424,0.33260235,9.769895,0.035412222,-0.017095556,-0.008547778,9.828556546726983,0.04024112376292363,stand
10/07/2020, 16:12:08,-1.0193424,0.33260235,9.769895,0.042738892,-0.0036633336,-0.007326667,9.828556546726983,0.043516812457421006,stand
10/07/2020, 16:12:08,-1.0408778,0.32063824,9.827323,0.042738892,-0.0036633336,-0.007326667,9.887492709122197,0.043516812457421006,stand
10/07/2020, 16:12:08,-1.0408778,0.32063824,9.827323,0.015874445,0.0048844446,-0.0061055557,9.887492709122197,0.017695582151860192,stand
10/07/2020, 16:12:08,-1.0313065,0.33260235,9.796216,0.015874445,0.0048844446,-0.0061055557,9.855965988540508,0.017695582151860192,stand
10/07/2020, 16:12:08,-1.0313065,0.33260235,9.796216,-0.0012211112,-0.0061055557,-0.0061055557,9.855965988540508,0.008720477794441328,stand
10/07/2020, 16:12:08,-1.026521,0.31585258,9.755538,-0.0012211112,-0.0061055557,-0.0061055557,9.814480605796398,0.008720477794441328,stand
10/07/2020, 16:12:08,-1.026521,0.31585258,9.755538,0.023201112,-0.018316668,-0.0036633336,9.814480605796398,0.0297861025757638,stand
10/07/2020, 16:12:08,-1.0049855,0.30149564,9.793823,0.023201112,-0.018316668,-0.0036633336,9.849866449813556,0.0297861025757638,stand
10/07/2020, 16:12:08,-1.0049855,0.30149564,9.793823,0.045181114,-0.015874445,-0.0061055557,9.849866449813556,0.04827638046684711,stand
10/07/2020, 16:12:08,-1.0336994,0.3182454,9.846465,0.045181114,-0.015874445,-0.0061055557,9.905689766745533,0.04827638046684711,stand
10/07/2020, 16:12:08,-1.0336994,0.3182454,9.846465,0.03174889,0.0,-0.009768889,9.905689766745533,0.03321781554798314,stand
10/07/2020, 16:12:09,-1.038485,0.31345975,9.801002,0.03174889,-0.0061055557,-0.0048844446,9.860848826333275,0.032697517973418425,stand
10/07/2020, 16:12:09,-1.0743774,0.28953153,9.77468,0.03174889,-0.0061055557,-0.0048844446,9.83780906171137,0.032697517973418425,stand
10/07/2020, 16:12:09,-1.0743774,0.28953153,9.77468,0.03052778,0.0036633336,-0.0036633336,9.83780906171137,0.03096425951978619,stand
10/07/2020, 16:12:09,-1.0863415,0.30867413,9.786645,0.03052778,0.0036633336,-0.0036633336,9.851590565360015,0.03096425951978619,stand
10/07/2020, 16:12:09,-1.0863415,0.30867413,9.786645,0.007326667,-0.0036633336,-0.012211111,9.851590565360015,0.014704125484485226,stand
10/07/2020, 16:12:09,-1.0289137,0.3278167,9.805787,0.007326667,-0.0036633336,-0.012211111,9.865069064525194,0.014704125484485226,stand
10/07/2020, 16:12:09,-1.0289137,0.3278167,9.805787,0.014653334,-0.014653334,-0.0036633336,9.865069064525194,0.02104424935189062,stand
10/07/2020, 16:12:09,-1.0097711,0.30867413,9.829716,0.014653334,-0.014653334,-0.0036633336,9.886264649332452,0.02104424935189062,stand
10/07/2020, 16:12:09,-1.0097711,0.30867413,9.829716,0.034191113,-0.013432222,-0.0061055557,9.886264649332452,0.0372388857937102,stand
10/07/2020, 16:12:09,-1.0169497,0.28713873,9.860822,0.034191113,-0.013432222,-0.0061055557,9.917279885116054,0.0372388857937102,stand
10/07/2020, 16:12:09,-1.0169497,0.28713873,9.860822,0.034191113,-0.0012211112,-0.012211111,9.917279885116054,0.03632677468849807,stand
10/07/2020, 16:12:09,-1.0289137,0.2847459,9.846465,0.034191113,-0.0012211112,-0.012211111,9.904171791887773,0.03632677468849807,stand
10/07/2020, 16:12:09,-1.0289137,0.2847459,9.846465,0.015874445,0.0,-0.0036633336,9.904171791887773,0.016291655257534142,stand
10/07/2020, 16:12:09,-0.997807,0.31345975,9.817751,0.015874445,0.0,-0.0036633336,9.873302852504716,0.016291655257534142,stand
10/07/2020, 16:12:09,-0.997807,0.31345975,9.817751,0.009768889,-0.009768889,-0.0061055557,9.873302852504716,0.01510431084153909,stand
10/07/2020, 16:12:09,-1.0360922,0.29910284,9.777073,0.009768889,-0.009768889,-0.0061055557,9.836366407261849,0.01510431084153909,stand
10/07/2020, 16:12:09,-1.0360922,0.29910284,9.777073,0.025643334,-0.013432222,-0.0036633336,9.836366407261849,0.02917919087563806,stand
10/07/2020, 16:12:09,-1.0552348,0.29910284,9.777073,0.025643334,-0.013432222,-0.0036633336,9.838401170473977,0.02917919087563806,stand
10/07/2020, 16:12:09,-1.0552348,0.29910284,9.777073,0.036633335,-0.0048844446,-0.0036633336,9.838401170473977,0.037138646309411855,stand
10/07/2020, 16:12:09,-1.0432707,0.2847459,9.798609,0.036633335,-0.0048844446,-0.0036633336,9.858104686938379,0.037138646309411855,stand
10/07/2020, 16:12:10,-1.0336994,0.29671,9.839287,0.04151778,-0.01099,0.0012211112,9.897885434957923,0.0429650696729127,stand
10/07/2020, 16:12:10,-1.0336994,0.29671,9.839287,0.019537779,0.0,-0.0061055557,9.897885434957923,0.02046955304219892,stand
10/07/2020, 16:12:10,-1.0624132,0.31345975,9.777073,0.019537779,0.0,-0.0061055557,9.83962059619343,0.02046955304219892,stand
10/07/2020, 16:12:10,-1.0624132,0.31345975,9.777073,0.0036633336,-0.0012211112,-0.0048844446,9.83962059619343,0.006226469705183319,stand
10/07/2020, 16:12:10,-1.0456635,0.3062813,9.741181,0.0036633336,-0.0012211112,-0.0048844446,9.801930161558307,0.006226469705183319,stand
10/07/2020, 16:12:10,-1.0456635,0.3062813,9.741181,0.018316668,0.0,-0.008547778,9.801930161558307,0.02021298647296504,stand
10/07/2020, 16:12:10,-1.0504491,0.32303107,9.772287,0.018316668,0.0,-0.008547778,9.833890017157708,0.02021298647296504,stand
10/07/2020, 16:12:10,-1.0504491,0.32303107,9.772287,0.039075557,-0.007326667,-0.0036633336,9.833890017157708,0.039924919928120896,stand
10/07/2020, 16:12:10,-1.0360922,0.30867413,9.793823,0.039075557,-0.007326667,-0.0036633336,9.853311138101695,0.039924919928120896,stand
10/07/2020, 16:12:10,-1.0360922,0.30867413,9.793823,0.034191113,-0.007326667,-0.007326667,9.853311138101695,0.03572663306612627,stand
10/07/2020, 16:12:10,-1.038485,0.3469593,9.801002,0.034191113,-0.007326667,-0.007326667,9.861970559140223,0.03572663306612627,stand
10/07/2020, 16:12:10,-1.038485,0.3469593,9.801002,0.012211111,-0.0061055557,-0.0061055557,9.861970559140223,0.014955496029542202,stand
10/07/2020, 16:12:10,-1.0408778,0.32542387,9.772287,0.012211111,-0.0061055557,-0.0061055557,9.832951120849543,0.014955496029542202,stand
10/07/2020, 16:12:10,-1.0408778,0.32542387,9.772287,0.014653334,-0.014653334,-0.0012211112,9.832951120849543,0.020758890389355227,stand
10/07/2020, 16:12:10,-1.026521,0.31345975,9.784252,0.014653334,-0.014653334,-0.0012211112,9.842946346321753,0.020758890389355227,stand
10/07/2020, 16:12:10,-1.026521,0.31345975,9.784252,0.03297,-0.014653334,-0.0024422223,9.842946346321753,0.03616221180437022,stand
10/07/2020, 16:12:10,-1.0504491,0.30867413,9.77468,0.03297,-0.014653334,-0.0024422223,9.835806773748045,0.03616221180437022,stand
10/07/2020, 16:12:10,-1.0504491,0.30867413,9.77468,0.037854444,-0.0061055557,-0.0036633336,9.835806773748045,0.03851826542934823,stand
10/07/2020, 16:12:10,-1.0624132,0.2943172,9.777073,0.037854444,-0.0061055557,-0.0036633336,9.839029376191839,0.03851826542934823,stand
10/07/2020, 16:12:10,-1.0624132,0.2943172,9.777073,0.015874445,0.0012211112,-0.007326667,9.839029376191839,0.017526242685166865,stand
10/07/2020, 16:12:11,-1.0456635,0.31106696,9.79143,0.051286668,-0.013432222,-0.0061055557,9.852019359995504,0.053366887499277336,stand
10/07/2020, 16:12:11,-1.0624132,0.3182454,9.77468,0.051286668,-0.013432222,-0.0061055557,9.837396697063394,0.053366887499277336,stand
10/07/2020, 16:12:11,-1.0624132,0.3182454,9.77468,0.024422223,0.0024422223,-0.0061055557,9.837396697063394,0.02529203874913717,stand
10/07/2020, 16:12:11,-1.0671989,0.3493521,9.793823,0.024422223,0.0024422223,-0.0061055557,9.857988335187338,0.02529203874913717,stand
10/07/2020, 16:12:11,-1.0671989,0.3493521,9.793823,-0.0036633336,0.0061055557,-0.008547778,9.857988335187338,0.011124852186227722,stand
10/07/2020, 16:12:11,-1.0480564,0.32303107,9.779466,-0.0036633336,0.0061055557,-0.008547778,9.840768268202835,0.011124852186227722,stand
10/07/2020, 16:12:11,-1.0480564,0.32303107,9.779466,0.01099,-0.013432222,-0.0061055557,9.840768268202835,0.01839789435232852,stand
10/07/2020, 16:12:11,-1.0169497,0.28953153,9.805787,0.01099,-0.013432222,-0.0061055557,9.862630252107019,0.01839789435232852,stand
10/07/2020, 16:12:11,-1.0169497,0.28953153,9.805787,0.046402223,-0.02075889,-0.0048844446,9.862630252107019,0.0510681469681959,stand
10/07/2020, 16:12:11,-1.0145568,0.27996024,9.846465,0.046402223,-0.02075889,-0.0048844446,9.902554132497414,0.0510681469681959,stand
10/07/2020, 16:12:11,-1.0145568,0.27996024,9.846465,0.04396,-0.009768889,0.0,9.902554132497414,0.04503235407901891,stand
10/07/2020, 16:12:11,-1.0193424,0.32542387,9.822537,0.04396,-0.009768889,0.0,9.88064780656121,0.04503235407901891,stand
10/07/2020, 16:12:11,-1.0193424,0.32542387,9.822537,0.009768889,0.0024422223,-0.007326667,9.88064780656121,0.012452939410366638,stand
10/07/2020, 16:12:11,-1.0336994,0.3278167,9.779466,0.009768889,0.0024422223,-0.007326667,9.839407864123894,0.012452939410366638,stand
10/07/2020, 16:12:11,-1.0336994,0.3278167,9.779466,-0.0036633336,-0.007326667,-0.007326667,9.839407864123894,0.010990000795572996,stand
10/07/2020, 16:12:11,-1.0145568,0.32542387,9.755538,-0.0036633336,-0.007326667,-0.007326667,9.813549181333823,0.010990000795572996,stand
10/07/2020, 16:12:11,-1.0145568,0.32542387,9.755538,0.035412222,-0.018316668,-0.0024422223,9.813549181333823,0.03994358817817948,stand
10/07/2020, 16:12:11,-1.0313065,0.30867413,9.789038,0.035412222,-0.018316668,-0.0024422223,9.8480521933914,0.03994358817817948,stand
10/07/2020, 16:12:11,-1.0313065,0.30867413,9.789038,0.048844445,-0.009768889,-0.007326667,9.8480521933914,0.05034770209235687,stand
10/07/2020, 16:12:11,-1.0911272,0.29671,9.803394,0.048844445,-0.009768889,-0.007326667,9.868390722539113,0.05034770209235687,stand
10/07/2020, 16:12:12,-1.026521,0.30149564,9.805787,0.007326667,0.0012211112,-0.0036633336,9.863980195844896,0.008281979095432419,stand
10/07/2020, 16:12:12,-1.0624132,0.29192436,9.74836,0.007326667,0.0012211112,-0.0036633336,9.810425991020429,0.008281979095432419,stand
10/07/2020, 16:12:12,-1.0624132,0.29192436,9.74836,0.0061055557,-0.0036633336,-0.007326667,9.810425991020429,0.010216549100291232,stand
10/07/2020, 16:12:12,-1.0624132,0.27756742,9.757931,0.0061055557,-0.0036633336,-0.007326667,9.819520260318507,0.010216549100291232,stand
10/07/2020, 16:12:12,-1.0624132,0.27756742,9.757931,0.035412222,-0.025643334,-0.0061055557,9.819520260318507,0.044146164676436304,stand
10/07/2020, 16:12:12,-1.0336994,0.30388847,9.798609,0.035412222,-0.025643334,-0.0061055557,9.857667911807834,0.044146164676436304,stand
10/07/2020, 16:12:12,-1.0336994,0.30388847,9.798609,0.047623336,-0.015874445,-0.0061055557,9.857667911807834,0.05056933843754436,stand
10/07/2020, 16:12:12,-1.0241281,0.32063824,9.84168,0.047623336,-0.015874445,-0.0061055557,9.900015354653165,0.05056933843754436,stand
10/07/2020, 16:12:12,-1.0241281,0.32063824,9.84168,0.02075889,0.0,-0.0012211112,9.900015354653165,0.020794773635141855,stand
10/07/2020, 16:12:12,-1.052842,0.31585258,9.817751,0.02075889,0.0,-0.0012211112,9.879092696900578,0.020794773635141855,stand
10/07/2020, 16:12:12,-1.052842,0.31585258,9.817751,-0.0036633336,0.0024422223,-0.007326667,9.879092696900578,0.008547778374382429,stand
10/07/2020, 16:12:12,-1.038485,0.30388847,9.726824,-0.0036633336,0.0024422223,-0.007326667,9.786822812816041,0.008547778374382429,stand
10/07/2020, 16:12:12,-1.038485,0.30388847,9.726824,0.018316668,-0.012211111,-0.0024422223,9.786822812816041,0.02214895031719291,stand
10/07/2020, 16:12:12,-1.0289137,0.26081768,9.760324,0.018316668,-0.012211111,-0.0024422223,9.817871696033738,0.02214895031719291,stand
10/07/2020, 16:12:12,-1.0289137,0.26081768,9.760324,0.05250778,-0.019537779,-0.0048844446,9.817871696033738,0.05623743951493506,stand
10/07/2020, 16:12:12,-1.0145568,0.29910284,9.810573,0.05250778,-0.019537779,-0.0048844446,9.867427382856317,0.05623743951493506,stand
10/07/2020, 16:12:12,-1.0145568,0.29910284,9.810573,0.04029667,-0.009768889,-0.008547778,9.867427382856317,0.04233576889357729,stand
10/07/2020, 16:12:12,-1.0241281,0.30149564,9.815358,0.04029667,-0.009768889,-0.008547778,9.873246365393856,0.04233576889357729,stand
10/07/2020, 16:12:12,-1.0241281,0.30149564,9.815358,0.0048844446,0.0012211112,-0.007326667,9.873246365393856,0.008889823628835239,stand
10/07/2020, 16:12:12,-1.0360922,0.30388847,9.80818,0.0048844446,0.0012211112,-0.007326667,9.86743265725282,0.008889823628835239,stand
10/07/2020, 16:12:13,-1.0097711,0.27996024,9.834501,0.025643334,-0.0024422223,-0.0048844446,9.890168380312153,0.026218367938126968,stand
10/07/2020, 16:12:13,-1.0217353,0.30867413,9.820144,0.025643334,-0.0024422223,-0.0048844446,9.877977781060544,0.026218367938126968,stand
10/07/2020, 16:12:13,-1.0217353,0.30867413,9.820144,-0.0012211112,-0.008547778,-0.008547778,9.877977781060544,0.012149902805904233,stand
10/07/2020, 16:12:13,-1.0336994,0.2943172,9.769895,-0.0012211112,-0.008547778,-0.008547778,9.828835003956208,0.012149902805904233,stand
10/07/2020, 16:12:13,-1.0336994,0.2943172,9.769895,0.008547778,-0.009768889,-0.01099,9.828835003956208,0.01700811035915814,stand
10/07/2020, 16:12:13,-1.0360922,0.28953153,9.762716,0.008547778,-0.009768889,-0.01099,9.821809654989034,0.01700811035915814,stand
10/07/2020, 16:12:13,-1.0360922,0.28953153,9.762716,0.04151778,-0.01099,-0.0036633336,9.821809654989034,0.043103667043367974,stand
10/07/2020, 16:12:13,-1.0336994,0.29910284,9.77468,0.04151778,-0.01099,-0.0036633336,9.833736255324803,0.043103667043367974,stand
10/07/2020, 16:12:13,-1.0336994,0.29910284,9.77468,0.042738892,-0.0036633336,-0.0024422223,9.833736255324803,0.042965071443036344,stand
10/07/2020, 16:12:13,-1.0313065,0.31345975,9.793823,0.042738892,-0.0036633336,-0.0024422223,9.852960155418177,0.042965071443036344,stand
10/07/2020, 16:12:13,-1.0313065,0.31345975,9.793823,0.01099,0.0,-0.0061055557,9.852960155418177,0.012572108713327883,stand
10/07/2020, 16:12:13,-1.0313065,0.32542387,9.784252,0.01099,0.0,-0.0061055557,9.843834835219603,0.012572108713327883,stand
10/07/2020, 16:12:13,-1.0313065,0.32542387,9.784252,-0.0024422223,-0.0024422223,-0.007326667,9.843834835219603,0.008099935305337718,stand
10/07/2020, 16:12:13,-1.0624132,0.32063824,9.760324,-0.0024422223,-0.0024422223,-0.007326667,9.823209558170774,0.008099935305337718,stand
10/07/2020, 16:12:13,-1.0624132,0.32063824,9.760324,0.019537779,-0.008547778,-0.0024422223,9.823209558170774,0.021465175383149248,stand
10/07/2020, 16:12:13,-1.012164,0.30149564,9.793823,0.019537779,-0.008547778,-0.0024422223,9.850601467790991,0.021465175383149248,stand
10/07/2020, 16:12:13,-1.012164,0.30149564,9.793823,0.04029667,-0.014653334,-0.0061055557,9.850601467790991,0.04331073349859194,stand
10/07/2020, 16:12:13,-0.9834501,0.27756742,9.84168,0.04029667,-0.014653334,-0.0061055557,9.894588147951806,0.04331073349859194,stand
10/07/2020, 16:12:13,-0.9834501,0.27756742,9.84168,0.024422223,-0.007326667,-0.009768889,9.894588147951806,0.027304875280130758,stand
10/07/2020, 16:12:13,-0.9834501,0.29671,9.846465,0.024422223,-0.007326667,-0.009768889,9.899903339859057,0.027304875280130758,stand
10/07/2020, 16:12:14,-1.0313065,0.30388847,9.798609,0.036633335,-0.0048844446,-0.0061055557,9.857417274900593,0.037458468293428505,stand
10/07/2020, 16:12:14,-1.0576276,0.2943172,9.77468,0.036633335,-0.0048844446,-0.0061055557,9.836135951271958,0.037458468293428505,stand
10/07/2020, 16:12:14,-1.0576276,0.2943172,9.77468,0.02075889,-0.008547778,-0.0036633336,9.836135951271958,0.022746780519166614,stand
10/07/2020, 16:12:14,-1.052842,0.28713873,9.777073,0.02075889,-0.008547778,-0.0036633336,9.837788348530985,0.022746780519166614,stand
10/07/2020, 16:12:14,-1.052842,0.28713873,9.777073,0.009768889,-0.012211111,-0.0048844446,9.837788348530985,0.0163829252069518,stand
10/07/2020, 16:12:14,-1.0289137,0.32063824,9.772287,0.009768889,-0.012211111,-0.0048844446,9.831534609373001,0.0163829252069518,stand
10/07/2020, 16:12:14,-1.0289137,0.32063824,9.772287,0.019537779,-0.008547778,-0.007326667,9.831534609373001,0.022549265100630034,stand
10/07/2020, 16:12:14,-1.038485,0.2727818,9.750752,0.019537779,-0.008547778,-0.007326667,9.80969084255165,0.022549265100630034,stand
10/07/2020, 16:12:14,-1.038485,0.2727818,9.750752,0.03174889,-0.0024422223,-0.008547778,9.80969084255165,0.0329700020417847,stand
10/07/2020, 16:12:14,-1.0552348,0.3182454,9.743574,0.03174889,-0.0024422223,-0.008547778,9.805714541674952,0.0329700020417847,stand
10/07/2020, 16:12:14,-1.0552348,0.3182454,9.743574,0.025643334,0.0,-0.008547778,9.805714541674952,0.027030447293121113,stand
10/07/2020, 16:12:14,-1.0624132,0.3278167,9.750752,0.025643334,0.0,-0.008547778,9.813936974967767,0.027030447293121113,stand
10/07/2020, 16:12:14,-1.0624132,0.3278167,9.750752,0.015874445,-0.0048844446,-0.009768889,9.813936974967767,0.019268809390300626,stand
10/07/2020, 16:12:14,-1.052842,0.3062813,9.757931,0.015874445,-0.0048844446,-0.009768889,9.819343011947883,0.019268809390300626,stand
10/07/2020, 16:12:14,-1.052842,0.3062813,9.757931,0.013432222,-0.007326667,-0.0061055557,9.819343011947883,0.016473689980216668,stand
10/07/2020, 16:12:14,-1.0289137,0.29192436,9.784252,0.013432222,-0.007326667,-0.0061055557,9.84253391001533,0.016473689980216668,stand
10/07/2020, 16:12:14,-1.0289137,0.29192436,9.784252,0.029306669,-0.01099,-0.0024422223,9.84253391001533,0.03139467140422999,stand
10/07/2020, 16:12:14,-1.0289137,0.30149564,9.805787,0.029306669,-0.01099,-0.0024422223,9.8642294926757,0.03139467140422999,stand
10/07/2020, 16:12:14,-1.0289137,0.30149564,9.805787,0.034191113,-0.009768889,-0.0061055557,9.8642294926757,0.036079650967436816,stand
10/07/2020, 16:12:14,-1.0193424,0.31585258,9.82493,0.034191113,-0.009768889,-0.0061055557,9.882715977246926,0.036079650967436816,stand
10/07/2020, 16:12:15,-1.0504491,0.30388847,9.805787,0.029306669,-0.014653334,-0.009768889,9.86657245290996,0.034191113497529714,stand
10/07/2020, 16:12:15,-1.0504491,0.30388847,9.805787,0.028085556,-0.0048844446,-0.008547778,9.86657245290996,0.029761061162049293,stand
10/07/2020, 16:12:15,-1.0624132,0.31345975,9.786645,0.028085556,-0.0048844446,-0.008547778,9.849131837567823,0.029761061162049293,stand
10/07/2020, 16:12:15,-1.0624132,0.31345975,9.786645,0.019537779,0.0,-0.0061055557,9.849131837567823,0.02046955304219892,stand
10/07/2020, 16:12:15,-1.0504491,0.33738798,9.736395,0.019537779,0.0,-0.0061055557,9.798707023450465,0.02046955304219892,stand
10/07/2020, 16:12:15,-1.0504491,0.33738798,9.736395,0.019537779,-0.0061055557,-0.0048844446,9.798707023450465,0.021044248649359998,stand
10/07/2020, 16:12:15,-1.0169497,0.3278167,9.779466,0.019537779,-0.0061055557,-0.0048844446,9.837662287298768,0.021044248649359998,stand
10/07/2020, 16:12:15,-1.0169497,0.3278167,9.779466,0.023201112,-0.0048844446,-0.0048844446,9.837662287298768,0.024207585241903643,stand
10/07/2020, 16:12:15,-1.0241281,0.30867413,9.812965,0.023201112,-0.0048844446,-0.0048844446,9.871089496360511,0.024207585241903643,stand
10/07/2020, 16:12:15,-1.0241281,0.30867413,9.812965,0.03052778,-0.0061055557,-0.009768889,9.871089496360511,0.032629041506357044,stand
10/07/2020, 16:12:15,-1.0336994,0.30149564,9.829716,0.03052778,-0.0061055557,-0.009768889,9.888515832302856,0.032629041506357044,stand
10/07/2020, 16:12:15,-1.0336994,0.30149564,9.829716,0.028085556,-0.008547778,-0.0061055557,9.888515832302856,0.0299856761182872,stand
10/07/2020, 16:12:15,-1.0193424,0.3182454,9.834501,0.028085556,-0.008547778,-0.0061055557,9.892307833677446,0.0299856761182872,stand
10/07/2020, 16:12:15,-1.0193424,0.3182454,9.834501,0.019537779,-0.014653334,-0.008547778,9.892307833677446,0.02587488189784484,stand
10/07/2020, 16:12:15,-1.0313065,0.30149564,9.829716,0.019537779,-0.014653334,-0.008547778,9.888265977294859,0.02587488189784484,stand
10/07/2020, 16:12:15,-1.0313065,0.30149564,9.829716,0.02075889,-0.018316668,-0.008547778,9.888265977294859,0.02897406288780131,stand
10/07/2020, 16:12:15,-1.0217353,0.29910284,9.822537,0.02075889,-0.018316668,-0.008547778,9.880063105341968,0.02897406288780131,stand
10/07/2020, 16:12:15,-1.0217353,0.29910284,9.822537,0.028085556,-0.0048844446,-0.0061055557,9.880063105341968,0.029153628571353705,stand
10/07/2020, 16:12:15,-1.0504491,0.29671,9.80818,0.028085556,-0.0048844446,-0.0061055557,9.868732050688727,0.029153628571353705,stand
10/07/2020, 16:12:15,-1.0504491,0.29671,9.80818,0.026864445,-0.0024422223,-0.0048844446,9.868732050688727,0.027413876882606287,stand
10/07/2020, 16:12:16,-1.0313065,0.32542387,9.772287,0.012211111,-0.0012211112,-0.0061055557,9.8319425455236,0.013706938524271952,stand
10/07/2020, 16:12:16,-1.0313065,0.32542387,9.772287,0.0036633336,-0.01099,-0.009768889,9.8319425455236,0.015153590933515284,stand
10/07/2020, 16:12:16,-0.9906286,0.31106696,9.781859,0.0036633336,-0.01099,-0.009768889,9.836812540357124,0.015153590933515284,stand
10/07/2020, 16:12:16,-0.9906286,0.31106696,9.781859,0.03052778,-0.015874445,-0.008547778,9.836812540357124,0.03545430682356998,stand
10/07/2020, 16:12:16,-1.0169497,0.29910284,9.77468,0.03052778,-0.015874445,-0.008547778,9.831989671559198,0.03545430682356998,stand
10/07/2020, 16:12:16,-1.0169497,0.29910284,9.77468,0.04029667,-0.01099,-0.0036633336,9.831989671559198,0.041928769805207496,stand
10/07/2020, 16:12:16,-1.0289137,0.3182454,9.822537,0.04029667,-0.01099,-0.0036633336,9.881406024880123,0.041928769805207496,stand
10/07/2020, 16:12:16,-1.0289137,0.3182454,9.822537,0.02198,-0.007326667,-0.0036633336,9.881406024880123,0.02345677928182435,stand
10/07/2020, 16:12:16,-1.0169497,0.3182454,9.789038,0.02198,-0.007326667,-0.0036633336,9.846863760562133,0.02345677928182435,stand
10/07/2020, 16:12:16,-1.0169497,0.3182454,9.789038,0.0024422223,-0.0012211112,-0.007326667,9.846863760562133,0.007818926687869385,stand
10/07/2020, 16:12:16,-1.026521,0.31345975,9.779466,0.0024422223,-0.0012211112,-0.007326667,9.838188410956665,0.007818926687869385,stand
10/07/2020, 16:12:16,-1.026521,0.31345975,9.779466,0.015874445,0.0036633336,-0.007326667,9.838188410956665,0.017863316692222887,stand
10/07/2020, 16:12:16,-1.0552348,0.2943172,9.769895,0.015874445,0.0036633336,-0.007326667,9.83112320953457,0.017863316692222887,stand
10/07/2020, 16:12:16,-1.0552348,0.2943172,9.769895,0.03297,0.0012211112,-0.013432222,9.83112320953457,0.03562213659254907,stand
10/07/2020, 16:12:16,-1.0552348,0.33260235,9.769895,0.03297,0.0012211112,-0.013432222,9.832343834490215,0.03562213659254907,stand
10/07/2020, 16:12:16,-1.0552348,0.33260235,9.769895,0.03297,-0.01099,-0.01099,9.832343834490215,0.03644970669778624,stand
10/07/2020, 16:12:16,-1.0241281,0.32303107,9.798609,0.03297,-0.01099,-0.01099,9.857277586408689,0.03644970669778624,stand
10/07/2020, 16:12:16,-1.0241281,0.32303107,9.798609,0.014653334,-0.008547778,-0.007326667,9.857277586408689,0.01847876548756999,stand
10/07/2020, 16:12:16,-1.0073783,0.32542387,9.798609,0.014653334,-0.008547778,-0.007326667,9.855630159152797,0.01847876548756999,stand
10/07/2020, 16:12:16,-1.0073783,0.32542387,9.798609,0.013432222,-0.0048844446,-0.008547778,9.855630159152797,0.016653735659949234,stand
10/07/2020, 16:12:17,-1.052842,0.31345975,9.812965,0.007326667,-0.0036633336,-0.0048844446,9.874260637842692,0.00953718327070845,stand
10/07/2020, 16:12:17,-1.052842,0.31345975,9.812965,0.029306669,-0.012211111,-0.01099,9.874260637842692,0.03359720499841473,stand
10/07/2020, 16:12:17,-1.0193424,0.32063824,9.827323,0.029306669,-0.012211111,-0.01099,9.885248829089187,0.03359720499841473,stand
10/07/2020, 16:12:17,-1.0193424,0.32063824,9.827323,0.042738892,-0.019537779,-0.0048844446,9.885248829089187,0.04724611615944511,stand
10/07/2020, 16:12:17,-0.997807,0.2943172,9.868001,0.042738892,-0.019537779,-0.0048844446,9.922685366919078,0.04724611615944511,stand
10/07/2020, 16:12:17,-0.997807,0.2943172,9.868001,0.024422223,-0.008547778,-0.0061055557,9.922685366919078,0.026585471353424324,stand
10/07/2020, 16:12:17,-1.0193424,0.36131623,9.846465,0.024422223,-0.008547778,-0.0061055557,9.905679359484793,0.026585471353424324,stand
10/07/2020, 16:12:17,-1.0193424,0.36131623,9.846465,0.0048844446,-0.0048844446,-0.0048844446,9.905679359484793,0.008460106288108024,stand
10/07/2020, 16:12:17,-1.0241281,0.31585258,9.753145,0.0048844446,-0.0048844446,-0.0048844446,9.811852160435677,0.008460106288108024,stand
10/07/2020, 16:12:17,-1.0241281,0.31585258,9.753145,0.013432222,-0.009768889,-0.0048844446,9.811852160435677,0.017312238342952122,stand
10/07/2020, 16:12:17,-1.0336994,0.31585258,9.753145,0.013432222,-0.009768889,-0.0048844446,9.812855798943191,0.017312238342952122,stand
10/07/2020, 16:12:17,-1.0336994,0.31585258,9.753145,0.04029667,-0.014653334,-0.008547778,9.812855798943191,0.043721920575391496,stand
10/07/2020, 16:12:17,-1.0001999,0.30388847,9.757931,0.04029667,-0.014653334,-0.008547778,9.813763839703071,0.043721920575391496,stand
10/07/2020, 16:12:17,-1.0001999,0.30388847,9.757931,0.03297,-0.009768889,-0.007326667,9.813763839703071,0.03515867110604171,stand
10/07/2020, 16:12:17,-1.0552348,0.3062813,9.765109,0.03297,-0.009768889,-0.007326667,9.826733113909967,0.03515867110604171,stand
10/07/2020, 16:12:17,-1.0552348,0.3062813,9.765109,0.008547778,0.007326667,-0.01099,9.826733113909967,0.01573291684115922,stand
10/07/2020, 16:12:17,-1.0887343,0.29910284,9.738789,0.008547778,0.007326667,-0.01099,9.804020007482764,0.01573291684115922,stand
10/07/2020, 16:12:17,-1.0887343,0.29910284,9.738789,0.0061055557,0.0036633336,-0.0061055557,9.804020007482764,0.009379532693616889,stand
10/07/2020, 16:12:17,-1.0480564,0.2943172,9.750752,0.0061055557,0.0036633336,-0.0061055557,9.811331105947028,0.009379532693616889,stand
10/07/2020, 16:12:17,-1.0480564,0.2943172,9.750752,0.03174889,-0.018316668,-0.0061055557,9.811331105947028,0.03715871622441403,stand
10/07/2020, 16:12:18,-1.0504491,0.31345975,9.726824,0.015874445,-0.013432222,-0.007326667,9.788401389707516,0.02204773614891738,stand
10/07/2020, 16:12:18,-1.0360922,0.3062813,9.769895,0.015874445,-0.013432222,-0.007326667,9.829452461638969,0.02204773614891738,stand
10/07/2020, 16:12:18,-1.0360922,0.3062813,9.769895,0.046402223,-0.019537779,-0.0048844446,9.829452461638969,0.05058407781302708,stand
10/07/2020, 16:12:18,-1.0336994,0.3062813,9.803394,0.046402223,-0.019537779,-0.0048844446,9.862498811978693,0.05058407781302708,stand
10/07/2020, 16:12:18,-1.0336994,0.3062813,9.803394,0.04151778,-0.0048844446,-0.0036633336,9.862498811978693,0.041964315850526644,stand
10/07/2020, 16:12:18,-1.0408778,0.33499518,9.817751,0.04151778,-0.0048844446,-0.0036633336,9.878455433114826,0.041964315850526644,stand
10/07/2020, 16:12:18,-1.0408778,0.33499518,9.817751,0.008547778,0.0036633336,-0.0061055557,9.878455433114826,0.011124852186227722,stand
10/07/2020, 16:12:18,-1.0600204,0.33499518,9.786645,0.008547778,0.0036633336,-0.0061055557,9.849582946202142,0.011124852186227722,stand
10/07/2020, 16:12:18,-1.0600204,0.33499518,9.786645,0.0024422223,-0.01099,-0.0048844446,9.849582946202142,0.01227201518037393,stand
10/07/2020, 16:12:18,-1.0217353,0.31585258,9.741181,0.0024422223,-0.01099,-0.0048844446,9.799710222857335,0.01227201518037393,stand
10/07/2020, 16:12:18,-1.0217353,0.31585258,9.741181,0.035412222,-0.02198,-0.008547778,9.799710222857335,0.04254656765541167,stand
10/07/2020, 16:12:18,-1.0217353,0.3182454,9.793823,0.035412222,-0.02198,-0.008547778,9.85211636581791,0.04254656765541167,stand
10/07/2020, 16:12:18,-1.0217353,0.3182454,9.793823,0.047623336,-0.007326667,-0.01099,9.85211636581791,0.04942107163198844,stand
10/07/2020, 16:12:18,-1.0504491,0.2943172,9.789038,0.047623336,-0.007326667,-0.01099,9.849635788507422,0.04942107163198844,stand
10/07/2020, 16:12:18,-1.0504491,0.2943172,9.789038,0.017095556,0.007326667,-0.007326667,9.849635788507422,0.019990451617831702,stand
10/07/2020, 16:12:18,-1.0624132,0.29671,9.769895,0.017095556,0.007326667,-0.007326667,9.831968224461045,0.019990451617831702,stand
10/07/2020, 16:12:18,-1.0624132,0.29671,9.769895,-0.007326667,-0.0024422223,-0.012211111,9.831968224461045,0.01444838202279357,stand
10/07/2020, 16:12:18,-1.0193424,0.2943172,9.734002,-0.007326667,-0.0024422223,-0.012211111,9.791653523421566,0.01444838202279357,stand
10/07/2020, 16:12:18,-1.0193424,0.2943172,9.734002,0.023201112,-0.02075889,-0.0048844446,9.791653523421566,0.03151318584093543,stand
10/07/2020, 16:12:18,-1.0480564,0.31585258,9.767502,0.023201112,-0.02075889,-0.0048844446,9.828645736608145,0.03151318584093543,stand
10/07/2020, 16:12:19,-1.026521,0.31345975,9.801002,0.019537779,-0.014653334,-0.0048844446,9.859596019766215,0.024905878820733276,stand
10/07/2020, 16:12:19,-1.026521,0.31345975,9.801002,0.04151778,-0.018316668,0.0,9.859596019766215,0.04537869876465382,stand
10/07/2020, 16:12:19,-1.0576276,0.32542387,9.836894,0.04151778,-0.018316668,0.0,9.898937367633387,0.04537869876465382,stand
10/07/2020, 16:12:19,-1.0576276,0.32542387,9.836894,0.034191113,-0.0061055557,-0.007326667,9.898937367633387,0.035496338800974865,stand
10/07/2020, 16:12:19,-1.0504491,0.30388847,9.848858,0.034191113,-0.0061055557,-0.007326667,9.909379047969193,0.035496338800974865,stand
10/07/2020, 16:12:19,-1.0504491,0.30388847,9.848858,0.008547778,-0.0048844446,-0.007326667,9.909379047969193,0.01227201550471914,stand
10/07/2020, 16:12:19,-1.0169497,0.33738798,9.805787,0.008547778,-0.0048844446,-0.007326667,9.864151135901912,0.01227201550471914,stand
10/07/2020, 16:12:19,-1.0169497,0.33738798,9.805787,0.014653334,-0.014653334,-0.0048844446,9.864151135901912,0.021290801234316346,stand
10/07/2020, 16:12:19,-1.0145568,0.33260235,9.815358,0.014653334,-0.014653334,-0.0048844446,9.873257091857823,0.021290801234316346,stand
10/07/2020, 16:12:19,-1.0145568,0.33260235,9.815358,0.037854444,-0.012211111,-0.007326667,9.873257091857823,0.04044440927486493,stand
10/07/2020, 16:12:19,-1.0432707,0.3278167,9.801002,0.037854444,-0.012211111,-0.007326667,9.861820770668851,0.04044440927486493,stand
10/07/2020, 16:12:19,-1.0432707,0.3278167,9.801002,0.039075557,0.0,-0.0024422223,9.861820770668851,0.039151802204542924,stand
10/07/2020, 16:12:19,-1.0600204,0.32303107,9.781859,0.039075557,0.0,-0.0024422223,9.84442815497348,0.039151802204542924,stand
10/07/2020, 16:12:19,-1.0600204,0.32303107,9.781859,0.012211111,0.0036633336,-0.008547778,9.84442815497348,0.015349129190616711,stand
10/07/2020, 16:12:19,-1.038485,0.33738798,9.745967,0.012211111,0.0036633336,-0.008547778,9.806944115490356,0.015349129190616711,stand
10/07/2020, 16:12:19,-1.038485,0.33738798,9.745967,0.0061055557,-0.01099,-0.0036633336,9.806944115490356,0.013094958211228172,stand
10/07/2020, 16:12:19,-1.038485,0.31345975,9.757931,0.0061055557,-0.01099,-0.0036633336,9.818040580902338,0.013094958211228172,stand
10/07/2020, 16:12:19,-1.038485,0.31345975,9.757931,0.025643334,-0.017095556,-0.007326667,9.818040580902338,0.03167836283130327,stand
10/07/2020, 16:12:19,-1.0504491,0.29671,9.793823,0.025643334,-0.017095556,-0.007326667,9.854463654236824,0.03167836283130327,stand
10/07/2020, 16:12:19,-1.0504491,0.29671,9.793823,0.046402223,-0.013432222,-0.007326667,9.854463654236824,0.048859707208932186,stand
10/07/2020, 16:12:20,-1.0145568,0.29671,9.815358,0.014653334,-0.009768889,-0.0048844446,9.87211315322309,0.018275918751425622,stand
10/07/2020, 16:12:20,-1.0408778,0.2656033,9.803394,0.014653334,-0.009768889,-0.0048844446,9.862074421547515,0.018275918751425622,stand
10/07/2020, 16:12:20,-1.0408778,0.2656033,9.803394,0.035412222,-0.009768889,-0.0061055557,9.862074421547515,0.037238884052971793,stand
10/07/2020, 16:12:20,-1.0504491,0.2943172,9.762716,0.035412222,-0.009768889,-0.0061055557,9.823476747613466,0.037238884052971793,stand
10/07/2020, 16:12:20,-1.0504491,0.2943172,9.762716,0.03052778,-0.0048844446,-0.012211111,9.823476747613466,0.033240252435297664,stand
10/07/2020, 16:12:20,-1.0504491,0.30867413,9.77468,0.03052778,-0.0048844446,-0.012211111,9.835806773748045,0.033240252435297664,stand
10/07/2020, 16:12:20,-1.0504491,0.30867413,9.77468,0.013432222,0.0012211112,-0.008547778,9.835806773748045,0.015968100213537086,stand
10/07/2020, 16:12:20,-1.0480564,0.3182454,9.77468,0.013432222,0.0012211112,-0.008547778,9.835856550238962,0.015968100213537086,stand
10/07/2020, 16:12:20,-1.0480564,0.3182454,9.77468,0.013432222,-0.007326667,-0.0024422223,9.835856550238962,0.015494163455417313,stand
10/07/2020, 16:12:20,-1.0289137,0.28713873,9.781859,0.013432222,-0.007326667,-0.0024422223,9.840014502393817,0.015494163455417313,stand
10/07/2020, 16:12:20,-1.0289137,0.28713873,9.781859,0.028085556,-0.014653334,-0.0036633336,9.840014502393817,0.03188947586710691,stand
10/07/2020, 16:12:20,-1.0360922,0.30149564,9.796216,0.028085556,-0.014653334,-0.0036633336,9.855467250483764,0.03188947586710691,stand
10/07/2020, 16:12:20,-1.0360922,0.30149564,9.796216,0.04029667,-0.008547778,-0.007326667,9.855467250483764,0.04183976795050273,stand
10/07/2020, 16:12:20,-1.026521,0.33020952,9.805787,0.04029667,-0.008547778,-0.007326667,9.864899594601304,0.04183976795050273,stand
10/07/2020, 16:12:20,-1.026521,0.33020952,9.805787,0.025643334,-0.007326667,-0.007326667,9.864899594601304,0.02765756085477809,stand
10/07/2020, 16:12:20,-1.012164,0.33020952,9.82493,0.025643334,-0.007326667,-0.007326667,9.882447447084589,0.02765756085477809,stand
10/07/2020, 16:12:20,-1.012164,0.33020952,9.82493,0.01099,-0.007326667,-0.012211111,9.882447447084589,0.017988090517363706,stand
10/07/2020, 16:12:20,-1.0193424,0.29910284,9.810573,0.01099,-0.007326667,-0.012211111,9.867920586409522,0.017988090517363706,stand
10/07/2020, 16:12:20,-1.0193424,0.29910284,9.810573,0.014653334,-0.014653334,-0.0061055557,9.867920586409522,0.021603662374207456,stand
10/07/2020, 16:12:20,-1.0289137,0.31345975,9.777073,0.014653334,-0.014653334,-0.0061055557,9.836059938466697,0.021603662374207456,stand
10/07/2020, 16:12:21,-1.0049855,0.28235307,9.789038,0.039075557,-0.019537779,-0.0061055557,9.844540527401568,0.04411237658235922,stand
10/07/2020, 16:12:21,-1.0241281,0.29671,9.853643,0.039075557,-0.019537779,-0.0061055557,9.91116359223815,0.04411237658235922,stand
10/07/2020, 16:12:21,-1.0241281,0.29671,9.853643,0.036633335,-0.009768889,-0.007326667,9.91116359223815,0.038614925705792925,stand
10/07/2020, 16:12:21,-1.012164,0.32063824,9.860822,0.036633335,-0.009768889,-0.007326667,9.917816791413875,0.038614925705792925,stand
10/07/2020, 16:12:21,-1.012164,0.32063824,9.860822,0.013432222,-0.0024422223,-0.007326667,9.917816791413875,0.015494163455417313,stand
10/07/2020, 16:12:21,-1.0217353,0.2943172,9.836894,0.013432222,-0.0024422223,-0.007326667,9.894192736814484,0.015494163455417313,stand
10/07/2020, 16:12:21,-1.0217353,0.2943172,9.836894,0.0048844446,-0.0048844446,-0.0061055557,9.894192736814484,0.009219187013271039,stand
10/07/2020, 16:12:21,-1.0145568,0.2632105,9.781859,0.0048844446,-0.0048844446,-0.0061055557,9.837854363663956,0.009219187013271039,stand
10/07/2020, 16:12:21,-1.0145568,0.2632105,9.781859,0.034191113,-0.012211111,-0.008547778,9.837854363663956,0.03729890024739568,stand
10/07/2020, 16:12:21,-1.0217353,0.27517462,9.803394,0.034191113,-0.012211111,-0.008547778,9.860334896035617,0.03729890024739568,stand
10/07/2020, 16:12:21,-1.0217353,0.27517462,9.803394,0.05006556,-0.01099,-0.0036633336,9.860334896035617,0.0513883280384065,stand
10/07/2020, 16:12:21,-1.0480564,0.27756742,9.80818,0.05006556,-0.01099,-0.0036633336,9.867920646607232,0.0513883280384065,stand
10/07/2020, 16:12:21,-1.0480564,0.27756742,9.80818,0.02075889,0.0024422223,-0.009768889,9.867920646607232,0.02307221588430446,stand
10/07/2020, 16:12:21,-1.052842,0.30149564,9.82493,0.02075889,0.0024422223,-0.009768889,9.885779139844999,0.02307221588430446,stand
10/07/2020, 16:12:21,-1.052842,0.30149564,9.82493,0.0024422223,0.0,-0.01099,9.885779139844999,0.011258088519754728,stand
10/07/2020, 16:12:21,-1.0432707,0.3062813,9.793823,0.0024422223,0.0,-0.01099,9.853993895944804,0.011258088519754728,stand
10/07/2020, 16:12:21,-1.0432707,0.3062813,9.793823,0.017095556,-0.017095556,-0.0024422223,9.853993895944804,0.024299805611808466,stand
10/07/2020, 16:12:21,-1.0169497,0.2847459,9.829716,0.017095556,-0.017095556,-0.0024422223,9.886282321218687,0.024299805611808466,stand
10/07/2020, 16:12:21,-1.0169497,0.2847459,9.829716,0.046402223,-0.02198,-0.0024422223,9.886282321218687,0.051402832763375754,stand
10/07/2020, 16:12:21,-1.0193424,0.28953153,9.860822,0.046402223,-0.02198,-0.0024422223,9.917595099207348,0.051402832763375754,stand
10/07/2020, 16:12:22,-1.026521,0.30867413,9.779466,0.02075889,-0.007326667,-0.008547778,9.838037096326959,0.023615165956422355,stand
10/07/2020, 16:12:22,-1.026521,0.30867413,9.779466,0.045181114,-0.015874445,-0.0061055557,9.838037096326959,0.04827638046684711,stand
10/07/2020, 16:12:22,-0.9906286,0.32303107,9.810573,0.045181114,-0.015874445,-0.0061055557,9.865750316575156,0.04827638046684711,stand
10/07/2020, 16:12:22,-0.9906286,0.32303107,9.810573,0.03174889,-0.0012211112,-0.0061055557,9.865750316575156,0.03235368595106467,stand
10/07/2020, 16:12:22,-1.0145568,0.28953153,9.836894,0.03174889,-0.0012211112,-0.0061055557,9.893312802054076,0.03235368595106467,stand
10/07/2020, 16:12:22,-1.0145568,0.28953153,9.836894,0.0012211112,0.0061055557,-0.0024422223,9.893312802054076,0.006688301173111346,stand
10/07/2020, 16:12:22,-1.0648061,0.28953153,9.765109,0.0012211112,0.0061055557,-0.0024422223,9.827257783395416,0.006688301173111346,stand
10/07/2020, 16:12:22,-1.0648061,0.28953153,9.765109,0.0061055557,-0.0036633336,-0.007326667,9.827257783395416,0.010216549100291232,stand
10/07/2020, 16:12:22,-1.0073783,0.30867413,9.77468,0.0061055557,-0.0036633336,-0.007326667,9.831300149476142,0.010216549100291232,stand
10/07/2020, 16:12:22,-1.0073783,0.30867413,9.77468,0.036633335,-0.015874445,-0.007326667,9.831300149476142,0.040591616220167805,stand
10/07/2020, 16:12:22,-1.0241281,0.3062813,9.801002,0.036633335,-0.015874445,-0.007326667,9.859121559029933,0.040591616220167805,stand
10/07/2020, 16:12:22,-1.0241281,0.3062813,9.801002,0.045181114,-0.012211111,-0.0048844446,9.859121559029933,0.04705637176001817,stand
10/07/2020, 16:12:22,-1.0408778,0.31106696,9.805787,0.045181114,-0.012211111,-0.0048844446,9.865781756679112,0.04705637176001817,stand
10/07/2020, 16:12:22,-1.0408778,0.31106696,9.805787,0.015874445,0.0036633336,-0.008547778,9.865781756679112,0.018397895094097123,stand
10/07/2020, 16:12:22,-1.0408778,0.33738798,9.79143,0.015874445,0.0036633336,-0.008547778,9.852378798879851,0.018397895094097123,stand
10/07/2020, 16:12:22,-1.0408778,0.33738798,9.79143,-0.0012211112,0.0,-0.0048844446,9.852378798879851,0.0050347702961990645,stand
10/07/2020, 16:12:22,-1.0241281,0.33020952,9.80818,-0.0012211112,0.0,-0.0048844446,9.86702937703357,0.0050347702961990645,stand
10/07/2020, 16:12:22,-1.0241281,0.33020952,9.80818,0.017095556,-0.014653334,-0.0048844446,9.86702937703357,0.023039879769351727,stand
10/07/2020, 16:12:22,-0.9882358,0.32063824,9.827323,0.017095556,-0.014653334,-0.0048844446,9.882089626142411,0.023039879769351727,stand
10/07/2020, 16:12:22,-0.9882358,0.32063824,9.827323,0.04151778,-0.018316668,-0.009768889,9.882089626142411,0.04641828841575241,stand
10/07/2020, 16:12:23,-1.0432707,0.29192436,9.79143,0.042738892,-0.017095556,-0.0024422223,9.851179843694725,0.04609593694137686,stand
10/07/2020, 16:12:23,-1.0193424,0.29192436,9.812965,0.042738892,-0.017095556,-0.0024422223,9.870084529032614,0.04609593694137686,stand
10/07/2020, 16:12:23,-1.0193424,0.29192436,9.812965,0.04029667,-0.0036633336,-0.01099,9.870084529032614,0.041928769805207496,stand
10/07/2020, 16:12:23,-1.0456635,0.32303107,9.812965,0.04029667,-0.0036633336,-0.01099,9.873806306654703,0.041928769805207496,stand
10/07/2020, 16:12:23,-1.0456635,0.32303107,9.812965,0.009768889,0.0,-0.008547778,9.873806306654703,0.012980589768490605,stand
10/07/2020, 16:12:23,-1.0360922,0.3062813,9.767502,0.009768889,0.0,-0.008547778,9.827074194379401,0.012980589768490605,stand
10/07/2020, 16:12:23,-1.0360922,0.3062813,9.767502,0.0012211112,-0.009768889,-0.0048844446,9.827074194379401,0.01099000044632703,stand
10/07/2020, 16:12:23,-0.9954142,0.32542387,9.74836,0.0012211112,-0.009768889,-0.0048844446,9.804451365142587,0.01099000044632703,stand
10/07/2020, 16:12:23,-0.9954142,0.32542387,9.74836,0.028085556,-0.013432222,-0.007326667,9.804451365142587,0.03198285635266957,stand
10/07/2020, 16:12:23,-1.0193424,0.3062813,9.798609,0.028085556,-0.013432222,-0.007326667,9.856246812539865,0.03198285635266957,stand
10/07/2020, 16:12:23,-1.0193424,0.3062813,9.798609,0.047623336,-0.013432222,-0.0048844446,9.856246812539865,0.04972187205199303,stand
10/07/2020, 16:12:23,-1.0145568,0.33499518,9.8321085,0.047623336,-0.013432222,-0.0048844446,9.889990126909648,0.04972187205199303,stand
10/07/2020, 16:12:23,-1.0145568,0.33499518,9.8321085,0.025643334,-0.0061055557,-0.0012211112,9.889990126909648,0.02638843479098759,stand
10/07/2020, 16:12:23,-1.0241281,0.33499518,9.829716,0.025643334,-0.0061055557,-0.0012211112,9.888598050388243,0.02638843479098759,stand
10/07/2020, 16:12:23,-1.0241281,0.33499518,9.829716,0.0024422223,-0.0036633336,-0.0036633336,9.888598050388243,0.005727519181576628,stand
10/07/2020, 16:12:23,-1.026521,0.31585258,9.779466,0.0024422223,-0.0036633336,-0.0036633336,9.838264940829442,0.005727519181576628,stand
10/07/2020, 16:12:23,-1.026521,0.31585258,9.779466,0.017095556,-0.01099,-0.0061055557,9.838264940829442,0.02122064958836056,stand
10/07/2020, 16:12:23,-1.0193424,0.32303107,9.772287,0.017095556,-0.01099,-0.0061055557,9.830615874042756,0.02122064958836056,stand
10/07/2020, 16:12:23,-1.0193424,0.32303107,9.772287,0.04396,-0.012211111,-0.008547778,9.830615874042756,0.04641828809725232,stand
10/07/2020, 16:12:23,-1.0360922,0.28953153,9.796216,0.04396,-0.012211111,-0.008547778,9.85510850319714,0.04641828809725232,stand
10/07/2020, 16:12:24,-1.0504491,0.29671,9.769895,0.017095556,-0.0048844446,-0.0061055557,9.830682616527808,0.018798767543890284,stand
