DATE,TIME,ax,ay,az,gx,gy,gz,ma,mg,label
09/07/2020, 21:47:45,9.932607,0.25603202,1.0001999,0.028085556,0.039075557,-0.19537778,9.986121772842628,0.20121673715024305,stand
09/07/2020, 21:47:45,9.932607,0.25603202,1.0001999,0.009768889,0.009768889,-0.25521225,9.986121772842628,0.255585902592944,stand
09/07/2020, 21:47:45,9.913465,0.3278167,1.0193424,0.009768889,0.009768889,-0.25521225,9.971123410560045,0.255585902592944,stand
09/07/2020, 21:47:45,9.913465,0.3278167,1.0193424,-0.009768889,-0.009768889,-0.29184556,9.971123410560045,0.29217236921134454,stand
09/07/2020, 21:47:45,9.887143,0.3397808,1.0145568,-0.009768889,-0.009768889,-0.29184556,9.944866806602079,0.29217236921134454,stand
09/07/2020, 21:47:45,9.887143,0.3397808,1.0145568,-0.017095556,-0.018316668,-0.32237336,9.944866806602079,0.32334554559076306,stand
09/07/2020, 21:47:45,9.920643,0.3493521,1.0360922,-0.017095556,-0.018316668,-0.32237336,9.980715829277042,0.32334554559076306,stand
09/07/2020, 21:47:45,9.920643,0.3493521,1.0360922,0.025643334,0.0012211112,-0.36511225,9.980715829277042,0.3660136926262635,stand
09/07/2020, 21:47:45,10.021141,0.34456646,1.012164,0.025643334,0.0012211112,-0.36511225,10.078019150290709,0.3660136926262635,stand
09/07/2020, 21:47:45,10.021141,0.34456646,1.012164,0.081814446,0.07693,-0.38465002,10.078019150290709,0.4007087070150883,stand
09/07/2020, 21:47:45,10.009177,0.4354937,1.0360922,0.081814446,0.07693,-0.38465002,10.072078738667697,0.4007087070150883,stand
09/07/2020, 21:47:45,10.009177,0.4354937,1.0360922,0.10135223,0.12089001,-0.33336335,10.072078738667697,0.36880590294701515,stand
09/07/2020, 21:47:45,9.8727865,0.5192425,1.0456635,0.10135223,0.12089001,-0.33336335,9.941576263959998,0.36880590294701515,stand
09/07/2020, 21:47:45,9.8727865,0.5192425,1.0456635,0.058613338,0.13188,-0.2283478,9.941576263959998,0.2701306581500668,stand
09/07/2020, 21:47:45,9.822537,0.57188463,1.0217353,0.058613338,0.13188,-0.2283478,9.892079482465158,0.2701306581500668,stand
09/07/2020, 21:47:45,9.822537,0.57188463,1.0217353,-0.025643334,0.09280445,-0.09036223,9.892079482465158,0.1320438497164118,stand
09/07/2020, 21:47:45,9.812965,0.6029913,1.0671989,-0.025643334,0.09280445,-0.09036223,9.88922654844286,0.1320438497164118,stand
09/07/2020, 21:47:45,9.812965,0.6029913,1.0671989,-0.051286668,-0.024422223,0.042738892,9.88922654844286,0.07108713060159985,stand
09/07/2020, 21:47:45,9.796216,0.5982057,1.134198,-0.051286668,-0.024422223,0.042738892,9.879782546595418,0.07108713060159985,stand
09/07/2020, 21:47:45,9.796216,0.5982057,1.134198,-0.047623336,-0.14042778,0.10867889,9.879782546595418,0.18384516871209508,stand
09/07/2020, 21:47:46,9.879965,0.567099,1.0743774,-0.018316668,-0.15141778,0.21735778,9.954375575356181,0.26553201308010754,stand
09/07/2020, 21:47:46,9.9038925,0.55752766,1.0743774,-0.018316668,-0.15141778,0.21735778,9.977585425271059,0.26553201308010754,stand
09/07/2020, 21:47:46,9.9038925,0.55752766,1.0743774,-0.025643334,-0.14409111,0.29306668,9.977585425271059,0.32757885920282026,stand
09/07/2020, 21:47:46,9.827323,0.485743,1.0217353,-0.025643334,-0.14409111,0.29306668,9.892227547506899,0.32757885920282026,stand
09/07/2020, 21:47:46,9.827323,0.485743,1.0217353,-0.03052778,-0.07326667,0.34679556,9.892227547506899,0.3557627158421422,stand
09/07/2020, 21:47:46,9.9038925,0.47377887,0.9403793,-0.03052778,-0.07326667,0.34679556,9.95971217855525,0.3557627158421422,stand
09/07/2020, 21:47:46,9.9038925,0.47377887,0.9403793,-0.03052778,0.02198,0.39564002,9.95971217855525,0.3974243169663195,stand
09/07/2020, 21:47:46,9.8727865,0.41635114,0.9451649,-0.03052778,0.02198,0.39564002,9.926661004716486,0.3974243169663195,stand
09/07/2020, 21:47:46,9.8727865,0.41635114,0.9451649,0.0061055557,0.09768889,0.42861003,9.926661004716486,0.4396441200999989,stand
09/07/2020, 21:47:46,9.91825,0.38285163,0.95712906,0.0061055557,0.09768889,0.42861003,9.971677699264998,0.4396441200999989,stand
09/07/2020, 21:47:46,9.91825,0.38285163,0.95712906,0.042738892,0.14897557,0.4383789,9.971677699264998,0.46496923811588964,stand
09/07/2020, 21:47:46,9.966106,0.33260235,0.97866446,0.042738892,0.14897557,0.4383789,10.019565136095757,0.46496923811588964,stand
09/07/2020, 21:47:46,9.966106,0.33260235,0.97866446,0.078151114,0.098910004,0.39197668,10.019565136095757,0.41174811061547517,stand
09/07/2020, 21:47:46,9.954143,0.22492532,1.0839486,0.078151114,0.098910004,0.39197668,10.015512483602247,0.41174811061547517,stand
09/07/2020, 21:47:46,9.954143,0.22492532,1.0839486,0.078151114,-0.04396,0.2625389,10.015512483602247,0.2774288333930847,stand
09/07/2020, 21:47:46,9.891929,0.21774685,1.1006985,0.078151114,-0.04396,0.2625389,9.955360550183098,0.2774288333930847,stand
09/07/2020, 21:47:46,9.891929,0.21774685,1.1006985,-0.019537779,-0.18072446,0.1306589,9.955360550183098,0.22386335318673303,stand
09/07/2020, 21:47:46,9.982856,0.21535404,1.052842,-0.019537779,-0.18072446,0.1306589,10.040531038934134,0.22386335318673303,stand
09/07/2020, 21:47:46,9.982856,0.21535404,1.052842,-0.098910004,-0.16607112,0.05250778,10.040531038934134,0.20029945521720835,stand
09/07/2020, 21:47:46,10.01157,0.22253251,0.9810573,-0.098910004,-0.16607112,0.05250778,10.061984273381116,0.20029945521720835,stand
09/07/2020, 21:47:47,9.923036,0.27517462,0.98584294,0.015874445,-0.008547778,0.014653334,9.975682599566865,0.02323322490969692,stand
09/07/2020, 21:47:47,9.923036,0.27517462,0.98584294,0.014653334,-0.01099,0.014653334,9.975682599566865,0.023456779936341026,stand
09/07/2020, 21:47:47,9.865608,0.23688944,0.9810573,0.014653334,-0.01099,0.014653334,9.91709712882971,0.023456779936341026,stand
09/07/2020, 21:47:47,9.865608,0.23688944,0.9810573,0.018316668,-0.007326667,0.014653334,9.91709712882971,0.02457438850459456,stand
09/07/2020, 21:47:47,9.925428,0.23449662,0.9954142,0.018316668,-0.007326667,0.014653334,9.977974084242007,0.02457438850459456,stand
09/07/2020, 21:47:47,9.925428,0.23449662,0.9954142,0.015874445,-0.009768889,0.017095556,9.977974084242007,0.025292039603466043,stand
09/07/2020, 21:47:47,9.939785,0.2416751,1.0241281,0.015874445,-0.009768889,0.017095556,9.995327463020903,0.025292039603466043,stand
09/07/2020, 21:47:47,9.939785,0.2416751,1.0241281,0.014653334,-0.0061055557,0.0061055557,9.995327463020903,0.017008110693483465,stand
09/07/2020, 21:47:47,10.025927,0.23688944,1.038485,0.014653334,-0.0061055557,0.0061055557,10.082349517456848,0.017008110693483465,stand
09/07/2020, 21:47:47,10.025927,0.23688944,1.038485,0.014653334,-0.0061055557,0.007326667,10.082349517456848,0.017483651544509232,stand
09/07/2020, 21:47:47,9.990034,0.22013968,0.9954142,0.014653334,-0.0061055557,0.007326667,10.041916763803671,0.017483651544509232,stand
09/07/2020, 21:47:47,9.990034,0.22013968,0.9954142,0.014653334,-0.0048844446,0.008547778,10.041916763803671,0.017653399706486956,stand
09/07/2020, 21:47:47,9.982856,0.23449662,0.98584294,0.014653334,-0.0048844446,0.008547778,10.034155910436679,0.017653399706486956,stand
09/07/2020, 21:47:47,9.982856,0.23449662,0.98584294,0.015874445,-0.0061055557,0.0,10.034155910436679,0.01700811066005093,stand
09/07/2020, 21:47:47,9.858429,0.22971097,1.012164,0.015874445,-0.0061055557,0.0,9.912914029012468,0.01700811066005093,stand
09/07/2020, 21:47:47,9.858429,0.22971097,1.012164,0.018316668,0.0024422223,-0.0061055557,9.912914029012468,0.019461309550198667,stand
09/07/2020, 21:47:47,9.930214,0.23928227,1.0360922,0.018316668,0.0024422223,-0.0061055557,9.986986113497348,0.019461309550198667,stand
09/07/2020, 21:47:47,9.930214,0.23928227,1.0360922,0.018316668,-0.0036633336,-0.009768889,9.986986113497348,0.02107964706113605,stand
09/07/2020, 21:47:47,9.9038925,0.22492532,1.0169497,0.018316668,-0.0036633336,-0.009768889,9.958507166719217,0.02107964706113605,stand
09/07/2020, 21:47:47,9.9038925,0.22492532,1.0169497,0.015874445,-0.0036633336,-0.009768889,9.958507166719217,0.018996031925250068,stand
09/07/2020, 21:47:48,9.908679,0.23688944,1.0289137,0.014653334,-0.0048844446,0.0048844446,9.964772941482018,0.016199870610675435,stand
09/07/2020, 21:47:48,9.908679,0.23688944,1.0289137,0.012211111,-0.0012211112,0.0036633336,9.964772941482018,0.012807121710750326,stand
09/07/2020, 21:47:48,9.994821,0.2416751,1.0504491,0.012211111,-0.0012211112,0.0036633336,10.052775186673081,0.012807121710750326,stand
09/07/2020, 21:47:48,9.994821,0.2416751,1.0504491,0.017095556,0.0024422223,0.0061055557,10.052775186673081,0.018316667589048544,stand
09/07/2020, 21:47:48,9.997213,0.2416751,1.052842,0.017095556,0.0024422223,0.0061055557,10.055404427987927,0.018316667589048544,stand
09/07/2020, 21:47:48,9.997213,0.2416751,1.052842,0.018316668,-0.0048844446,0.008547778,10.055404427987927,0.020794773901751436,stand
09/07/2020, 21:47:48,9.934999,0.25124636,1.0336994,0.018316668,-0.0048844446,0.008547778,9.991790307988353,0.020794773901751436,stand
09/07/2020, 21:47:48,9.934999,0.25124636,1.0336994,0.015874445,-0.0012211112,0.0012211112,9.991790307988353,0.015968100792199725,stand
09/07/2020, 21:47:48,9.973285,0.2321038,1.038485,0.015874445,-0.0012211112,0.0012211112,10.029891898951892,0.015968100792199725,stand
09/07/2020, 21:47:48,9.973285,0.2321038,1.038485,0.015874445,-0.0024422223,-0.0012211112,10.029891898951892,0.016107562829622297,stand
09/07/2020, 21:47:48,9.956535,0.23928227,1.0313065,0.015874445,-0.0024422223,-0.0012211112,10.012664234558082,0.016107562829622297,stand
09/07/2020, 21:47:48,9.956535,0.23928227,1.0313065,0.013432222,-0.0061055557,-0.0024422223,10.012664234558082,0.014955495953500033,stand
09/07/2020, 21:47:48,9.95175,0.2321038,1.012164,0.013432222,-0.0061055557,-0.0024422223,10.005781940564779,0.014955495953500033,stand
09/07/2020, 21:47:48,9.95175,0.2321038,1.012164,0.015874445,-0.007326667,-0.0024422223,10.005781940564779,0.017653399674276492,stand
09/07/2020, 21:47:48,9.954143,0.2321038,1.0169497,0.015874445,-0.007326667,-0.0024422223,10.008646915708862,0.017653399674276492,stand
09/07/2020, 21:47:48,9.954143,0.2321038,1.0169497,0.019537779,0.0012211112,-0.0012211112,10.008646915708862,0.01961394953681452,stand
09/07/2020, 21:47:48,9.961321,0.2536392,1.0217353,0.019537779,0.0012211112,-0.0012211112,10.016795370790827,0.01961394953681452,stand
09/07/2020, 21:47:48,9.961321,0.2536392,1.0217353,0.015874445,0.0012211112,-0.0048844446,10.016795370790827,0.01665373621478829,stand
09/07/2020, 21:47:48,9.985249,0.27038896,1.0408778,0.015874445,0.0012211112,-0.0048844446,10.042993863517404,0.01665373621478829,stand
09/07/2020, 21:47:48,9.985249,0.27038896,1.0408778,0.01099,-0.0012211112,-0.007326667,10.042993863517404,0.013264662526222135,stand
09/07/2020, 21:47:49,9.920643,0.26799613,1.0145568,0.012211111,-0.0012211112,0.0,9.975986265526927,0.012272015052952598,stand
09/07/2020, 21:47:49,9.944571,0.27038896,1.0289137,0.012211111,-0.0012211112,0.0,10.001312759808021,0.012272015052952598,stand
09/07/2020, 21:47:49,9.944571,0.27038896,1.0289137,0.015874445,-0.0048844446,-0.0036633336,10.001312759808021,0.017008110726915993,stand
09/07/2020, 21:47:49,10.030712,0.25603202,1.0049855,0.015874445,-0.0048844446,-0.0036633336,10.084182363573829,0.017008110726915993,stand
09/07/2020, 21:47:49,10.030712,0.25603202,1.0049855,0.018316668,0.0,-0.0012211112,10.084182363573829,0.01835732610594468,stand
09/07/2020, 21:47:49,10.049855,0.24885355,1.0169497,0.018316668,0.0,-0.0012211112,10.10424192485491,0.01835732610594468,stand
09/07/2020, 21:47:49,10.049855,0.24885355,1.0169497,0.017095556,-0.007326667,0.0,10.10424192485491,0.018599411379626,stand
09/07/2020, 21:47:49,9.944571,0.25603202,1.0097711,0.017095556,-0.007326667,0.0,9.998983615324518,0.018599411379626,stand
09/07/2020, 21:47:49,9.944571,0.25603202,1.0097711,0.014653334,-0.007326667,0.0012211112,9.998983615324518,0.01642837099496898,stand
09/07/2020, 21:47:49,9.934999,0.2727818,0.9954142,0.014653334,-0.007326667,0.0012211112,9.988467035402659,0.01642837099496898,stand
09/07/2020, 21:47:49,9.934999,0.2727818,0.9954142,0.017095556,-0.0048844446,-0.0048844446,9.988467035402659,0.018438374396612143,stand
09/07/2020, 21:47:49,9.966106,0.24885355,1.026521,0.017095556,-0.0048844446,-0.0048844446,10.021923490863891,0.018438374396612143,stand
09/07/2020, 21:47:49,9.966106,0.24885355,1.026521,0.014653334,-0.008547778,-0.0036633336,10.021923490863891,0.01735525092824578,stand
09/07/2020, 21:47:49,9.966106,0.22731815,1.0193424,0.014653334,-0.008547778,-0.0036633336,10.020679098139034,0.01735525092824578,stand
09/07/2020, 21:47:49,9.966106,0.22731815,1.0193424,0.015874445,-0.007326667,0.0036633336,10.020679098139034,0.017863316692222887,stand
09/07/2020, 21:47:49,9.915857,0.24885355,1.0073783,0.015874445,-0.007326667,0.0036633336,9.970003284912206,0.017863316692222887,stand
09/07/2020, 21:47:49,9.915857,0.24885355,1.0073783,0.013432222,-0.0036633336,0.0012211112,9.970003284912206,0.013976255743960088,stand
09/07/2020, 21:47:49,9.923036,0.25603202,1.012164,0.013432222,-0.0036633336,0.0012211112,9.977808592060487,0.013976255743960088,stand
09/07/2020, 21:47:49,9.923036,0.25603202,1.012164,0.015874445,-0.0048844446,-0.0036633336,9.977808592060487,0.017008110726915993,stand
09/07/2020, 21:47:49,9.9015,0.25124636,1.012164,0.015874445,-0.0048844446,-0.0036633336,9.956269278966383,0.017008110726915993,stand
09/07/2020, 21:47:50,9.8727865,0.23449662,1.0049855,0.018316668,-0.008547778,0.0024422223,9.92657534760572,0.020359991945564256,stand
09/07/2020, 21:47:50,9.95175,0.2416751,1.0169497,0.018316668,-0.008547778,0.0024422223,10.006493769713485,0.020359991945564256,stand
09/07/2020, 21:47:50,9.95175,0.2416751,1.0169497,0.013432222,0.0,-0.0036633336,10.006493769713485,0.013922809061169513,stand
09/07/2020, 21:47:50,9.932607,0.2416751,1.0432707,0.013432222,0.0,-0.0036633336,9.990169989456321,0.013922809061169513,stand
09/07/2020, 21:47:50,9.932607,0.2416751,1.0432707,0.017095556,-0.0012211112,-0.0048844446,9.990169989456321,0.017821530893493427,stand
09/07/2020, 21:47:50,9.944571,0.2656033,1.0313065,0.017095556,-0.0012211112,-0.0048844446,10.00143097137812,0.017821530893493427,stand
09/07/2020, 21:47:50,9.944571,0.2656033,1.0313065,0.019537779,-0.0024422223,-0.0024422223,10.00143097137812,0.019840707931761587,stand
09/07/2020, 21:47:50,9.932607,0.22731815,1.0049855,0.019537779,-0.0024422223,-0.0024422223,9.98590732480727,0.019840707931761587,stand
09/07/2020, 21:47:50,9.932607,0.22731815,1.0049855,0.015874445,-0.0036633336,0.0024422223,9.98590732480727,0.01647369056700755,stand
09/07/2020, 21:47:50,9.954143,0.21296121,1.0025927,0.015874445,-0.0036633336,0.0024422223,10.006772650518528,0.01647369056700755,stand
09/07/2020, 21:47:50,9.954143,0.21296121,1.0025927,0.013432222,-0.0048844446,0.0,10.006772650518528,0.014292739365440121,stand
09/07/2020, 21:47:50,9.860822,0.2321038,1.0336994,0.013432222,-0.0048844446,0.0,9.917570855734066,0.014292739365440121,stand
09/07/2020, 21:47:50,9.860822,0.2321038,1.0336994,0.013432222,-0.0061055557,-0.007326667,9.917570855734066,0.016473689980216668,stand
09/07/2020, 21:47:50,9.920643,0.22731815,1.0576276,0.013432222,-0.0061055557,-0.007326667,9.979449093412082,0.016473689980216668,stand
09/07/2020, 21:47:50,9.920643,0.22731815,1.0576276,0.017095556,-0.007326667,-0.0048844446,9.979449093412082,0.019230078084533517,stand
09/07/2020, 21:47:50,9.906285,0.23449662,1.0552348,0.017095556,-0.007326667,-0.0048844446,9.965088925577058,0.019230078084533517,stand
09/07/2020, 21:47:50,9.906285,0.23449662,1.0552348,0.012211111,0.0024422223,0.0,9.965088925577058,0.01245293904507187,stand
09/07/2020, 21:47:50,9.966106,0.2440679,0.9810573,0.012211111,0.0024422223,0.0,10.017251100643097,0.01245293904507187,stand
09/07/2020, 21:47:50,9.966106,0.2440679,0.9810573,0.015874445,-0.0024422223,0.0024422223,10.017251100643097,0.016245827701616502,stand
09/07/2020, 21:47:50,9.889536,0.2440679,1.0097711,0.015874445,-0.0024422223,0.0024422223,9.943949277341586,0.016245827701616502,stand
09/07/2020, 21:47:51,9.882358,0.25124636,1.0241281,0.015874445,-0.0061055557,-0.0036633336,9.93845836837134,0.017398156260897742,stand
09/07/2020, 21:47:51,9.882358,0.25124636,1.0241281,0.013432222,0.0024422223,-0.0061055557,9.93845836837134,0.014955495953500033,stand
09/07/2020, 21:47:51,9.95175,0.23449662,0.9954142,0.013432222,0.0024422223,-0.0061055557,10.004157246123262,0.014955495953500033,stand
09/07/2020, 21:47:51,9.95175,0.23449662,0.9954142,0.017095556,-0.0048844446,0.0024422223,10.004157246123262,0.01794659579943007,stand
09/07/2020, 21:47:51,9.999606,0.22731815,1.012164,0.017095556,-0.0048844446,0.0024422223,10.053271721388633,0.01794659579943007,stand
09/07/2020, 21:47:51,9.999606,0.22731815,1.012164,0.009768889,-0.0036633336,0.0,10.053271721388633,0.010433178371371648,stand
09/07/2020, 21:47:51,9.946963,0.2440679,1.0408778,0.009768889,-0.0036633336,0.0,10.004252839312807,0.010433178371371648,stand
09/07/2020, 21:47:51,9.946963,0.2440679,1.0408778,0.017095556,-0.0061055557,0.0,10.004252839312807,0.01815312264324041,stand
09/07/2020, 21:47:51,9.930214,0.2656033,1.0432707,0.017095556,-0.0061055557,0.0,9.988398647614702,0.01815312264324041,stand
09/07/2020, 21:47:51,9.930214,0.2656033,1.0432707,0.015874445,-0.0048844446,-0.0024422223,9.988398647614702,0.016787503307881473,stand
09/07/2020, 21:47:51,9.930214,0.2440679,0.9906286,0.015874445,-0.0048844446,-0.0024422223,9.982487807507411,0.016787503307881473,stand
09/07/2020, 21:47:51,9.930214,0.2440679,0.9906286,0.017095556,-0.0036633336,-0.0036633336,9.982487807507411,0.017863316533063136,stand
09/07/2020, 21:47:51,10.004392,0.21535404,0.99302137,0.017095556,-0.0036633336,-0.0036633336,10.055860057360514,0.017863316533063136,stand
09/07/2020, 21:47:51,10.004392,0.21535404,0.99302137,0.015874445,-0.0048844446,0.0,10.055860057360514,0.01660890777399157,stand
09/07/2020, 21:47:51,9.968499,0.24646074,1.0025927,0.015874445,-0.0048844446,0.0,10.021821738411502,0.01660890777399157,stand
09/07/2020, 21:47:51,9.968499,0.24646074,1.0025927,0.013432222,-0.007326667,-0.0012211112,10.021821738411502,0.01534912908874015,stand
09/07/2020, 21:47:51,9.942178,0.2440679,0.997807,0.013432222,-0.007326667,-0.0012211112,9.995103144278916,0.01534912908874015,stand
09/07/2020, 21:47:51,9.942178,0.2440679,0.997807,0.01099,-0.0036633336,-0.0036633336,9.995103144278916,0.012149902607001174,stand
09/07/2020, 21:47:51,9.932607,0.23928227,1.012164,0.01099,-0.0036633336,-0.0036633336,9.986911822862302,0.012149902607001174,stand
09/07/2020, 21:47:51,9.932607,0.23928227,1.012164,0.015874445,-0.0012211112,-0.0012211112,9.986911822862302,0.015968100792199725,stand
09/07/2020, 21:47:52,9.805787,0.2632105,1.012164,0.02198,-0.007326667,0.0024422223,9.861400311912737,0.023297315963203155,stand
09/07/2020, 21:47:52,9.805787,0.2632105,1.012164,0.014653334,-0.0061055557,0.0048844446,9.861400311912737,0.01660890780822767,stand
09/07/2020, 21:47:52,9.834501,0.22971097,1.012164,0.014653334,-0.0061055557,0.0048844446,9.889118173257723,0.01660890780822767,stand
09/07/2020, 21:47:52,9.834501,0.22971097,1.012164,0.013432222,-0.0024422223,0.0048844446,9.889118173257723,0.01449989132495742,stand
09/07/2020, 21:47:52,9.870394,0.2416751,1.0336994,0.013432222,-0.0024422223,0.0048844446,9.927316562237937,0.01449989132495742,stand
09/07/2020, 21:47:52,9.870394,0.2416751,1.0336994,0.015874445,-0.01099,0.0048844446,9.927316562237937,0.019915720541733285,stand
09/07/2020, 21:47:52,9.908679,0.2632105,1.0241281,0.015874445,-0.01099,0.0048844446,9.96494043064416,0.019915720541733285,stand
09/07/2020, 21:47:52,9.908679,0.2632105,1.0241281,0.013432222,-0.0048844446,-0.0012211112,9.96494043064416,0.014344807807537718,stand
09/07/2020, 21:47:52,9.932607,0.25124636,1.0576276,0.013432222,-0.0048844446,-0.0012211112,9.99191556143017,0.014344807807537718,stand
09/07/2020, 21:47:52,9.932607,0.25124636,1.0576276,0.009768889,0.0,0.0012211112,9.99191556143017,0.009844912916911624,stand
09/07/2020, 21:47:52,9.879965,0.22731815,1.0432707,0.009768889,0.0,0.0012211112,9.937494267830575,0.009844912916911624,stand
09/07/2020, 21:47:52,9.879965,0.22731815,1.0432707,0.015874445,-0.0061055557,0.0012211112,9.937494267830575,0.01705188965162898,stand
09/07/2020, 21:47:52,9.939785,0.22013968,1.0480564,0.015874445,-0.0061055557,0.0012211112,9.997310115275594,0.01705188965162898,stand
09/07/2020, 21:47:52,9.939785,0.22013968,1.0480564,0.017095556,-0.007326667,0.0012211112,9.997310115275594,0.01863945321449518,stand
09/07/2020, 21:47:52,9.925428,0.21296121,1.0432707,0.017095556,-0.007326667,0.0012211112,9.98237922446796,0.01863945321449518,stand
09/07/2020, 21:47:52,9.925428,0.21296121,1.0432707,0.03052778,0.009768889,0.0048844446,9.98237922446796,0.03242274415967887,stand
09/07/2020, 21:47:52,15.172889,0.2943172,1.7730815,0.03052778,0.009768889,0.0048844446,15.278972280653825,0.03242274415967887,stand
09/07/2020, 21:47:52,15.172889,0.2943172,1.7730815,0.013432222,0.0024422223,-0.0024422223,15.278972280653825,0.013869156385088972,stand
09/07/2020, 21:47:52,13.911871,0.35174492,1.6486548,0.013432222,0.0024422223,-0.0024422223,14.013634100672892,0.013869156385088972,stand
09/07/2020, 21:47:52,13.911871,0.35174492,1.6486548,0.014653334,-0.0036633336,-0.012211111,14.013634100672892,0.01942296225894533,stand
09/07/2020, 21:47:53,9.877572,0.2632105,1.0456635,0.013432222,-0.0036633336,-0.0012211112,9.936252898769355,0.013976255743960088,stand
09/07/2020, 21:47:53,9.877572,0.2632105,1.0456635,0.017095556,-0.0061055557,-0.0012211112,9.936252898769355,0.018194146700720018,stand
09/07/2020, 21:47:53,9.88475,0.2727818,1.026521,0.017095556,-0.0061055557,-0.0012211112,9.941652025874061,0.018194146700720018,stand
09/07/2020, 21:47:53,9.88475,0.2727818,1.026521,0.013432222,-0.0061055557,-0.0012211112,9.941652025874061,0.014805185639321634,stand
09/07/2020, 21:47:53,9.908679,0.27517462,1.0073783,0.013432222,-0.0061055557,-0.0012211112,9.963556186566384,0.014805185639321634,stand
09/07/2020, 21:47:53,9.908679,0.27517462,1.0073783,0.017095556,-0.0036633336,0.0012211112,9.963556186566384,0.017526242522946066,stand
09/07/2020, 21:47:53,9.973285,0.25603202,1.0001999,0.017095556,-0.0036633336,0.0012211112,10.026582687871045,0.017526242522946066,stand
09/07/2020, 21:47:53,9.973285,0.25603202,1.0001999,0.018316668,-0.0048844446,-0.0012211112,10.026582687871045,0.018996031723196638,stand
09/07/2020, 21:47:53,9.911072,0.23688944,1.0576276,0.018316668,-0.0048844446,-0.0012211112,9.970157292334244,0.018996031723196638,stand
09/07/2020, 21:47:53,9.911072,0.23688944,1.0576276,0.02075889,-0.0061055557,-0.0024422223,9.970157292334244,0.021775531180328222,stand
09/07/2020, 21:47:53,9.8632145,0.23449662,1.0600204,0.02075889,-0.0061055557,-0.0024422223,9.922783487754444,0.021775531180328222,stand
09/07/2020, 21:47:53,9.8632145,0.23449662,1.0600204,0.013432222,-0.0036633336,0.0,9.922783487754444,0.013922809061169513,stand
09/07/2020, 21:47:53,9.899107,0.24885355,1.026521,0.013432222,-0.0036633336,0.0,9.955299712953254,0.013922809061169513,stand
09/07/2020, 21:47:53,9.899107,0.24885355,1.026521,0.014653334,-0.0012211112,0.0012211112,9.955299712953254,0.014754742756104647,stand
09/07/2020, 21:47:53,9.853643,0.25603202,1.0241281,0.014653334,-0.0012211112,0.0012211112,9.910029228750325,0.014754742756104647,stand
09/07/2020, 21:47:53,9.853643,0.25603202,1.0241281,0.012211111,-0.0036633336,-0.0012211112,9.910029228750325,0.012807121710750326,stand
09/07/2020, 21:47:53,9.829716,0.27038896,1.0289137,0.012211111,-0.0036633336,-0.0012211112,9.887117121547941,0.012807121710750326,stand
09/07/2020, 21:47:53,9.829716,0.27038896,1.0289137,0.015874445,-0.0048844446,-0.0036633336,9.887117121547941,0.017008110726915993,stand
09/07/2020, 21:47:53,9.91825,0.23449662,1.0408778,0.015874445,-0.0048844446,-0.0036633336,9.97547492743016,0.017008110726915993,stand
09/07/2020, 21:47:53,9.91825,0.23449662,1.0408778,0.018316668,-0.0048844446,-0.0012211112,9.97547492743016,0.018996031723196638,stand
09/07/2020, 21:47:54,9.961321,0.23449662,1.026521,0.013432222,-0.0048844446,-0.0024422223,10.016818236299692,0.01449989132495742,stand
09/07/2020, 21:47:54,9.961321,0.23449662,1.026521,0.017095556,-0.0036633336,-0.0024422223,10.016818236299692,0.017653399513224168,stand
09/07/2020, 21:47:54,9.88475,0.24646074,1.0313065,0.017095556,-0.0036633336,-0.0024422223,9.941459943301679,0.017653399513224168,stand
09/07/2020, 21:47:54,9.88475,0.24646074,1.0313065,0.014653334,-0.01099,0.0012211112,9.941459943301679,0.018357326291796653,stand
09/07/2020, 21:47:54,9.966106,0.23928227,1.0241281,0.014653334,-0.01099,0.0012211112,10.021445574194932,0.018357326291796653,stand
09/07/2020, 21:47:54,9.966106,0.23928227,1.0241281,0.015874445,-0.008547778,-0.0012211112,10.021445574194932,0.018070795314709287,stand
09/07/2020, 21:47:54,9.932607,0.26081768,1.0313065,0.015874445,-0.008547778,-0.0012211112,9.98940913002993,0.018070795314709287,stand
09/07/2020, 21:47:54,9.932607,0.26081768,1.0313065,0.013432222,-0.0024422223,-0.0036633336,9.98940913002993,0.014135383334772272,stand
09/07/2020, 21:47:54,9.949356,0.23928227,1.0289137,0.013432222,-0.0024422223,-0.0036633336,10.005278900064758,0.014135383334772272,stand
09/07/2020, 21:47:54,9.949356,0.23928227,1.0289137,0.013432222,0.0024422223,-0.0048844446,10.005278900064758,0.01449989132495742,stand
09/07/2020, 21:47:54,9.891929,0.21535404,1.0313065,0.013432222,0.0024422223,-0.0048844446,9.947875317770544,0.01449989132495742,stand
09/07/2020, 21:47:54,9.891929,0.21535404,1.0313065,0.015874445,-0.0012211112,-0.007326667,9.947875317770544,0.017526242685166865,stand
09/07/2020, 21:47:54,9.944571,0.2105684,1.0408778,0.015874445,-0.0012211112,-0.007326667,10.00111238498345,0.017526242685166865,stand
09/07/2020, 21:47:54,9.944571,0.2105684,1.0408778,0.014653334,0.0,-0.0012211112,10.00111238498345,0.014704125996876833,stand
09/07/2020, 21:47:54,9.896714,0.19621146,1.0193424,0.014653334,0.0,-0.0012211112,9.951005480590947,0.014704125996876833,stand
09/07/2020, 21:47:54,9.896714,0.19621146,1.0193424,0.017095556,0.0024422223,-0.0048844446,9.951005480590947,0.01794659579943007,stand
09/07/2020, 21:47:54,9.894321,0.24646074,0.9906286,0.017095556,0.0024422223,-0.0048844446,9.946842951829966,0.01794659579943007,stand
09/07/2020, 21:47:54,9.894321,0.24646074,0.9906286,0.017095556,-0.0012211112,-0.0036633336,9.946842951829966,0.017526242522946066,stand
09/07/2020, 21:47:54,9.8632145,0.2536392,1.0025927,0.017095556,-0.0012211112,-0.0036633336,9.917284157370267,0.017526242522946066,stand
09/07/2020, 21:47:54,9.8632145,0.2536392,1.0025927,0.013432222,-0.0024422223,-0.0012211112,9.917284157370267,0.013706938441303143,stand
09/07/2020, 21:47:55,9.939785,0.23928227,1.038485,0.015874445,0.0,0.0,9.996751128292019,0.01587444543838501,stand
09/07/2020, 21:47:55,9.939785,0.23928227,1.038485,0.019537779,-0.0024422223,0.0036633336,9.996751128292019,0.020027712161412012,stand
09/07/2020, 21:47:55,10.009177,0.25124636,1.0360922,0.019537779,-0.0024422223,0.0036633336,10.065795551440333,0.020027712161412012,stand
09/07/2020, 21:47:55,10.009177,0.25124636,1.0360922,0.015874445,-0.007326667,0.0012211112,10.065795551440333,0.017526242685166865,stand
09/07/2020, 21:47:55,9.997213,0.26799613,1.0360922,0.015874445,-0.007326667,0.0012211112,10.054331600543648,0.017526242685166865,stand
09/07/2020, 21:47:55,9.997213,0.26799613,1.0360922,0.018316668,-0.008547778,0.0024422223,10.054331600543648,0.020359991945564256,stand
09/07/2020, 21:47:55,9.894321,0.28953153,1.026521,0.018316668,-0.008547778,0.0024422223,9.951641602953853,0.020359991945564256,stand
09/07/2020, 21:47:55,9.894321,0.28953153,1.026521,0.017095556,-0.008547778,-0.0012211112,9.951641602953853,0.01915238044688202,stand
09/07/2020, 21:47:55,9.968499,0.28953153,1.0073783,0.017095556,-0.008547778,-0.0012211112,10.023453277200165,0.01915238044688202,stand
09/07/2020, 21:47:55,9.968499,0.28953153,1.0073783,0.017095556,-0.0061055557,-0.0012211112,10.023453277200165,0.018194146700720018,stand
09/07/2020, 21:47:55,9.961321,0.29192436,1.0336994,0.017095556,-0.0061055557,-0.0012211112,10.01906521997724,0.018194146700720018,stand
09/07/2020, 21:47:55,9.961321,0.29192436,1.0336994,0.02075889,-0.007326667,0.0012211112,10.01906521997724,0.022047736000621463,stand
09/07/2020, 21:47:55,9.961321,0.28235307,1.0408778,0.02075889,-0.007326667,0.0012211112,10.019534096369098,0.022047736000621463,stand
09/07/2020, 21:47:55,9.961321,0.28235307,1.0408778,0.018316668,-0.01099,0.0,10.019534096369098,0.021360721348883893,stand
09/07/2020, 21:47:55,9.915857,0.25603202,1.0217353,0.018316668,-0.01099,0.0,9.971645888855162,0.021360721348883893,stand
09/07/2020, 21:47:55,9.915857,0.25603202,1.0217353,0.018316668,-0.009768889,-0.0012211112,9.971645888855162,0.020794773853898434,stand
09/07/2020, 21:47:55,9.956535,0.24646074,0.9954142,0.018316668,-0.009768889,-0.0012211112,10.009205177365446,0.020794773853898434,stand
09/07/2020, 21:47:55,9.956535,0.24646074,0.9954142,0.017095556,-0.0061055557,-0.0048844446,10.009205177365446,0.018798767543890284,stand
09/07/2020, 21:47:55,9.956535,0.23688944,1.038485,0.017095556,-0.0061055557,-0.0048844446,10.013349278269136,0.018798767543890284,stand
09/07/2020, 21:47:55,9.956535,0.23688944,1.038485,0.019537779,-0.01099,0.0,10.013349278269136,0.02241662103776078,stand
09/07/2020, 21:47:56,9.956535,0.25603202,1.026521,0.012211111,-0.0024422223,0.0,10.012586761457198,0.01245293904507187,stand
09/07/2020, 21:47:56,9.956535,0.25603202,1.026521,0.014653334,-0.0024422223,-0.0024422223,10.012586761457198,0.015054869929680003,stand
09/07/2020, 21:47:56,9.966106,0.28713873,1.0193424,0.014653334,-0.0024422223,-0.0024422223,10.022214560451495,0.015054869929680003,stand
09/07/2020, 21:47:56,9.966106,0.28713873,1.0193424,0.014653334,-0.0024422223,0.0012211112,10.022214560451495,0.014905561753895855,stand
09/07/2020, 21:47:56,9.968499,0.2632105,1.0480564,0.014653334,-0.0024422223,0.0012211112,10.02689771997521,0.014905561753895855,stand
09/07/2020, 21:47:56,9.968499,0.2632105,1.0480564,0.014653334,-0.0061055557,0.0,10.02689771997521,0.01587444547420511,stand
09/07/2020, 21:47:56,9.906285,0.2632105,1.0001999,0.014653334,-0.0061055557,0.0,9.960128905020198,0.01587444547420511,stand
09/07/2020, 21:47:56,9.906285,0.2632105,1.0001999,0.015874445,-0.008547778,0.0,9.960128905020198,0.018029490587349543,stand
09/07/2020, 21:47:56,9.848858,0.2440679,1.0193424,0.015874445,-0.008547778,0.0,9.904475233498701,0.018029490587349543,stand
09/07/2020, 21:47:56,9.848858,0.2440679,1.0193424,0.013432222,-0.0061055557,0.0036633336,9.904475233498701,0.01520271102146125,stand
09/07/2020, 21:47:56,9.868001,0.2656033,1.0025927,0.013432222,-0.0061055557,0.0036633336,9.922357614334453,0.01520271102146125,stand
09/07/2020, 21:47:56,9.868001,0.2656033,1.0025927,0.013432222,0.0,-0.0012211112,9.922357614334453,0.013487613264269558,stand
09/07/2020, 21:47:56,9.858429,0.25603202,1.0025927,0.013432222,0.0,-0.0012211112,9.912586238978921,0.013487613264269558,stand
09/07/2020, 21:47:56,9.858429,0.25603202,1.0025927,0.015874445,-0.0012211112,-0.0036633336,9.912586238978921,0.01633735423797664,stand
09/07/2020, 21:47:56,9.846465,0.27756742,1.0217353,0.015874445,-0.0012211112,-0.0036633336,9.903224822919128,0.01633735423797664,stand
09/07/2020, 21:47:56,9.846465,0.27756742,1.0217353,0.017095556,-0.0048844446,0.0,9.903224822919128,0.017779647097761735,stand
09/07/2020, 21:47:56,9.853643,0.2536392,0.9906286,0.017095556,-0.0048844446,0.0,9.906561787988595,0.017779647097761735,stand
09/07/2020, 21:47:56,9.853643,0.2536392,0.9906286,0.015874445,-0.0061055557,0.0012211112,9.906561787988595,0.01705188965162898,stand
09/07/2020, 21:47:56,9.853643,0.22492532,0.9906286,0.015874445,-0.0061055557,0.0012211112,9.905868211386021,0.01705188965162898,stand
09/07/2020, 21:47:56,9.853643,0.22492532,0.9906286,0.017095556,-0.0036633336,0.0,9.905868211386021,0.01748365134937006,stand
09/07/2020, 21:47:57,9.939785,0.24885355,1.0336994,0.012211111,-0.0036633336,-0.0012211112,9.996488805761128,0.012807121710750326,stand
09/07/2020, 21:47:57,9.937392,0.25124636,1.0313065,0.012211111,-0.0036633336,-0.0012211112,9.993922266601103,0.012807121710750326,stand
09/07/2020, 21:47:57,9.937392,0.25124636,1.0313065,0.015874445,0.0,-0.0048844446,9.993922266601103,0.01660890777399157,stand
09/07/2020, 21:47:57,9.937392,0.23688944,1.038485,0.015874445,0.0,-0.0048844446,9.994314995690633,0.01660890777399157,stand
09/07/2020, 21:47:57,9.937392,0.23688944,1.038485,0.02198,-0.007326667,0.0024422223,9.994314995690633,0.023297315963203155,stand
09/07/2020, 21:47:57,9.973285,0.23928227,1.0241281,0.02198,-0.007326667,0.0024422223,10.02858426993247,0.023297315963203155,stand
09/07/2020, 21:47:57,9.973285,0.23928227,1.0241281,0.017095556,-0.0036633336,0.0,10.02858426993247,0.01748365134937006,stand
09/07/2020, 21:47:57,9.966106,0.2440679,1.026521,0.017095556,-0.0036633336,0.0,10.021805800906835,0.01748365134937006,stand
09/07/2020, 21:47:57,9.966106,0.2440679,1.026521,0.009768889,0.0,-0.0061055557,10.021805800906835,0.011519939588515877,stand
09/07/2020, 21:47:57,9.856036,0.2536392,0.9810573,0.009768889,0.0,-0.0061055557,9.907989480332581,0.011519939588515877,stand
09/07/2020, 21:47:57,9.856036,0.2536392,0.9810573,0.014653334,-0.008547778,-0.0048844446,9.907989480332581,0.017653399706486956,stand
09/07/2020, 21:47:57,9.894321,0.24646074,1.0001999,0.014653334,-0.008547778,-0.0048844446,9.947800739505967,0.017653399706486956,stand
09/07/2020, 21:47:57,9.894321,0.24646074,1.0001999,0.018316668,-0.0036633336,-0.0024422223,9.947800739505967,0.018838385605312775,stand
09/07/2020, 21:47:57,9.8632145,0.27038896,1.0049855,0.018316668,-0.0036633336,-0.0024422223,9.91796884846923,0.018838385605312775,stand
09/07/2020, 21:47:57,9.8632145,0.27038896,1.0049855,0.017095556,0.0012211112,-0.0012211112,9.91796884846923,0.01718255732962469,stand
09/07/2020, 21:47:57,9.925428,0.2727818,0.9882358,0.017095556,0.0012211112,-0.0012211112,9.978233740495229,0.01718255732962469,stand
09/07/2020, 21:47:57,9.925428,0.2727818,0.9882358,0.02075889,-0.009768889,0.0048844446,9.978233740495229,0.023456779306065705,stand
09/07/2020, 21:47:57,9.894321,0.26081768,1.0049855,0.02075889,-0.009768889,0.0048844446,9.948649074590488,0.023456779306065705,stand
09/07/2020, 21:47:57,9.894321,0.26081768,1.0049855,0.012211111,-0.0048844446,0.0,9.948649074590488,0.013151769480256134,stand
09/07/2020, 21:47:57,9.930214,0.2536392,1.0025927,0.012211111,-0.0048844446,0.0,9.983920752257449,0.013151769480256134,stand
09/07/2020, 21:47:58,9.956535,0.25603202,1.0217353,0.017095556,-0.007326667,-0.0012211112,10.0120972530164,0.01863945321449518,stand
09/07/2020, 21:47:58,9.956535,0.25603202,1.0217353,0.018316668,-0.01099,0.0,10.0120972530164,0.021360721348883893,stand
09/07/2020, 21:47:58,9.908679,0.24885355,1.0001999,0.018316668,-0.01099,0.0,9.962140716237734,0.021360721348883893,stand
09/07/2020, 21:47:58,9.908679,0.24885355,1.0001999,0.014653334,0.0012211112,-0.0036633336,9.962140716237734,0.015153591468233078,stand
09/07/2020, 21:47:58,9.985249,0.24885355,1.0193424,0.014653334,0.0012211112,-0.0036633336,10.04022788494361,0.015153591468233078,stand
09/07/2020, 21:47:58,9.985249,0.24885355,1.0193424,0.014653334,-0.0024422223,-0.0036633336,10.04022788494361,0.015300479462634062,stand
09/07/2020, 21:47:58,9.970892,0.2440679,1.0504491,0.014653334,-0.0024422223,-0.0036633336,10.029042768527932,0.015300479462634062,stand
09/07/2020, 21:47:58,9.970892,0.2440679,1.0504491,0.018316668,-0.0061055557,0.0,10.029042768527932,0.01930746279399445,stand
09/07/2020, 21:47:58,9.97807,0.2656033,1.0313065,0.018316668,-0.0061055557,0.0,10.034740869506448,0.01930746279399445,stand
09/07/2020, 21:47:58,9.97807,0.2656033,1.0313065,0.019537779,-0.0024422223,-0.0024422223,10.034740869506448,0.019840707931761587,stand
09/07/2020, 21:47:58,9.942178,0.2440679,1.0169497,0.019537779,-0.0024422223,-0.0024422223,9.99703228972624,0.019840707931761587,stand
09/07/2020, 21:47:58,9.942178,0.2440679,1.0169497,0.015874445,-0.0048844446,-0.0024422223,9.99703228972624,0.016787503307881473,stand
09/07/2020, 21:47:58,9.999606,0.2656033,1.0097711,0.015874445,-0.0048844446,-0.0024422223,10.053969644480933,0.016787503307881473,stand
09/07/2020, 21:47:58,9.999606,0.2656033,1.0097711,0.014653334,0.0,-0.0012211112,10.053969644480933,0.014704125996876833,stand
09/07/2020, 21:47:58,9.961321,0.2656033,1.0408778,0.014653334,0.0,-0.0012211112,10.019076073436883,0.014704125996876833,stand
09/07/2020, 21:47:58,9.961321,0.2656033,1.0408778,0.014653334,-0.0024422223,-0.0061055557,10.019076073436883,0.016061210072117384,stand
09/07/2020, 21:47:58,9.9038925,0.2416751,1.0313065,0.014653334,-0.0024422223,-0.0061055557,9.960375843746634,0.016061210072117384,stand
09/07/2020, 21:47:58,9.9038925,0.2416751,1.0313065,0.012211111,-0.0036633336,-0.0048844446,9.960375843746634,0.013652437640065379,stand
09/07/2020, 21:47:58,9.939785,0.23449662,1.0217353,0.012211111,-0.0036633336,-0.0048844446,9.994911586912048,0.013652437640065379,stand
09/07/2020, 21:47:58,9.939785,0.23449662,1.0217353,0.018316668,-0.007326667,0.0,9.994911586912048,0.01972765473921098,stand
09/07/2020, 21:47:59,9.987641,0.23928227,1.0073783,0.014653334,-0.0024422223,0.0012211112,10.041167588941454,0.014905561753895855,stand
09/07/2020, 21:47:59,9.956535,0.25603202,1.0313065,0.014653334,-0.0024422223,0.0012211112,10.013078520949447,0.014905561753895855,stand
09/07/2020, 21:47:59,9.956535,0.25603202,1.0313065,0.013432222,-0.0048844446,-0.0012211112,10.013078520949447,0.014344807807537718,stand
09/07/2020, 21:47:59,9.858429,0.2536392,1.0432707,0.013432222,-0.0048844446,-0.0012211112,9.916721639235806,0.014344807807537718,stand
09/07/2020, 21:47:59,9.858429,0.2536392,1.0432707,0.015874445,-0.0036633336,-0.0061055557,9.916721639235806,0.017398156260897742,stand
09/07/2020, 21:47:59,9.877572,0.22731815,1.0217353,0.015874445,-0.0036633336,-0.0061055557,9.932877044473544,0.017398156260897742,stand
09/07/2020, 21:47:59,9.877572,0.22731815,1.0217353,0.015874445,-0.0036633336,0.0,9.932877044473544,0.016291655257534142,stand
09/07/2020, 21:47:59,9.894321,0.22253251,0.9882358,0.015874445,-0.0036633336,0.0,9.946040792668573,0.016291655257534142,stand
09/07/2020, 21:47:59,9.894321,0.22253251,0.9882358,0.01099,-0.0048844446,0.0024422223,9.946040792668573,0.01227201518037393,stand
09/07/2020, 21:47:59,9.889536,0.23449662,1.0169497,0.01099,-0.0048844446,0.0024422223,9.944450495601622,0.01227201518037393,stand
09/07/2020, 21:47:59,9.889536,0.23449662,1.0169497,0.01099,-0.0048844446,-0.0024422223,9.944450495601622,0.01227201518037393,stand
09/07/2020, 21:47:59,9.891929,0.2656033,1.0313065,0.01099,-0.0048844446,-0.0024422223,9.949089962921104,0.01227201518037393,stand
09/07/2020, 21:47:59,9.891929,0.2656033,1.0313065,0.014653334,-0.0048844446,-0.0024422223,9.949089962921104,0.01563785337573877,stand
09/07/2020, 21:47:59,9.853643,0.22492532,1.0504491,0.014653334,-0.0048844446,-0.0024422223,9.912029226087979,0.01563785337573877,stand
09/07/2020, 21:47:59,9.853643,0.22492532,1.0504491,0.014653334,-0.0012211112,-0.0036633336,9.912029226087979,0.015153591468233078,stand
09/07/2020, 21:47:59,9.925428,0.22253251,1.0241281,0.014653334,-0.0012211112,-0.0036633336,9.980605581646364,0.015153591468233078,stand
09/07/2020, 21:47:59,9.925428,0.22253251,1.0241281,0.019537779,0.0,0.0,9.980605581646364,0.019537778571248055,stand
09/07/2020, 21:47:59,9.937392,0.2416751,1.0289137,0.019537779,0.0,0.0,9.993439585852952,0.019537778571248055,stand
09/07/2020, 21:47:59,9.937392,0.2416751,1.0289137,0.017095556,0.0,0.0061055557,9.993439585852952,0.01815312264324041,stand
09/07/2020, 21:47:59,9.875179,0.25603202,1.0241281,0.017095556,0.0,0.0061055557,9.93144283289781,0.01815312264324041,stand
09/07/2020, 21:48:00,9.9038925,0.25842485,1.0193424,0.02075889,-0.007326667,-0.0048844446,9.959564717726108,0.0225492649493282,stand
09/07/2020, 21:48:00,9.91825,0.26081768,1.012164,0.02075889,-0.007326667,-0.0048844446,9.973173343724463,0.0225492649493282,stand
09/07/2020, 21:48:00,9.91825,0.26081768,1.012164,0.015874445,-0.0048844446,0.0,9.973173343724463,0.01660890777399157,stand
09/07/2020, 21:48:00,9.920643,0.2321038,1.0313065,0.015874445,-0.0048844446,0.0,9.976804092078767,0.01660890777399157,stand
09/07/2020, 21:48:00,9.920643,0.2321038,1.0313065,0.01099,-0.0036633336,0.0,9.976804092078767,0.011584477558592649,stand
09/07/2020, 21:48:00,9.946963,0.24885355,1.0336994,0.01099,-0.0036633336,0.0,10.003626423451443,0.011584477558592649,stand
09/07/2020, 21:48:00,9.946963,0.24885355,1.0336994,0.014653334,-0.009768889,-0.0024422223,10.003626423451443,0.017779647257670478,stand
09/07/2020, 21:48:00,9.906285,0.30149564,1.0360922,0.014653334,-0.009768889,-0.0024422223,9.964882074409157,0.017779647257670478,stand
09/07/2020, 21:48:00,9.906285,0.30149564,1.0360922,0.018316668,-0.008547778,-0.0036633336,9.964882074409157,0.020542269475652998,stand
09/07/2020, 21:48:00,9.923036,0.28235307,1.0193424,0.018316668,-0.008547778,-0.0036633336,9.979249379623225,0.020542269475652998,stand
09/07/2020, 21:48:00,9.923036,0.28235307,1.0193424,0.015874445,-0.0061055557,-0.0036633336,9.979249379623225,0.017398156260897742,stand
09/07/2020, 21:48:00,9.934999,0.24885355,1.0145568,0.015874445,-0.0061055557,-0.0036633336,9.989768160865458,0.017398156260897742,stand
09/07/2020, 21:48:00,9.934999,0.24885355,1.0145568,0.012211111,-0.0012211112,0.0012211112,9.989768160865458,0.012332617967272341,stand
09/07/2020, 21:48:00,9.894321,0.24646074,1.0145568,0.012211111,-0.0012211112,0.0012211112,9.949254500490417,0.012332617967272341,stand
09/07/2020, 21:48:00,9.894321,0.24646074,1.0145568,0.014653334,-0.0048844446,-0.0012211112,9.949254500490417,0.015494164088479381,stand
09/07/2020, 21:48:00,9.784252,0.25842485,1.0193424,0.014653334,-0.0048844446,-0.0012211112,9.840601243776744,0.015494164088479381,stand
09/07/2020, 21:48:00,9.784252,0.25842485,1.0193424,0.015874445,-0.007326667,-0.0048844446,9.840601243776744,0.018153122862506785,stand
09/07/2020, 21:48:00,9.911072,0.2656033,1.0097711,0.015874445,-0.007326667,-0.0048844446,9.965918250845016,0.018153122862506785,stand
09/07/2020, 21:48:00,9.911072,0.2656033,1.0097711,0.017095556,-0.0061055557,0.0012211112,9.965918250845016,0.018194146700720018,stand
09/07/2020, 21:48:00,9.865608,0.2536392,1.0073783,0.017095556,-0.0061055557,0.0012211112,9.920149667080029,0.018194146700720018,stand
09/07/2020, 21:48:01,9.889536,0.29192436,1.0025927,0.014653334,-0.0024422223,0.0012211112,9.944512673493186,0.014905561753895855,stand
09/07/2020, 21:48:01,9.889536,0.29192436,1.0025927,0.015874445,-0.0048844446,-0.0024422223,9.944512673493186,0.016787503307881473,stand
09/07/2020, 21:48:01,9.889536,0.29671,1.0145568,0.015874445,-0.0048844446,-0.0024422223,9.945867617170531,0.016787503307881473,stand
09/07/2020, 21:48:01,9.889536,0.29671,1.0145568,0.017095556,-0.0036633336,0.0,9.945867617170531,0.01748365134937006,stand
09/07/2020, 21:48:01,9.9038925,0.25603202,1.0169497,0.017095556,-0.0036633336,0.0,9.959258304877302,0.01748365134937006,stand
09/07/2020, 21:48:01,9.9038925,0.25603202,1.0169497,0.018316668,-0.0048844446,0.0,9.959258304877302,0.018956743094790826,stand
09/07/2020, 21:48:01,9.913465,0.2536392,0.9954142,0.018316668,-0.0048844446,0.0,9.966542107106125,0.018956743094790826,stand
09/07/2020, 21:48:01,9.913465,0.2536392,0.9954142,0.015874445,-0.0061055557,0.0,9.966542107106125,0.01700811066005093,stand
09/07/2020, 21:48:01,9.8727865,0.24885355,1.0073783,0.015874445,-0.0061055557,0.0,9.927167416524316,0.01700811066005093,stand
09/07/2020, 21:48:01,9.8727865,0.24885355,1.0073783,0.014653334,-0.0012211112,-0.0024422223,9.927167416524316,0.014905561753895855,stand
09/07/2020, 21:48:01,9.870394,0.25603202,1.0193424,0.014653334,-0.0012211112,-0.0024422223,9.92619182817619,0.014905561753895855,stand
09/07/2020, 21:48:01,9.870394,0.25603202,1.0193424,0.014653334,-0.0048844446,-0.0048844446,9.92619182817619,0.016199870610675435,stand
09/07/2020, 21:48:01,9.927821,0.22971097,1.0001999,0.014653334,-0.0048844446,-0.0048844446,9.980721415222208,0.016199870610675435,stand
09/07/2020, 21:48:01,9.927821,0.22971097,1.0001999,0.018316668,-0.0012211112,0.0,9.980721415222208,0.01835732610594468,stand
09/07/2020, 21:48:01,9.966106,0.25603202,0.997807,0.018316668,-0.0012211112,0.0,10.019203976721954,0.01835732610594468,stand
09/07/2020, 21:48:01,9.966106,0.25603202,0.997807,0.019537779,-0.0061055557,0.0061055557,10.019203976721954,0.021360721242403555,stand
09/07/2020, 21:48:01,9.899107,0.26081768,1.0145568,0.019537779,-0.0061055557,0.0061055557,9.954379452284938,0.021360721242403555,stand
09/07/2020, 21:48:01,9.899107,0.26081768,1.0145568,0.018316668,-0.0048844446,0.0024422223,9.954379452284938,0.01911341305547163,stand
09/07/2020, 21:48:01,9.939785,0.27996024,1.0241281,0.018316668,-0.0048844446,0.0024422223,9.996326424281685,0.01911341305547163,stand
09/07/2020, 21:48:01,9.939785,0.27996024,1.0241281,0.02075889,-0.009768889,-0.0024422223,9.996326424281685,0.02307221588430446,stand
09/07/2020, 21:48:02,9.963714,0.23688944,0.9738788,0.012211111,-0.0061055557,-0.0024422223,10.013997510597921,0.013869156467087352,stand
09/07/2020, 21:48:02,9.963714,0.23688944,0.9738788,0.015874445,-0.0061055557,0.0012211112,10.013997510597921,0.01705188965162898,stand
09/07/2020, 21:48:02,9.970892,0.22971097,1.0025927,0.015874445,-0.0061055557,0.0012211112,10.023803945831313,0.01705188965162898,stand
09/07/2020, 21:48:02,9.970892,0.22971097,1.0025927,0.015874445,-0.008547778,0.0024422223,10.023803945831313,0.01819414688042557,stand
09/07/2020, 21:48:02,9.970892,0.27996024,1.0313065,0.015874445,-0.008547778,0.0024422223,10.027993676459765,0.01819414688042557,stand
09/07/2020, 21:48:02,9.970892,0.27996024,1.0313065,0.015874445,-0.0036633336,-0.0061055557,10.027993676459765,0.017398156260897742,stand
09/07/2020, 21:48:02,9.8727865,0.23928227,1.0193424,0.015874445,-0.0036633336,-0.0061055557,9.92815333705155,0.017398156260897742,stand
09/07/2020, 21:48:02,9.8727865,0.23928227,1.0193424,0.015874445,-0.0012211112,-0.0024422223,9.92815333705155,0.016107562829622297,stand
09/07/2020, 21:48:02,9.913465,0.2727818,1.0169497,0.015874445,-0.0012211112,-0.0024422223,9.969221424535633,0.016107562829622297,stand
09/07/2020, 21:48:02,9.913465,0.2727818,1.0169497,0.013432222,-0.0024422223,0.0048844446,9.969221424535633,0.01449989132495742,stand
09/07/2020, 21:48:02,9.956535,0.27038896,0.9810573,0.013432222,-0.0024422223,0.0048844446,10.008405445069974,0.01449989132495742,stand
09/07/2020, 21:48:02,9.956535,0.27038896,0.9810573,0.01099,-0.008547778,0.0048844446,10.008405445069974,0.01475474227437462,stand
09/07/2020, 21:48:02,9.949356,0.26799613,0.9906286,0.01099,-0.008547778,0.0048844446,10.002142437453054,0.01475474227437462,stand
09/07/2020, 21:48:02,9.949356,0.26799613,0.9906286,0.01099,-0.0048844446,-0.0024422223,10.002142437453054,0.01227201518037393,stand
09/07/2020, 21:48:02,9.856036,0.27038896,1.0289137,0.01099,-0.0048844446,-0.0024422223,9.913285175511858,0.01227201518037393,stand
09/07/2020, 21:48:02,9.856036,0.27038896,1.0289137,0.01099,-0.0036633336,-0.0048844446,9.913285175511858,0.01257210880378593,stand
09/07/2020, 21:48:02,9.812965,0.27517462,0.98584294,0.01099,-0.0036633336,-0.0048844446,9.866199733657476,0.01257210880378593,stand
09/07/2020, 21:48:02,9.812965,0.27517462,0.98584294,0.014653334,-0.0024422223,-0.0012211112,9.866199733657476,0.014905561753895855,stand
09/07/2020, 21:48:02,9.856036,0.23928227,1.0049855,0.014653334,-0.0024422223,-0.0012211112,9.910030326122055,0.014905561753895855,stand
09/07/2020, 21:48:02,9.856036,0.23928227,1.0049855,0.013432222,-0.0036633336,0.0036633336,9.910030326122055,0.014396687994391666,stand
09/07/2020, 21:48:03,9.944571,0.24885355,0.997807,0.013432222,-0.0036633336,-0.0048844446,9.99760122241847,0.014754742004605803,stand
09/07/2020, 21:48:03,9.944571,0.24885355,0.997807,0.014653334,-0.0012211112,-0.0024422223,9.99760122241847,0.014905561753895855,stand
09/07/2020, 21:48:03,9.908679,0.2632105,1.0001999,0.014653334,-0.0012211112,-0.0024422223,9.962509690392498,0.014905561753895855,stand
09/07/2020, 21:48:03,9.908679,0.2632105,1.0001999,0.02198,-0.009768889,0.0,9.962509690392498,0.024053100151136812,stand
09/07/2020, 21:48:03,9.934999,0.26081768,1.0360922,0.02198,-0.009768889,0.0,9.992283383553012,0.024053100151136812,stand
09/07/2020, 21:48:03,9.934999,0.26081768,1.0360922,0.02075889,-0.0061055557,-0.0036633336,9.992283383553012,0.021946054801999154,stand
09/07/2020, 21:48:03,9.906285,0.23449662,1.012164,0.02075889,-0.0061055557,-0.0036633336,9.96062010063434,0.021946054801999154,stand
09/07/2020, 21:48:03,9.906285,0.23449662,1.012164,0.013432222,0.0048844446,-0.0036633336,9.96062010063434,0.014754742004605803,stand
09/07/2020, 21:48:03,9.961321,0.2440679,1.0289137,0.013432222,0.0048844446,-0.0036633336,10.017292360527387,0.014754742004605803,stand
09/07/2020, 21:48:03,9.961321,0.2440679,1.0289137,0.01099,-0.0061055557,-0.0024422223,10.017292360527387,0.012807121744049622,stand
09/07/2020, 21:48:03,9.932607,0.22253251,1.026521,0.01099,-0.0061055557,-0.0024422223,9.987989878546927,0.012807121744049622,stand
09/07/2020, 21:48:03,9.932607,0.22253251,1.026521,0.014653334,-0.0061055557,0.0012211112,9.987989878546927,0.015921342015681485,stand
09/07/2020, 21:48:03,9.856036,0.23688944,1.0480564,0.014653334,-0.0061055557,0.0012211112,9.914433319740276,0.015921342015681485,stand
09/07/2020, 21:48:03,9.856036,0.23688944,1.0480564,0.014653334,-0.0012211112,-0.0024422223,9.914433319740276,0.014905561753895855,stand
09/07/2020, 21:48:03,9.944571,0.22492532,1.0456635,0.014653334,-0.0012211112,-0.0024422223,10.00192415283481,0.014905561753895855,stand
09/07/2020, 21:48:03,9.944571,0.22492532,1.0456635,0.01099,-0.008547778,0.0012211112,10.00192415283481,0.013976256028755196,stand
09/07/2020, 21:48:03,9.894321,0.24646074,1.0241281,0.01099,-0.008547778,0.0012211112,9.950235073003936,0.013976256028755196,stand
09/07/2020, 21:48:03,9.894321,0.24646074,1.0241281,0.009768889,-0.0061055557,0.0036633336,9.950235073003936,0.01208838372889993,stand
09/07/2020, 21:48:03,9.856036,0.23449662,1.0097711,0.009768889,-0.0061055557,0.0036633336,9.910402396582638,0.01208838372889993,stand
09/07/2020, 21:48:03,9.856036,0.23449662,1.0097711,0.01099,-0.0024422223,-0.0024422223,9.910402396582638,0.01151993953915588,stand
09/07/2020, 21:48:04,9.9038925,0.2656033,1.0217353,0.013432222,-0.0024422223,-0.0036633336,9.959998752507435,0.014135383334772272,stand
09/07/2020, 21:48:04,9.834501,0.27996024,1.0289137,0.013432222,-0.0024422223,-0.0036633336,9.892141142136214,0.014135383334772272,stand
09/07/2020, 21:48:04,9.834501,0.27996024,1.0289137,0.014653334,-0.0048844446,-0.0036633336,9.892141142136214,0.015874445545845307,stand
09/07/2020, 21:48:04,9.923036,0.26081768,1.026521,0.014653334,-0.0048844446,-0.0036633336,9.97939913549923,0.015874445545845307,stand
09/07/2020, 21:48:04,9.923036,0.26081768,1.026521,0.01099,-0.01099,0.0,9.97939913549923,0.015542207517045927,stand
09/07/2020, 21:48:04,9.932607,0.23688944,0.9810573,0.01099,-0.01099,0.0,9.983750087173863,0.015542207517045927,stand
09/07/2020, 21:48:04,9.932607,0.23688944,0.9810573,0.015874445,-0.0024422223,0.0,9.983750087173863,0.01606121003671381,stand
09/07/2020, 21:48:04,9.891929,0.2536392,1.026521,0.015874445,-0.0024422223,0.0,9.948282816831615,0.01606121003671381,stand
09/07/2020, 21:48:04,9.891929,0.2536392,1.026521,0.014653334,-0.0048844446,0.0012211112,9.948282816831615,0.015494164088479381,stand
09/07/2020, 21:48:08,9.891929,0.2632105,1.038485,0.014653334,-0.0048844446,0.0012211112,9.949773054554543,0.015494164088479381,stand
09/07/2020, 21:48:08,9.891929,0.2632105,1.038485,0.015874445,-0.0061055557,0.0,9.949773054554543,0.01700811066005093,stand
09/07/2020, 21:48:08,9.939785,0.24885355,1.012164,0.015874445,-0.0061055557,0.0,9.99428486507486,0.01700811066005093,stand
09/07/2020, 21:48:08,9.939785,0.24885355,1.012164,0.019537779,-0.0061055557,0.0024422223,9.99428486507486,0.02061472899687427,stand
09/07/2020, 21:48:08,9.9015,0.2536392,1.026521,0.019537779,-0.0061055557,0.0024422223,9.957799726861863,0.02061472899687427,stand
09/07/2020, 21:48:08,9.9015,0.2536392,1.026521,0.02075889,-0.007326667,0.0036633336,9.957799726861863,0.022316620786767508,stand
09/07/2020, 21:48:08,9.911072,0.28953153,1.0360922,0.02075889,-0.007326667,0.0036633336,9.96928579439609,0.022316620786767508,stand
09/07/2020, 21:48:08,9.911072,0.28953153,1.0360922,0.015874445,0.0024422223,-0.0024422223,9.96928579439609,0.016245827701616502,stand
09/07/2020, 21:48:08,9.968499,0.26799613,1.0360922,0.015874445,0.0024422223,-0.0024422223,10.02578101047122,0.016245827701616502,stand
09/07/2020, 21:48:08,9.968499,0.26799613,1.0360922,0.014653334,-0.0061055557,-0.0012211112,10.02578101047122,0.015921342015681485,stand
09/07/2020, 21:48:08,10.0163555,0.24646074,1.0600204,0.014653334,-0.0061055557,-0.0012211112,10.07530466215582,0.015921342015681485,stand
09/07/2020, 21:48:08,10.0163555,0.24646074,1.0600204,0.015874445,-0.007326667,0.0,10.07530466215582,0.017483651511986036,stand
09/07/2020, 21:48:08,9.937392,0.24646074,1.0456635,0.015874445,-0.007326667,0.0,9.995294864465887,0.017483651511986036,stand
09/07/2020, 21:48:08,9.937392,0.24646074,1.0456635,0.015874445,-0.0061055557,0.0012211112,9.995294864465887,0.01705188965162898,stand
09/07/2020, 21:48:08,9.9038925,0.2440679,1.0145568,0.015874445,-0.0061055557,0.0012211112,9.958713850894323,0.01705188965162898,stand
09/07/2020, 21:48:08,9.9038925,0.2440679,1.0145568,0.013432222,-0.0048844446,0.0012211112,9.958713850894323,0.014344807807537718,stand
09/07/2020, 21:48:08,9.853643,0.2536392,0.997807,0.013432222,-0.0048844446,0.0012211112,9.907282185181424,0.014344807807537718,stand
09/07/2020, 21:48:08,9.853643,0.2536392,0.997807,0.014653334,-0.009768889,-0.0024422223,9.907282185181424,0.017779647257670478,stand
09/07/2020, 21:48:08,9.923036,0.2632105,1.0073783,0.014653334,-0.009768889,-0.0024422223,9.977511054261091,0.017779647257670478,stand
09/07/2020, 21:48:08,9.923036,0.2632105,1.0073783,0.019537779,-0.007326667,0.0,9.977511054261091,0.020866356742743297,stand
09/07/2020, 21:48:09,9.949356,0.21296121,1.038485,0.015874445,-0.0012211112,-0.0036633336,10.005672894212493,0.01633735423797664,stand
09/07/2020, 21:48:09,9.949356,0.21296121,1.038485,0.015874445,-0.0048844446,0.0,10.005672894212493,0.01660890777399157,stand
09/07/2020, 21:48:09,9.887143,0.25603202,1.0169497,0.015874445,-0.0048844446,0.0,9.942602192915945,0.01660890777399157,stand
09/07/2020, 21:48:09,9.887143,0.25603202,1.0169497,0.015874445,-0.0024422223,0.0,9.942602192915945,0.01606121003671381,stand
09/07/2020, 21:48:09,9.939785,0.25603202,1.0145568,0.015874445,-0.0024422223,0.0,9.994708787391087,0.01606121003671381,stand
09/07/2020, 21:48:09,9.939785,0.25603202,1.0145568,0.017095556,-0.0061055557,-0.0024422223,9.994708787391087,0.018316667589048544,stand
09/07/2020, 21:48:09,9.923036,0.24646074,1.0313065,0.017095556,-0.0061055557,-0.0024422223,9.979527641645259,0.018316667589048544,stand
09/07/2020, 21:48:09,9.923036,0.24646074,1.0313065,0.015874445,-0.0061055557,-0.0012211112,9.979527641645259,0.01705188965162898,stand
09/07/2020, 21:48:09,10.006784,0.23688944,1.0145568,0.015874445,-0.0061055557,-0.0012211112,10.060873562776495,0.01705188965162898,stand
09/07/2020, 21:48:09,10.006784,0.23688944,1.0145568,0.014653334,-0.008547778,0.0024422223,10.060873562776495,0.017139112333941702,stand
09/07/2020, 21:48:09,10.037891,0.2656033,1.0169497,0.014653334,-0.008547778,0.0024422223,10.092769452886833,0.017139112333941702,stand
09/07/2020, 21:48:09,10.037891,0.2656033,1.0169497,0.015874445,-0.0048844446,0.0024422223,10.092769452886833,0.016787503307881473,stand
09/07/2020, 21:48:09,9.973285,0.2440679,0.9954142,0.015874445,-0.0048844446,0.0024422223,10.025808032346683,0.016787503307881473,stand
09/07/2020, 21:48:09,9.973285,0.2440679,0.9954142,0.015874445,-0.0061055557,0.0012211112,10.025808032346683,0.01705188965162898,stand
09/07/2020, 21:48:09,9.860822,0.2656033,1.0025927,0.015874445,-0.0061055557,0.0012211112,9.915217711881876,0.01705188965162898,stand
09/07/2020, 21:48:09,9.860822,0.2656033,1.0025927,0.019537779,0.0,0.0012211112,9.915217711881876,0.019575901102271462,stand
09/07/2020, 21:48:09,9.882358,0.27038896,1.026521,0.019537779,0.0,0.0012211112,9.939207572475233,0.019575901102271462,stand
09/07/2020, 21:48:09,9.882358,0.27038896,1.026521,0.015874445,0.0,-0.0036633336,9.939207572475233,0.016291655257534142,stand
09/07/2020, 21:48:09,9.839287,0.28235307,0.997807,0.015874445,0.0,-0.0036633336,9.893781225309063,0.016291655257534142,stand
09/07/2020, 21:48:09,9.839287,0.28235307,0.997807,0.019537779,-0.0048844446,-0.0024422223,9.893781225309063,0.020286622213542313,stand
09/07/2020, 21:48:10,9.887143,0.23928227,1.0241281,0.014653334,-0.0048844446,-0.0036633336,9.942921788836134,0.015874445545845307,stand
09/07/2020, 21:48:10,9.887143,0.23928227,1.0241281,0.015874445,-0.0012211112,-0.0048844446,9.942921788836134,0.01665373621478829,stand
09/07/2020, 21:48:10,9.88475,0.24646074,1.0073783,0.015874445,-0.0012211112,-0.0048844446,9.939006178488366,0.01665373621478829,stand
09/07/2020, 21:48:10,9.88475,0.24646074,1.0073783,0.013432222,-0.0048844446,0.0012211112,9.939006178488366,0.014344807807537718,stand
09/07/2020, 21:48:10,9.810573,0.21774685,1.0217353,0.013432222,-0.0048844446,0.0012211112,9.866037297315318,0.014344807807537718,stand
09/07/2020, 21:48:10,9.810573,0.21774685,1.0217353,0.014653334,-0.009768889,0.0036633336,9.866037297315318,0.01798809105475322,stand
09/07/2020, 21:48:10,9.870394,0.22013968,1.012164,0.014653334,-0.009768889,0.0036633336,9.924596227364203,0.01798809105475322,stand
09/07/2020, 21:48:10,9.870394,0.22013968,1.012164,0.018316668,-0.007326667,0.0024422223,9.924596227364203,0.019878249706065353,stand
09/07/2020, 21:48:10,9.930214,0.2321038,1.0073783,0.018316668,-0.007326667,0.0024422223,9.983878602590606,0.019878249706065353,stand
09/07/2020, 21:48:10,9.930214,0.2321038,1.0073783,0.012211111,-0.0012211112,-0.0036633336,9.983878602590606,0.012807121710750326,stand
09/07/2020, 21:48:10,9.949356,0.2440679,0.99302137,0.012211111,-0.0012211112,-0.0036633336,10.001767192421399,0.012807121710750326,stand
09/07/2020, 21:48:10,9.949356,0.2440679,0.99302137,0.012211111,-0.0036633336,-0.0024422223,10.001767192421399,0.012980589505656233,stand
09/07/2020, 21:48:10,9.877572,0.24885355,0.9882358,0.012211111,-0.0036633336,-0.0024422223,9.930003415035674,0.012980589505656233,stand
09/07/2020, 21:48:10,9.877572,0.24885355,0.9882358,0.014653334,-0.0012211112,-0.0036633336,9.930003415035674,0.015153591468233078,stand
09/07/2020, 21:48:10,9.906285,0.2632105,0.9954142,0.014653334,-0.0012211112,-0.0036633336,9.959649459753642,0.015153591468233078,stand
09/07/2020, 21:48:10,9.906285,0.2632105,0.9954142,0.018316668,-0.008547778,0.0048844446,9.959649459753642,0.020794773901751436,stand
09/07/2020, 21:48:10,9.91825,0.27038896,0.9906286,0.018316668,-0.008547778,0.0048844446,9.971265714078898,0.020794773901751436,stand
09/07/2020, 21:48:10,9.91825,0.27038896,0.9906286,0.015874445,-0.0061055557,0.0024422223,9.971265714078898,0.01718255737926435,stand
09/07/2020, 21:48:10,9.966106,0.2847459,1.0025927,0.015874445,-0.0061055557,0.0024422223,10.020456545851726,0.01718255737926435,stand
09/07/2020, 21:48:10,9.966106,0.2847459,1.0025927,0.014653334,-0.007326667,-0.0024422223,10.020456545851726,0.016563958190864838,stand
09/07/2020, 21:48:11,9.817751,0.2536392,1.0169497,0.013432222,0.0,-0.0012211112,9.873538007035243,0.013487613264269558,stand
09/07/2020, 21:48:11,9.925428,0.27756742,1.0480564,0.013432222,0.0,-0.0012211112,9.984467664723566,0.013487613264269558,stand
09/07/2020, 21:48:11,9.925428,0.27756742,1.0480564,0.009768889,-0.0012211112,-0.0048844446,9.984467664723566,0.01099000044632703,stand
09/07/2020, 21:48:11,9.963714,0.27517462,1.0552348,0.009768889,-0.0012211112,-0.0048844446,10.023214611598524,0.01099000044632703,stand
09/07/2020, 21:48:11,9.963714,0.27517462,1.0552348,0.015874445,-0.0012211112,-0.0036633336,10.023214611598524,0.01633735423797664,stand
09/07/2020, 21:48:11,9.949356,0.26799613,1.0600204,0.015874445,-0.0012211112,-0.0036633336,10.009253301985547,0.01633735423797664,stand
09/07/2020, 21:48:11,9.949356,0.26799613,1.0600204,0.014653334,-0.008547778,0.0012211112,10.009253301985547,0.017008110835571723,stand
09/07/2020, 21:48:11,9.923036,0.23928227,1.0049855,0.014653334,-0.008547778,0.0012211112,9.976667164389728,0.017008110835571723,stand
09/07/2020, 21:48:11,9.923036,0.23928227,1.0049855,0.014653334,-0.0061055557,0.0036633336,9.976667164389728,0.016291655292436934,stand
09/07/2020, 21:48:11,9.946963,0.2536392,1.012164,0.014653334,-0.0061055557,0.0036633336,10.001544275306268,0.016291655292436934,stand
09/07/2020, 21:48:11,9.946963,0.2536392,1.012164,0.01099,-0.0012211112,0.0,10.001544275306268,0.011057631740940412,stand
09/07/2020, 21:48:11,9.877572,0.27996024,1.0289137,0.01099,-0.0012211112,0.0,9.934962053715509,0.011057631740940412,stand
09/07/2020, 21:48:11,9.877572,0.27996024,1.0289137,0.01099,0.0,-0.008547778,9.934962053715509,0.013922809347057889,stand
09/07/2020, 21:48:11,9.858429,0.28235307,1.0217353,0.01099,0.0,-0.008547778,9.915255305093847,0.013922809347057889,stand
09/07/2020, 21:48:11,9.858429,0.28235307,1.0217353,0.012211111,-0.008547778,-0.0048844446,9.915255305093847,0.015685456745815844,stand
09/07/2020, 21:48:11,9.88475,0.2416751,1.012164,0.012211111,-0.008547778,-0.0048844446,9.939374860093798,0.015685456745815844,stand
09/07/2020, 21:48:11,9.88475,0.2416751,1.012164,0.017095556,-0.009768889,0.0048844446,9.939374860093798,0.020286622409748923,stand
09/07/2020, 21:48:11,9.930214,0.25842485,1.0001999,0.017095556,-0.009768889,0.0048844446,9.983803480158162,0.020286622409748923,stand
09/07/2020, 21:48:11,9.930214,0.25842485,1.0001999,0.01099,-0.0048844446,0.0024422223,9.983803480158162,0.01227201518037393,stand
09/07/2020, 21:48:11,9.923036,0.26799613,1.0289137,0.01099,-0.0048844446,0.0024422223,9.9798357377364,0.01227201518037393,stand
09/07/2020, 21:48:12,9.999606,0.22253251,1.0217353,0.014653334,-0.0061055557,0.0012211112,10.0541328103649,0.015921342015681485,stand
09/07/2020, 21:48:12,9.994821,0.23688944,1.0097711,0.014653334,-0.0061055557,0.0012211112,10.048492076878778,0.015921342015681485,stand
09/07/2020, 21:48:12,9.994821,0.23688944,1.0097711,0.013432222,-0.0012211112,0.0,10.048492076878778,0.013487613264269558,stand
09/07/2020, 21:48:12,9.932607,0.24646074,0.9834501,0.013432222,-0.0012211112,0.0,9.984217186208197,0.013487613264269558,stand
09/07/2020, 21:48:12,9.932607,0.24646074,0.9834501,0.014653334,-0.0024422223,0.0,9.984217186208197,0.014855458886631858,stand
09/07/2020, 21:48:12,9.990034,0.25603202,1.0001999,0.014653334,-0.0024422223,0.0,10.043243183856465,0.014855458886631858,stand
09/07/2020, 21:48:12,9.990034,0.25603202,1.0001999,0.018316668,-0.0048844446,-0.0024422223,10.043243183856465,0.01911341305547163,stand
09/07/2020, 21:48:12,10.006784,0.26081768,1.0049855,0.018316668,-0.0048844446,-0.0024422223,10.060504780029655,0.01911341305547163,stand
09/07/2020, 21:48:12,10.006784,0.26081768,1.0049855,0.018316668,-0.01099,0.0,10.060504780029655,0.021360721348883893,stand
09/07/2020, 21:48:12,9.95175,0.25842485,0.9954142,0.018316668,-0.01099,0.0,10.00474672048524,0.021360721348883893,stand
09/07/2020, 21:48:12,9.95175,0.25842485,0.9954142,0.017095556,-0.0061055557,0.0012211112,10.00474672048524,0.018194146700720018,stand
09/07/2020, 21:48:12,9.97807,0.22971097,1.0025927,0.017095556,-0.0061055557,0.0012211112,10.030944387801329,0.018194146700720018,stand
09/07/2020, 21:48:12,9.97807,0.22971097,1.0025927,0.013432222,-0.0024422223,0.0012211112,10.030944387801329,0.013706938441303143,stand
09/07/2020, 21:48:12,9.994821,0.22971097,1.012164,0.013432222,-0.0024422223,0.0012211112,10.04856615673399,0.013706938441303143,stand
09/07/2020, 21:48:12,9.994821,0.22971097,1.012164,0.013432222,-0.0036633336,0.0,10.04856615673399,0.013922809061169513,stand
09/07/2020, 21:48:12,9.958928,0.21296121,1.0193424,0.013432222,-0.0036633336,0.0,10.013224281749176,0.013922809061169513,stand
09/07/2020, 21:48:12,9.958928,0.21296121,1.0193424,0.015874445,-0.007326667,-0.0024422223,10.013224281749176,0.017653399674276492,stand
09/07/2020, 21:48:12,9.923036,0.22253251,0.9882358,0.015874445,-0.007326667,-0.0024422223,9.974606087817293,0.017653399674276492,stand
09/07/2020, 21:48:12,9.923036,0.22253251,0.9882358,0.02075889,-0.009768889,-0.0012211112,9.974606087817293,0.022975069279799153,stand
09/07/2020, 21:48:12,9.920643,0.24646074,0.9834501,0.02075889,-0.009768889,-0.0012211112,9.972315259503436,0.022975069279799153,stand
09/07/2020, 21:48:13,9.882358,0.26799613,0.9954142,0.014653334,-0.0036633336,0.0,9.935978212202597,0.015104311368589862,stand
09/07/2020, 21:48:13,9.805787,0.2632105,0.997807,0.014653334,-0.0036633336,0.0,9.859937069603347,0.015104311368589862,stand
09/07/2020, 21:48:13,9.805787,0.2632105,0.997807,0.013432222,-0.0036633336,0.0024422223,9.859937069603347,0.014135383334772272,stand
09/07/2020, 21:48:13,9.82493,0.26799613,1.0025927,0.013432222,-0.0036633336,0.0024422223,9.879588416197233,0.014135383334772272,stand
09/07/2020, 21:48:13,9.82493,0.26799613,1.0025927,0.013432222,-0.0061055557,0.0024422223,9.879588416197233,0.014955495953500033,stand
09/07/2020, 21:48:13,9.887143,0.23688944,0.9906286,0.013432222,-0.0061055557,0.0024422223,9.939469855180471,0.014955495953500033,stand
09/07/2020, 21:48:13,9.887143,0.23688944,0.9906286,0.012211111,-0.008547778,-0.0024422223,9.939469855180471,0.015104310766246123,stand
09/07/2020, 21:48:13,9.889536,0.2440679,1.0049855,0.012211111,-0.008547778,-0.0024422223,9.94346445141979,0.015104310766246123,stand
09/07/2020, 21:48:13,9.889536,0.2440679,1.0049855,0.015874445,-0.008547778,0.0012211112,9.94346445141979,0.018070795314709287,stand
09/07/2020, 21:48:13,9.9015,0.25124636,1.0073783,0.015874445,-0.008547778,0.0012211112,9.955783902762947,0.018070795314709287,stand
09/07/2020, 21:48:13,9.9015,0.25124636,1.0073783,0.015874445,-0.009768889,0.0036633336,9.955783902762947,0.018996031925250068,stand
09/07/2020, 21:48:13,9.875179,0.2656033,1.0001999,0.015874445,-0.009768889,0.0036633336,9.929255309833275,0.018996031925250068,stand
09/07/2020, 21:48:13,9.875179,0.2656033,1.0001999,0.013432222,-0.01099,0.0,9.929255309833275,0.017355250109150434,stand
09/07/2020, 21:48:13,9.925428,0.26799613,0.99302137,0.013432222,-0.01099,0.0,9.978579162446957,0.017355250109150434,stand
09/07/2020, 21:48:13,9.925428,0.26799613,0.99302137,0.013432222,-0.0061055557,0.0,9.978579162446957,0.014754741927528998,stand
09/07/2020, 21:48:13,9.992428,0.2727818,0.9906286,0.013432222,-0.0061055557,0.0,10.045116663549852,0.014754741927528998,stand
09/07/2020, 21:48:13,9.992428,0.2727818,0.9906286,0.014653334,-0.0048844446,-0.0012211112,10.045116663549852,0.015494164088479381,stand
09/07/2020, 21:48:13,10.042677,0.27996024,1.0193424,0.014653334,-0.0048844446,-0.0012211112,10.09815807690525,0.015494164088479381,stand
09/07/2020, 21:48:13,10.042677,0.27996024,1.0193424,0.015874445,-0.0036633336,-0.0024422223,10.09815807690525,0.01647369056700755,stand
09/07/2020, 21:48:13,9.927821,0.26799613,1.0145568,0.015874445,-0.0036633336,-0.0024422223,9.983124777833593,0.01647369056700755,stand
09/07/2020, 21:48:14,9.908679,0.2656033,0.9906286,0.014653334,-0.0036633336,0.0024422223,9.96161682818575,0.015300479462634062,stand
09/07/2020, 21:48:14,9.908679,0.2656033,0.9906286,0.015874445,-0.0048844446,0.0036633336,9.96161682818575,0.017008110726915993,stand
09/07/2020, 21:48:14,9.97807,0.27038896,0.997807,0.015874445,-0.0048844446,0.0036633336,10.031481204015606,0.017008110726915993,stand
09/07/2020, 21:48:14,9.97807,0.27038896,0.997807,0.018316668,-0.0061055557,0.0,10.031481204015606,0.01930746279399445,stand
09/07/2020, 21:48:14,9.925428,0.27517462,1.0145568,0.018316668,-0.0061055557,0.0,9.980940598751257,0.01930746279399445,stand
09/07/2020, 21:48:14,9.925428,0.27517462,1.0145568,0.017095556,-0.0048844446,-0.0048844446,9.980940598751257,0.018438374396612143,stand
09/07/2020, 21:48:14,9.968499,0.25124636,1.012164,0.017095556,-0.0048844446,-0.0048844446,10.02290260681094,0.018438374396612143,stand
09/07/2020, 21:48:14,9.968499,0.25124636,1.012164,0.018316668,-0.009768889,0.0,10.02290260681094,0.02075888983467046,stand
09/07/2020, 21:48:14,9.908679,0.2632105,0.997807,0.018316668,-0.009768889,0.0,9.96226973757466,0.02075888983467046,stand
09/07/2020, 21:48:14,9.908679,0.2632105,0.997807,0.015874445,-0.0048844446,-0.0012211112,9.96226973757466,0.01665373621478829,stand
09/07/2020, 21:48:14,10.01157,0.26081768,0.96909314,0.015874445,-0.0048844446,-0.0012211112,10.061744420459599,0.01665373621478829,stand
09/07/2020, 21:48:14,10.01157,0.26081768,0.96909314,0.013432222,-0.0048844446,-0.0012211112,10.061744420459599,0.014344807807537718,stand
09/07/2020, 21:48:14,9.973285,0.27517462,1.0097711,0.013432222,-0.0048844446,-0.0012211112,10.028049007443277,0.014344807807537718,stand
09/07/2020, 21:48:14,9.973285,0.27517462,1.0097711,0.013432222,-0.007326667,-0.0012211112,10.028049007443277,0.01534912908874015,stand
09/07/2020, 21:48:14,9.865608,0.2632105,1.0169497,0.013432222,-0.007326667,-0.0012211112,9.921375500731152,0.01534912908874015,stand
09/07/2020, 21:48:14,9.865608,0.2632105,1.0169497,0.013432222,-0.0024422223,-0.0012211112,9.921375500731152,0.013706938441303143,stand
09/07/2020, 21:48:14,9.887143,0.24885355,1.0145568,0.013432222,-0.0024422223,-0.0012211112,9.942175460780376,0.013706938441303143,stand
09/07/2020, 21:48:14,9.887143,0.24885355,1.0145568,0.012211111,-0.007326667,0.0012211112,9.942175460780376,0.014292739614090928,stand
09/07/2020, 21:48:14,9.899107,0.25842485,0.99302137,0.012211111,-0.007326667,0.0012211112,9.952145187370114,0.014292739614090928,stand
09/07/2020, 21:48:14,9.899107,0.25842485,0.99302137,0.012211111,-0.0048844446,0.0061055557,9.952145187370114,0.014499891403388927,stand
09/07/2020, 21:48:15,9.970892,0.25603202,0.997807,0.012211111,-0.0048844446,0.0024422223,10.02396416518265,0.013376602346222692,stand
09/07/2020, 21:48:15,10.006784,0.23928227,1.0480564,0.012211111,-0.0048844446,0.0024422223,10.064363514653435,0.013376602346222692,stand
09/07/2020, 21:48:15,10.006784,0.23928227,1.0480564,0.014653334,0.0,0.0024422223,10.064363514653435,0.014855458886631858,stand
09/07/2020, 21:48:15,9.992428,0.23449662,1.0336994,0.014653334,0.0,0.0024422223,10.048489287368287,0.014855458886631858,stand
09/07/2020, 21:48:15,9.992428,0.23449662,1.0336994,0.01099,-0.0024422223,0.0,10.048489287368287,0.011258088519754728,stand
09/07/2020, 21:48:15,9.937392,0.2009971,1.0145568,0.01099,-0.0024422223,0.0,9.991070497837718,0.011258088519754728,stand
09/07/2020, 21:48:15,9.937392,0.2009971,1.0145568,0.013432222,-0.0036633336,-0.0012211112,9.991070497837718,0.013976255743960088,stand
09/07/2020, 21:48:15,9.877572,0.2440679,1.0097711,0.013432222,-0.0036633336,-0.0012211112,9.932050977940982,0.013976255743960088,stand
09/07/2020, 21:48:15,9.877572,0.2440679,1.0097711,0.015874445,-0.0024422223,-0.0012211112,9.932050977940982,0.016107562829622297,stand
09/07/2020, 21:48:15,9.930214,0.23449662,1.0193424,0.015874445,-0.0024422223,-0.0012211112,9.985148787117504,0.016107562829622297,stand
09/07/2020, 21:48:15,9.930214,0.23449662,1.0193424,0.013432222,-0.0024422223,-0.0012211112,9.985148787117504,0.013706938441303143,stand
09/07/2020, 21:48:15,9.982856,0.23449662,1.0289137,0.013432222,-0.0024422223,-0.0012211112,10.038479068222781,0.013706938441303143,stand
09/07/2020, 21:48:15,9.982856,0.23449662,1.0289137,0.015874445,-0.0024422223,-0.0036633336,10.038479068222781,0.01647369056700755,stand
09/07/2020, 21:48:15,9.937392,0.25124636,1.0576276,0.015874445,-0.0024422223,-0.0036633336,9.996672707262645,0.01647369056700755,stand
09/07/2020, 21:48:15,9.937392,0.25124636,1.0576276,0.019537779,-0.0036633336,-0.0036633336,9.996672707262645,0.020212986360438532,stand
09/07/2020, 21:48:15,9.913465,0.25124636,1.0336994,0.019537779,-0.0036633336,-0.0036633336,9.970378050975327,0.020212986360438532,stand
09/07/2020, 21:48:15,9.913465,0.25124636,1.0336994,0.019537779,-0.0048844446,0.0024422223,9.970378050975327,0.020286622213542313,stand
09/07/2020, 21:48:15,9.906285,0.22731815,1.0504491,0.019537779,-0.0048844446,0.0024422223,9.964416946819332,0.020286622213542313,stand
09/07/2020, 21:48:15,9.906285,0.22731815,1.0504491,0.018316668,-0.007326667,0.0024422223,9.964416946819332,0.019878249706065353,stand
09/07/2020, 21:48:15,9.937392,0.22971097,1.0313065,0.018316668,-0.007326667,0.0024422223,9.993404057879545,0.019878249706065353,stand
09/07/2020, 21:48:16,9.949356,0.2321038,1.0025927,0.012211111,-0.0036633336,0.0,10.002437235394336,0.01274877460963127,stand
09/07/2020, 21:48:16,9.949356,0.2321038,1.0025927,0.012211111,-0.0061055557,0.0012211112,10.002437235394336,0.013706938524271952,stand
09/07/2020, 21:48:16,9.944571,0.2416751,1.0169497,0.012211111,-0.0061055557,0.0012211112,9.999353814196054,0.013706938524271952,stand
09/07/2020, 21:48:16,9.944571,0.2416751,1.0169497,0.015874445,-0.0061055557,-0.0036633336,9.999353814196054,0.017398156260897742,stand
09/07/2020, 21:48:16,9.9038925,0.26799613,1.0025927,0.015874445,-0.0061055557,-0.0036633336,9.958117342385393,0.017398156260897742,stand
09/07/2020, 21:48:16,9.9038925,0.26799613,1.0025927,0.018316668,-0.007326667,-0.0048844446,9.958117342385393,0.020323340300703735,stand
09/07/2020, 21:48:16,9.899107,0.2416751,0.9834501,0.018316668,-0.007326667,-0.0048844446,9.950773837653005,0.020323340300703735,stand
09/07/2020, 21:48:16,9.899107,0.2416751,0.9834501,0.017095556,-0.0061055557,-0.0024422223,9.950773837653005,0.018316667589048544,stand
09/07/2020, 21:48:16,10.01157,0.2105684,0.997807,0.017095556,-0.0061055557,-0.0024422223,10.06337375395481,0.018316667589048544,stand
09/07/2020, 21:48:16,10.01157,0.2105684,0.997807,0.017095556,-0.0024422223,0.0012211112,10.06337375395481,0.017312238843841643,stand
09/07/2020, 21:48:16,9.894321,0.23688944,0.9834501,0.017095556,-0.0024422223,0.0012211112,9.945898025022482,0.017312238843841643,stand
09/07/2020, 21:48:16,9.894321,0.23688944,0.9834501,0.015874445,-0.0024422223,0.0,9.945898025022482,0.01606121003671381,stand
09/07/2020, 21:48:16,9.930214,0.2536392,1.0169497,0.015874445,-0.0024422223,0.0,9.985372706999211,0.01606121003671381,stand
09/07/2020, 21:48:16,9.930214,0.2536392,1.0169497,0.017095556,-0.0024422223,-0.0024422223,9.985372706999211,0.01744095614313045,stand
09/07/2020, 21:48:16,9.915857,0.27756742,1.0001999,0.017095556,-0.0024422223,-0.0024422223,9.970038607311608,0.01744095614313045,stand
09/07/2020, 21:48:16,9.915857,0.27756742,1.0001999,0.012211111,-0.007326667,-0.0024422223,9.970038607311608,0.01444838202279357,stand
09/07/2020, 21:48:16,9.9756775,0.2440679,0.97866446,0.012211111,-0.007326667,-0.0024422223,10.026539515381963,0.01444838202279357,stand
09/07/2020, 21:48:16,9.9756775,0.2440679,0.97866446,0.013432222,-0.009768889,-0.0024422223,10.026539515381963,0.016787502698187733,stand
09/07/2020, 21:48:16,9.889536,0.23449662,0.997807,0.013432222,-0.009768889,-0.0024422223,9.942511147713969,0.016787502698187733,stand
09/07/2020, 21:48:16,9.889536,0.23449662,0.997807,0.013432222,-0.0048844446,-0.0012211112,9.942511147713969,0.014344807807537718,stand
09/07/2020, 21:48:17,9.990034,0.27996024,1.0145568,0.015874445,-0.0036633336,0.0036633336,10.045321525776242,0.016698444361209732,stand
09/07/2020, 21:48:17,9.990034,0.27996024,1.0145568,0.018316668,-0.0048844446,-0.0036633336,10.045321525776242,0.019307462852896463,stand
09/07/2020, 21:48:17,9.95175,0.28235307,1.0336994,0.018316668,-0.0048844446,-0.0036633336,10.009274789316345,0.019307462852896463,stand
09/07/2020, 21:48:17,9.95175,0.28235307,1.0336994,0.018316668,-0.0061055557,-0.0061055557,10.009274789316345,0.02024983777193673,stand
09/07/2020, 21:48:17,9.906285,0.2321038,1.0313065,0.018316668,-0.0061055557,-0.0061055557,9.96252746274081,0.02024983777193673,stand
09/07/2020, 21:48:17,9.906285,0.2321038,1.0313065,0.019537779,-0.008547778,-0.0012211112,9.96252746274081,0.021360721355538913,stand
09/07/2020, 21:48:17,9.942178,0.23449662,1.0073783,0.019537779,-0.008547778,-0.0012211112,9.995834064558657,0.021360721355538913,stand
09/07/2020, 21:48:17,9.942178,0.23449662,1.0073783,0.018316668,-0.007326667,0.0036633336,9.995834064558657,0.020064904050694856,stand
09/07/2020, 21:48:17,9.932607,0.23688944,0.9906286,0.018316668,-0.007326667,0.0036633336,9.984695159472428,0.020064904050694856,stand
09/07/2020, 21:48:17,9.932607,0.23688944,0.9906286,0.014653334,-0.0061055557,0.0,9.984695159472428,0.01587444547420511,stand
09/07/2020, 21:48:17,9.896714,0.2632105,0.997807,0.014653334,-0.0061055557,0.0,9.95036937985431,0.01587444547420511,stand
09/07/2020, 21:48:17,9.896714,0.2632105,0.997807,0.014653334,-0.0036633336,-0.0048844446,9.95036937985431,0.015874445545845307,stand
09/07/2020, 21:48:17,9.911072,0.26081768,1.0073783,0.014653334,-0.0036633336,-0.0048844446,9.965549696610555,0.015874445545845307,stand
09/07/2020, 21:48:17,9.911072,0.26081768,1.0073783,0.017095556,-0.0048844446,-0.0012211112,9.965549696610555,0.017821530893493427,stand
09/07/2020, 21:48:17,9.925428,0.2727818,1.012164,0.017095556,-0.0048844446,-0.0012211112,9.980631973767263,0.017821530893493427,stand
09/07/2020, 21:48:17,9.925428,0.2727818,1.012164,0.015874445,-0.0048844446,0.0048844446,9.980631973767263,0.017312238934165985,stand
09/07/2020, 21:48:17,9.95175,0.27038896,1.0217353,0.015874445,-0.0048844446,0.0048844446,10.007715890718229,0.017312238934165985,stand
09/07/2020, 21:48:17,9.95175,0.27038896,1.0217353,0.015874445,-0.0036633336,0.0036633336,10.007715890718229,0.016698444361209732,stand
09/07/2020, 21:48:17,9.927821,0.28953153,1.0193424,0.015874445,-0.0036633336,0.0036633336,9.984213562060152,0.016698444361209732,stand
09/07/2020, 21:48:17,9.927821,0.28953153,1.0193424,0.014653334,0.0,-0.0012211112,9.984213562060152,0.014704125996876833,stand
09/07/2020, 21:48:18,9.913465,0.25603202,0.9882358,0.014653334,-0.0012211112,0.0012211112,9.965888903876408,0.014754742756104647,stand
09/07/2020, 21:48:18,9.992428,0.27038896,1.0097711,0.014653334,-0.0012211112,0.0012211112,10.046957835003417,0.014754742756104647,stand
09/07/2020, 21:48:18,9.992428,0.27038896,1.0097711,0.013432222,0.0012211112,-0.0024422223,10.046957835003417,0.013706938441303143,stand
09/07/2020, 21:48:18,9.992428,0.27038896,1.012164,0.013432222,0.0012211112,-0.0024422223,10.047198614674972,0.013706938441303143,stand
09/07/2020, 21:48:18,9.992428,0.27038896,1.012164,0.019537779,-0.0012211112,-0.0036633336,10.047198614674972,0.019915720349010485,stand
09/07/2020, 21:48:18,9.990034,0.23928227,1.0193424,0.019537779,-0.0012211112,-0.0036633336,10.044754669166107,0.019915720349010485,stand
09/07/2020, 21:48:18,9.990034,0.23928227,1.0193424,0.015874445,-0.0036633336,0.0,10.044754669166107,0.016291655257534142,stand
09/07/2020, 21:48:18,10.023534,0.24646074,1.0097711,0.015874445,-0.0036633336,0.0,10.077281917707943,0.016291655257534142,stand
09/07/2020, 21:48:18,10.023534,0.24646074,1.0097711,0.013432222,0.0012211112,-0.0012211112,10.077281917707943,0.013542777559765705,stand
09/07/2020, 21:48:18,9.97807,0.23688944,1.0217353,0.013432222,0.0012211112,-0.0012211112,10.033042696288186,0.013542777559765705,stand
09/07/2020, 21:48:18,9.97807,0.23688944,1.0217353,0.013432222,-0.0036633336,-0.0012211112,10.033042696288186,0.013976255743960088,stand
09/07/2020, 21:48:18,9.973285,0.25842485,1.0336994,0.013432222,-0.0036633336,-0.0012211112,10.030041174964449,0.013976255743960088,stand
09/07/2020, 21:48:18,9.973285,0.25842485,1.0336994,0.012211111,-0.0048844446,-0.0012211112,10.030041174964449,0.013208336493616073,stand
09/07/2020, 21:48:18,9.958928,0.26081768,1.0169497,0.012211111,-0.0048844446,-0.0012211112,10.014113117152846,0.013208336493616073,stand
09/07/2020, 21:48:18,9.958928,0.26081768,1.0169497,0.01099,-0.0061055557,-0.0061055557,10.014113117152846,0.01397625585584388,stand
09/07/2020, 21:48:18,9.853643,0.23688944,1.012164,0.01099,-0.0061055557,-0.0061055557,9.90832383190749,0.01397625585584388,stand
09/07/2020, 21:48:18,9.853643,0.23688944,1.012164,0.015874445,-0.0036633336,0.0024422223,9.90832383190749,0.01647369056700755,stand
09/07/2020, 21:48:18,9.923036,0.2416751,1.012164,0.015874445,-0.0036633336,0.0024422223,9.977450513811357,0.01647369056700755,stand
09/07/2020, 21:48:18,9.923036,0.2416751,1.012164,0.013432222,-0.0036633336,0.0012211112,9.977450513811357,0.013976255743960088,stand
09/07/2020, 21:48:18,9.937392,0.2656033,0.9906286,0.013432222,-0.0036633336,0.0012211112,9.99017790465877,0.013976255743960088,stand
09/07/2020, 21:48:19,9.920643,0.24885355,1.0456635,0.015874445,-0.0061055557,0.0,9.978702060214456,0.01700811066005093,stand
09/07/2020, 21:48:19,9.920643,0.24885355,1.0456635,0.014653334,-0.0048844446,-0.0024422223,9.978702060214456,0.01563785337573877,stand
09/07/2020, 21:48:19,9.896714,0.2632105,1.0480564,0.014653334,-0.0048844446,-0.0024422223,9.955533841880783,0.01563785337573877,stand
09/07/2020, 21:48:19,9.896714,0.2632105,1.0480564,0.017095556,0.0,-0.0036633336,9.955533841880783,0.01748365134937006,stand
09/07/2020, 21:48:19,9.925428,0.26081768,1.0241281,0.017095556,0.0,-0.0036633336,9.98153259367362,0.01748365134937006,stand
09/07/2020, 21:48:19,9.925428,0.26081768,1.0241281,0.014653334,-0.0012211112,0.0012211112,9.98153259367362,0.014754742756104647,stand
09/07/2020, 21:48:19,9.868001,0.23449662,1.026521,0.014653334,-0.0012211112,0.0012211112,9.924020223025753,0.014754742756104647,stand
09/07/2020, 21:48:19,9.868001,0.23449662,1.026521,0.018316668,-0.0061055557,0.0012211112,9.924020223025753,0.019346039181400244,stand
09/07/2020, 21:48:19,9.980463,0.2321038,1.0049855,0.018316668,-0.0061055557,0.0012211112,10.033618997253717,0.019346039181400244,stand
09/07/2020, 21:48:19,9.980463,0.2321038,1.0049855,0.018316668,-0.0061055557,-0.0012211112,10.033618997253717,0.019346039181400244,stand
09/07/2020, 21:48:19,9.958928,0.23928227,1.0241281,0.018316668,-0.0061055557,-0.0012211112,10.014306935087227,0.019346039181400244,stand
09/07/2020, 21:48:19,9.958928,0.23928227,1.0241281,0.018316668,-0.008547778,0.0,10.014306935087227,0.02021298647296504,stand
09/07/2020, 21:48:19,9.899107,0.25842485,1.0217353,0.018316668,-0.008547778,0.0,9.955051252307861,0.02021298647296504,stand
09/07/2020, 21:48:19,9.899107,0.25842485,1.0217353,0.019537779,-0.0036633336,0.0,9.955051252307861,0.01987824953443328,stand
09/07/2020, 21:48:19,9.911072,0.25842485,1.012164,0.019537779,-0.0036633336,0.0,9.965972262358381,0.01987824953443328,stand
09/07/2020, 21:48:19,9.911072,0.25842485,1.012164,0.014653334,-0.0061055557,0.0012211112,9.965972262358381,0.015921342015681485,stand
09/07/2020, 21:48:19,9.982856,0.26799613,1.0217353,0.014653334,-0.0061055557,0.0012211112,10.038584304162784,0.015921342015681485,stand
09/07/2020, 21:48:19,9.982856,0.26799613,1.0217353,0.013432222,-0.0036633336,0.0,10.038584304162784,0.013922809061169513,stand
09/07/2020, 21:48:19,9.985249,0.25842485,1.026521,0.013432222,-0.0036633336,0.0,10.041201004720639,0.013922809061169513,stand
09/07/2020, 21:48:19,9.985249,0.25842485,1.026521,0.015874445,-0.0012211112,-0.0048844446,10.041201004720639,0.01665373621478829,stand
09/07/2020, 21:48:20,9.963714,0.24646074,1.0432707,0.013432222,-0.0036633336,-0.0024422223,10.02121481063244,0.014135383334772272,stand
09/07/2020, 21:48:20,9.963714,0.24646074,1.0432707,0.018316668,-0.0024422223,-0.0048844446,10.02121481063244,0.01911341305547163,stand
09/07/2020, 21:48:20,9.915857,0.25124636,1.0097711,0.018316668,-0.0024422223,-0.0048844446,9.970305347350157,0.01911341305547163,stand
09/07/2020, 21:48:20,9.915857,0.25124636,1.0097711,0.017095556,0.0012211112,-0.0048844446,9.970305347350157,0.017821530893493427,stand
09/07/2020, 21:48:20,9.954143,0.24885355,1.0217353,0.017095556,0.0012211112,-0.0048844446,10.009536724924708,0.017821530893493427,stand
09/07/2020, 21:48:20,9.954143,0.24885355,1.0217353,0.01099,-0.0012211112,0.0,10.009536724924708,0.011057631740940412,stand
09/07/2020, 21:48:20,9.9015,0.25842485,1.0073783,0.01099,-0.0012211112,0.0,9.95596764688693,0.011057631740940412,stand
09/07/2020, 21:48:20,9.9015,0.25842485,1.0073783,0.012211111,-0.0036633336,0.0036633336,9.95596764688693,0.013264662344034853,stand
09/07/2020, 21:48:20,9.915857,0.2632105,1.0456635,0.012211111,-0.0036633336,0.0036633336,9.974312917078068,0.013264662344034853,stand
09/07/2020, 21:48:20,9.915857,0.2632105,1.0456635,0.015874445,-0.0048844446,-0.0061055557,9.974312917078068,0.017695582151860192,stand
09/07/2020, 21:48:20,9.8632145,0.28953153,1.0432707,0.015874445,-0.0048844446,-0.0061055557,9.922461509401282,0.017695582151860192,stand
09/07/2020, 21:48:20,9.8632145,0.28953153,1.0432707,0.014653334,-0.0061055557,-0.0061055557,9.922461509401282,0.017008110693483465,stand
09/07/2020, 21:48:20,9.9038925,0.27038896,1.026521,0.014653334,-0.0061055557,-0.0061055557,9.960619582982513,0.017008110693483465,stand
09/07/2020, 21:48:20,9.9038925,0.27038896,1.026521,0.014653334,-0.0036633336,-0.0012211112,9.960619582982513,0.015153591468233078,stand
09/07/2020, 21:48:20,9.946963,0.22971097,0.997807,0.014653334,-0.0036633336,-0.0012211112,9.999523242850609,0.015153591468233078,stand
09/07/2020, 21:48:20,9.946963,0.22971097,0.997807,0.012211111,-0.0036633336,0.0012211112,9.999523242850609,0.012807121710750326,stand
09/07/2020, 21:48:20,9.942178,0.22731815,1.0289137,0.012211111,-0.0036633336,0.0012211112,9.997861565347451,0.012807121710750326,stand
09/07/2020, 21:48:20,9.942178,0.22731815,1.0289137,0.01099,-0.0012211112,0.0,9.997861565347451,0.011057631740940412,stand
09/07/2020, 21:48:20,9.875179,0.25842485,1.0169497,0.01099,-0.0012211112,0.0,9.930767141823397,0.011057631740940412,stand
09/07/2020, 21:48:20,9.875179,0.25842485,1.0169497,0.013432222,-0.0036633336,-0.0024422223,9.930767141823397,0.014135383334772272,stand
09/07/2020, 21:48:21,9.968499,0.2632105,1.0073783,0.015874445,-0.0061055557,-0.0036633336,10.022727516201924,0.017398156260897742,stand
09/07/2020, 21:48:21,9.968499,0.23449662,1.0049855,0.015874445,-0.0061055557,-0.0036633336,10.021774313911683,0.017398156260897742,stand
09/07/2020, 21:48:21,9.968499,0.23449662,1.0049855,0.017095556,-0.008547778,0.0061055557,10.021774313911683,0.020064904050694856,stand
09/07/2020, 21:48:21,9.942178,0.2105684,1.0145568,0.017095556,-0.008547778,0.0061055557,9.996027377978828,0.020064904050694856,stand
09/07/2020, 21:48:21,9.942178,0.2105684,1.0145568,0.01099,-0.0024422223,0.0024422223,9.996027377978828,0.01151993953915588,stand
09/07/2020, 21:48:21,9.956535,0.2536392,1.0313065,0.01099,-0.0024422223,0.0024422223,10.013017622620932,0.01151993953915588,stand
09/07/2020, 21:48:21,9.956535,0.2536392,1.0313065,0.008547778,0.0036633336,-0.0048844446,10.013017622620932,0.01050439552691326,stand
09/07/2020, 21:48:21,9.911072,0.24646074,1.026521,0.008547778,0.0036633336,-0.0048844446,9.9671376014698,0.01050439552691326,stand
09/07/2020, 21:48:21,9.911072,0.24646074,1.026521,0.015874445,-0.0012211112,-0.0036633336,9.9671376014698,0.01633735423797664,stand
09/07/2020, 21:48:21,9.891929,0.2656033,1.0193424,0.015874445,-0.0012211112,-0.0036633336,9.947856902715339,0.01633735423797664,stand
09/07/2020, 21:48:21,9.891929,0.2656033,1.0193424,0.019537779,-0.0036633336,0.0012211112,9.947856902715339,0.019915720349010485,stand
09/07/2020, 21:48:21,9.889536,0.23928227,1.0169497,0.019537779,-0.0036633336,0.0012211112,9.944564495021009,0.019915720349010485,stand
09/07/2020, 21:48:21,9.889536,0.23928227,1.0169497,0.02075889,-0.0024422223,0.0012211112,9.944564495021009,0.020937694725159325,stand
09/07/2020, 21:48:21,9.997213,0.2536392,1.0217353,0.02075889,-0.0024422223,0.0012211112,10.052489787238473,0.020937694725159325,stand
09/07/2020, 21:48:21,9.997213,0.2536392,1.0217353,0.012211111,0.0,0.0012211112,10.052489787238473,0.012272015052952598,stand
09/07/2020, 21:48:21,9.925428,0.24885355,1.0289137,0.012211111,0.0,0.0012211112,9.981719305854446,0.012272015052952598,stand
09/07/2020, 21:48:21,9.925428,0.24885355,1.0289137,0.02198,-0.0024422223,-0.0024422223,9.981719305854446,0.022249704014664674,stand
09/07/2020, 21:48:21,9.930214,0.27038896,1.0504491,0.02198,-0.0024422223,-0.0024422223,9.98927936496229,0.022249704014664674,stand
09/07/2020, 21:48:21,9.930214,0.27038896,1.0504491,0.015874445,-0.0012211112,-0.0024422223,9.98927936496229,0.016107562829622297,stand
09/07/2020, 21:48:21,9.927821,0.25842485,1.0217353,0.015874445,-0.0012211112,-0.0024422223,9.98360453039651,0.016107562829622297,stand
09/07/2020, 21:48:22,9.925428,0.21535404,1.0097711,0.013432222,0.0012211112,-0.0048844446,9.978985108190036,0.014344807807537718,stand
09/07/2020, 21:48:22,9.925428,0.21535404,1.0097711,0.013432222,-0.0048844446,-0.0024422223,9.978985108190036,0.01449989132495742,stand
09/07/2020, 21:48:22,9.987641,0.21535404,1.0169497,0.013432222,-0.0048844446,-0.0024422223,10.041590680163846,0.01449989132495742,stand
09/07/2020, 21:48:22,9.987641,0.21535404,1.0169497,0.01099,0.0,0.0,10.041590680163846,0.010990000329911709,stand
09/07/2020, 21:48:22,9.944571,0.24885355,1.026521,0.01099,0.0,0.0,10.000507819017612,0.010990000329911709,stand
09/07/2020, 21:48:22,9.944571,0.24885355,1.026521,0.012211111,0.0024422223,0.0012211112,10.000507819017612,0.012512665716268013,stand
09/07/2020, 21:48:22,9.939785,0.25603202,1.0289137,0.012211111,0.0024422223,0.0012211112,9.996176358540929,0.012512665716268013,stand
09/07/2020, 21:48:22,9.939785,0.25603202,1.0289137,0.013432222,-0.0012211112,-0.0024422223,9.996176358540929,0.013706938441303143,stand
09/07/2020, 21:48:22,9.930214,0.26081768,1.0480564,0.013432222,-0.0012211112,-0.0024422223,9.98877353147197,0.013706938441303143,stand
09/07/2020, 21:48:22,9.930214,0.26081768,1.0480564,0.017095556,-0.0048844446,0.0,9.98877353147197,0.017779647097761735,stand
09/07/2020, 21:48:22,9.982856,0.27038896,1.0336994,0.017095556,-0.0048844446,0.0,10.03987323056308,0.017779647097761735,stand
09/07/2020, 21:48:22,9.982856,0.27038896,1.0336994,0.017095556,-0.0036633336,0.0048844446,10.03987323056308,0.018153122705887946,stand
09/07/2020, 21:48:22,9.923036,0.27517462,1.0073783,0.017095556,-0.0036633336,0.0048844446,9.977833839972142,0.018153122705887946,stand
09/07/2020, 21:48:22,9.923036,0.27517462,1.0073783,0.017095556,-0.0036633336,0.0,9.977833839972142,0.01748365134937006,stand
09/07/2020, 21:48:22,9.956535,0.2656033,1.0145568,0.017095556,-0.0036633336,0.0,10.011616578226414,0.01748365134937006,stand
09/07/2020, 21:48:22,9.956535,0.2656033,1.0145568,0.013432222,-0.0024422223,-0.0048844446,10.011616578226414,0.01449989132495742,stand
09/07/2020, 21:48:22,9.923036,0.28713873,1.0217353,0.013432222,-0.0024422223,-0.0048844446,9.979630636634917,0.01449989132495742,stand
09/07/2020, 21:48:22,9.923036,0.28713873,1.0217353,0.013432222,-0.0061055557,-0.0048844446,9.979630636634917,0.015542207334116898,stand
09/07/2020, 21:48:22,9.942178,0.24646074,1.0049855,0.013432222,-0.0061055557,-0.0048844446,9.995881027345476,0.015542207334116898,stand
09/07/2020, 21:48:22,9.942178,0.24646074,1.0049855,0.009768889,-0.0012211112,-0.0012211112,9.995881027345476,0.009920353965880794,stand
09/07/2020, 21:48:23,9.887143,0.24646074,1.0073783,0.014653334,-0.0061055557,-0.0012211112,9.941385888652563,0.015921342015681485,stand
09/07/2020, 21:48:23,9.915857,0.2727818,0.99302137,0.014653334,-0.0061055557,-0.0012211112,9.969188915680395,0.015921342015681485,stand
09/07/2020, 21:48:23,9.915857,0.2727818,0.99302137,0.013432222,-0.0061055557,-0.0036633336,9.969188915680395,0.01520271102146125,stand
09/07/2020, 21:48:23,9.851251,0.2536392,1.0169497,0.013432222,-0.0061055557,-0.0036633336,9.906849084192224,0.01520271102146125,stand
09/07/2020, 21:48:23,9.851251,0.2536392,1.0169497,0.015874445,-0.0036633336,-0.0012211112,9.906849084192224,0.01633735423797664,stand
09/07/2020, 21:48:23,9.956535,0.23928227,1.0193424,0.015874445,-0.0036633336,-0.0012211112,10.011439004488933,0.01633735423797664,stand
09/07/2020, 21:48:23,9.956535,0.23928227,1.0193424,0.014653334,-0.008547778,-0.0024422223,10.011439004488933,0.017139112333941702,stand
09/07/2020, 21:48:23,9.896714,0.26799613,1.0097711,0.014653334,-0.008547778,-0.0024422223,9.951703963809482,0.017139112333941702,stand
09/07/2020, 21:48:23,9.896714,0.26799613,1.0097711,0.014653334,-0.0061055557,0.0012211112,9.951703963809482,0.015921342015681485,stand
09/07/2020, 21:48:23,9.870394,0.27756742,0.997807,0.014653334,-0.0061055557,0.0012211112,9.924582377707424,0.015921342015681485,stand
09/07/2020, 21:48:23,9.870394,0.27756742,0.997807,0.014653334,-0.0048844446,-0.0024422223,9.924582377707424,0.01563785337573877,stand
09/07/2020, 21:48:23,9.97807,0.27517462,1.0241281,0.014653334,-0.0048844446,-0.0024422223,10.034263574808532,0.01563785337573877,stand
09/07/2020, 21:48:23,9.97807,0.27517462,1.0241281,0.014653334,-0.0036633336,-0.0036633336,10.034263574808532,0.015542208175590436,stand
09/07/2020, 21:48:23,9.973285,0.24885355,1.0313065,0.014653334,-0.0036633336,-0.0036633336,10.029552798121484,0.015542208175590436,stand
09/07/2020, 21:48:23,9.973285,0.24885355,1.0313065,0.015874445,-0.0012211112,0.0,10.029552798121484,0.01592134197996689,stand
09/07/2020, 21:48:23,9.992428,0.25124636,1.0193424,0.015874445,-0.0012211112,0.0,10.047427410314343,0.01592134197996689,stand
09/07/2020, 21:48:23,9.992428,0.25124636,1.0193424,0.018316668,-0.0048844446,0.0012211112,10.047427410314343,0.018996031723196638,stand
09/07/2020, 21:48:23,9.920643,0.25842485,1.0169497,0.018316668,-0.0048844446,0.0012211112,9.975977376313345,0.018996031723196638,stand
09/07/2020, 21:48:23,9.920643,0.25842485,1.0169497,0.017095556,0.0,-0.0024422223,9.975977376313345,0.017269119876803973,stand
09/07/2020, 21:48:23,9.9038925,0.25603202,1.012164,0.017095556,0.0,-0.0024422223,9.95877077462209,0.017269119876803973,stand
09/07/2020, 21:48:24,9.915857,0.2536392,0.9954142,0.017095556,-0.0061055557,0.0024422223,9.968922136147983,0.018316667589048544,stand
09/07/2020, 21:48:24,9.889536,0.2416751,1.0049855,0.017095556,-0.0061055557,0.0024422223,9.943406006203695,0.018316667589048544,stand
09/07/2020, 21:48:24,9.889536,0.2416751,1.0049855,0.017095556,-0.008547778,-0.0012211112,9.943406006203695,0.01915238044688202,stand
09/07/2020, 21:48:24,9.990034,0.27038896,1.0097711,0.017095556,-0.008547778,-0.0012211112,10.044577107520652,0.01915238044688202,stand
09/07/2020, 21:48:24,9.990034,0.27038896,1.0097711,0.012211111,-0.0048844446,0.0,10.044577107520652,0.013151769480256134,stand
09/07/2020, 21:48:24,9.939785,0.23928227,1.0073783,0.012211111,-0.0048844446,0.0,9.993567583248163,0.013151769480256134,stand
09/07/2020, 21:48:24,9.939785,0.23928227,1.0073783,0.009768889,0.0,-0.0024422223,9.993567583248163,0.010069540592398129,stand
09/07/2020, 21:48:24,9.9015,0.25603202,1.0408778,0.009768889,0.0,-0.0024422223,9.959351198426655,0.010069540592398129,stand
09/07/2020, 21:48:24,9.9015,0.25603202,1.0408778,0.009768889,-0.0048844446,-0.0012211112,9.959351198426655,0.01099000044632703,stand
09/07/2020, 21:48:24,9.908679,0.2440679,1.0360922,0.009768889,-0.0048844446,-0.0012211112,9.965689931208537,0.01099000044632703,stand
09/07/2020, 21:48:24,9.908679,0.2440679,1.0360922,0.017095556,-0.0036633336,-0.0048844446,9.965689931208537,0.018153122705887946,stand
09/07/2020, 21:48:24,9.882358,0.25842485,1.0073783,0.017095556,-0.0036633336,-0.0048844446,9.936930421593148,0.018153122705887946,stand
09/07/2020, 21:48:24,9.882358,0.25842485,1.0073783,0.017095556,-0.0061055557,-0.0012211112,9.936930421593148,0.018194146700720018,stand
09/07/2020, 21:48:24,9.889536,0.26081768,1.0001999,0.017095556,-0.0061055557,-0.0012211112,9.9434071687515,0.018194146700720018,stand
09/07/2020, 21:48:24,9.889536,0.26081768,1.0001999,0.018316668,-0.0061055557,0.0012211112,9.9434071687515,0.019346039181400244,stand
09/07/2020, 21:48:24,9.911072,0.2847459,1.0145568,0.018316668,-0.0061055557,0.0012211112,9.96693279975344,0.019346039181400244,stand
09/07/2020, 21:48:24,9.911072,0.2847459,1.0145568,0.015874445,-0.008547778,0.0012211112,9.96693279975344,0.018070795314709287,stand
09/07/2020, 21:48:24,9.913465,0.25124636,1.0169497,0.015874445,-0.008547778,0.0012211112,9.96865540791374,0.018070795314709287,stand
09/07/2020, 21:48:24,9.913465,0.25124636,1.0169497,0.018316668,-0.0061055557,-0.0024422223,9.96865540791374,0.019461309550198667,stand
09/07/2020, 21:48:24,9.870394,0.24885355,1.012164,0.018316668,-0.0061055557,-0.0024422223,9.925274650382297,0.019461309550198667,stand
09/07/2020, 21:48:25,9.949356,0.2416751,1.0073783,0.013432222,0.0024422223,0.0012211112,10.003144723492538,0.013706938441303143,stand
09/07/2020, 21:48:25,9.949356,0.2416751,1.0073783,0.017095556,-0.0024422223,0.0,10.003144723492538,0.017269119876803973,stand
09/07/2020, 21:48:25,9.980463,0.26799613,1.0313065,0.017095556,-0.0024422223,0.0,10.037183732850595,0.017269119876803973,stand
09/07/2020, 21:48:25,9.980463,0.26799613,1.0313065,0.013432222,-0.0036633336,-0.0024422223,10.037183732850595,0.014135383334772272,stand
09/07/2020, 21:48:25,9.980463,0.25603202,1.012164,0.013432222,-0.0036633336,-0.0024422223,10.034922550959605,0.014135383334772272,stand
09/07/2020, 21:48:25,9.980463,0.25603202,1.012164,0.013432222,-0.0048844446,-0.0024422223,10.034922550959605,0.01449989132495742,stand
09/07/2020, 21:48:25,9.879965,0.2440679,1.0336994,0.013432222,-0.0048844446,-0.0024422223,9.9368912941254,0.01449989132495742,stand
09/07/2020, 21:48:25,9.879965,0.2440679,1.0336994,0.015874445,-0.0061055557,-0.0024422223,9.9368912941254,0.01718255737926435,stand
09/07/2020, 21:48:25,9.882358,0.24646074,1.0145568,0.015874445,-0.0061055557,-0.0024422223,9.937356791760505,0.01718255737926435,stand
09/07/2020, 21:48:25,9.882358,0.24646074,1.0145568,0.015874445,0.0,0.0,9.937356791760505,0.01587444543838501,stand
09/07/2020, 21:48:25,9.95175,0.24646074,1.0432707,0.015874445,0.0,0.0,10.009319696013486,0.01587444543838501,stand
09/07/2020, 21:48:25,9.95175,0.24646074,1.0432707,0.018316668,-0.0048844446,-0.0012211112,10.009319696013486,0.018996031723196638,stand
09/07/2020, 21:48:25,9.999606,0.23449662,1.0336994,0.018316668,-0.0048844446,-0.0012211112,10.055627574013391,0.018996031723196638,stand
09/07/2020, 21:48:25,9.999606,0.23449662,1.0336994,0.015874445,-0.0048844446,0.0,10.055627574013391,0.01660890777399157,stand
09/07/2020, 21:48:25,9.954143,0.2440679,1.0624132,0.015874445,-0.0048844446,0.0,10.01365294475016,0.01660890777399157,stand
09/07/2020, 21:48:25,9.954143,0.2440679,1.0624132,0.008547778,-0.0024422223,-0.0036633336,10.01365294475016,0.009615039042266758,stand
09/07/2020, 21:48:25,9.870394,0.2536392,1.0480564,0.008547778,-0.0024422223,-0.0036633336,9.929120193750158,0.009615039042266758,stand
09/07/2020, 21:48:25,9.870394,0.2536392,1.0480564,0.013432222,-0.0012211112,-0.0012211112,9.929120193750158,0.013542777559765705,stand
09/07/2020, 21:48:25,9.805787,0.26799613,1.0289137,0.013432222,-0.0012211112,-0.0012211112,9.863262431331483,0.013542777559765705,stand
09/07/2020, 21:48:25,9.805787,0.26799613,1.0289137,0.015874445,-0.0024422223,0.0,9.863262431331483,0.01606121003671381,stand
09/07/2020, 21:48:26,9.9756775,0.23688944,0.997807,0.017095556,-0.0061055557,0.0024422223,10.028253928546578,0.018316667589048544,stand
09/07/2020, 21:48:26,9.9756775,0.23688944,0.997807,0.013432222,0.0,-0.0012211112,10.028253928546578,0.013487613264269558,stand
09/07/2020, 21:48:26,9.906285,0.25842485,0.9954142,0.013432222,0.0,-0.0012211112,9.959524134883495,0.013487613264269558,stand
09/07/2020, 21:48:26,9.906285,0.25842485,0.9954142,0.012211111,-0.0024422223,-0.0024422223,9.959524134883495,0.012690159208120645,stand
09/07/2020, 21:48:26,9.877572,0.2632105,1.0097711,0.012211111,-0.0024422223,-0.0024422223,9.932539818953698,0.012690159208120645,stand
09/07/2020, 21:48:26,9.877572,0.2632105,1.0097711,0.012211111,-0.0048844446,-0.0036633336,9.932539818953698,0.013652437640065379,stand
09/07/2020, 21:48:26,9.944571,0.23928227,0.98584294,0.012211111,-0.0048844446,-0.0036633336,9.9961805487721,0.013652437640065379,stand
09/07/2020, 21:48:26,9.944571,0.23928227,0.98584294,0.014653334,-0.007326667,-0.0012211112,9.9961805487721,0.01642837099496898,stand
09/07/2020, 21:48:26,9.985249,0.2321038,0.9906286,0.014653334,-0.007326667,-0.0012211112,10.036952033024503,0.01642837099496898,stand
09/07/2020, 21:48:26,9.985249,0.2321038,0.9906286,0.019537779,-0.007326667,0.0,10.036952033024503,0.020866356742743297,stand
09/07/2020, 21:48:26,9.930214,0.25842485,0.9906286,0.019537779,-0.007326667,0.0,9.982849146705176,0.020866356742743297,stand
09/07/2020, 21:48:26,9.930214,0.25842485,0.9906286,0.013432222,-0.01099,-0.0012211112,9.982849146705176,0.01739815561540819,stand
09/07/2020, 21:48:26,9.982856,0.2632105,1.0241281,0.013432222,-0.01099,-0.0012211112,10.038701507321532,0.01739815561540819,stand
09/07/2020, 21:48:26,9.982856,0.2632105,1.0241281,0.014653334,-0.0024422223,-0.0024422223,10.038701507321532,0.015054869929680003,stand
09/07/2020, 21:48:26,9.944571,0.2632105,1.026521,0.014653334,-0.0024422223,-0.0024422223,10.000875377649457,0.015054869929680003,stand
09/07/2020, 21:48:26,9.944571,0.2632105,1.026521,0.018316668,-0.009768889,0.0,10.000875377649457,0.02075888983467046,stand
09/07/2020, 21:48:26,9.934999,0.2656033,1.0217353,0.018316668,-0.009768889,0.0,9.990931015083474,0.02075888983467046,stand
09/07/2020, 21:48:26,9.934999,0.2656033,1.0217353,0.012211111,-0.008547778,-0.0012211112,9.990931015083474,0.014955496191131814,stand
09/07/2020, 21:48:26,9.891929,0.27756742,1.0313065,0.012211111,-0.008547778,-0.0012211112,9.949416548014927,0.014955496191131814,stand
09/07/2020, 21:48:26,9.891929,0.27756742,1.0313065,0.015874445,-0.0024422223,0.0,9.949416548014927,0.01606121003671381,stand
09/07/2020, 21:48:27,9.985249,0.2440679,1.0600204,0.017095556,-0.0012211112,-0.0024422223,10.044321849147774,0.017312238843841643,stand
09/07/2020, 21:48:27,9.985249,0.2440679,1.0600204,0.018316668,-0.0048844446,0.0,10.044321849147774,0.018956743094790826,stand
09/07/2020, 21:48:27,9.932607,0.24646074,1.0432707,0.018316668,-0.0048844446,0.0,9.990286905868869,0.018956743094790826,stand
09/07/2020, 21:48:27,9.932607,0.24646074,1.0432707,0.019537779,-0.007326667,0.0012211112,9.990286905868869,0.020902056266841836,stand
09/07/2020, 21:48:27,9.920643,0.27996024,1.0336994,0.019537779,-0.007326667,0.0012211112,9.978279750881477,0.020902056266841836,stand
09/07/2020, 21:48:27,9.920643,0.27996024,1.0336994,0.015874445,-0.0048844446,0.0024422223,9.978279750881477,0.016787503307881473,stand
09/07/2020, 21:48:27,9.970892,0.27517462,1.0408778,0.015874445,-0.0048844446,0.0024422223,10.028850085288868,0.016787503307881473,stand
09/07/2020, 21:48:27,9.970892,0.27517462,1.0408778,0.01099,-0.0024422223,-0.0024422223,10.028850085288868,0.01151993953915588,stand
09/07/2020, 21:48:27,9.956535,0.27038896,1.0169497,0.01099,-0.0024422223,-0.0024422223,10.011987452648277,0.01151993953915588,stand
09/07/2020, 21:48:27,9.956535,0.27038896,1.0169497,0.014653334,-0.0012211112,-0.0024422223,10.011987452648277,0.014905561753895855,stand
09/07/2020, 21:48:27,9.930214,0.26081768,0.997807,0.014653334,-0.0012211112,-0.0024422223,9.983626264125864,0.014905561753895855,stand
09/07/2020, 21:48:27,9.930214,0.26081768,0.997807,0.018316668,-0.007326667,0.0036633336,9.983626264125864,0.020064904050694856,stand
09/07/2020, 21:48:27,9.894321,0.23449662,0.98584294,0.018316668,-0.007326667,0.0036633336,9.946078210313441,0.020064904050694856,stand
09/07/2020, 21:48:27,9.894321,0.23449662,0.98584294,0.017095556,-0.007326667,0.0036633336,9.946078210313441,0.018956743304761988,stand
09/07/2020, 21:48:27,9.994821,0.24646074,1.0073783,0.017095556,-0.007326667,0.0036633336,10.048482111031147,0.018956743304761988,stand
09/07/2020, 21:48:27,9.994821,0.24646074,1.0073783,0.018316668,0.0,0.0012211112,10.048482111031147,0.01835732610594468,stand
09/07/2020, 21:48:27,9.944571,0.2632105,1.0336994,0.018316668,0.0,0.0012211112,10.001614742542506,0.01835732610594468,stand
09/07/2020, 21:48:27,9.944571,0.2632105,1.0336994,0.017095556,-0.0012211112,-0.0048844446,10.001614742542506,0.017821530893493427,stand
09/07/2020, 21:48:27,9.946963,0.2536392,1.0408778,0.017095556,-0.0012211112,-0.0048844446,10.004490920027704,0.017821530893493427,stand
09/07/2020, 21:48:27,9.946963,0.2536392,1.0408778,0.012211111,-0.0048844446,0.0,10.004490920027704,0.013151769480256134,stand
09/07/2020, 21:48:28,9.999606,0.2440679,1.0360922,0.015874445,-0.008547778,0.0024422223,10.056101576510656,0.01819414688042557,stand
09/07/2020, 21:48:28,9.999606,0.2440679,1.0360922,0.02075889,-0.0012211112,0.0,10.056101576510656,0.020794773635141855,stand
09/07/2020, 21:48:28,9.932607,0.25603202,1.0360922,0.02075889,-0.0012211112,0.0,9.989780536255575,0.020794773635141855,stand
09/07/2020, 21:48:28,9.932607,0.25603202,1.0360922,0.017095556,-0.0012211112,-0.0061055557,9.989780536255575,0.018194146700720018,stand
09/07/2020, 21:48:28,9.961321,0.2656033,0.9954142,0.017095556,-0.0012211112,-0.0061055557,10.014454960484699,0.018194146700720018,stand
09/07/2020, 21:48:28,9.961321,0.2656033,0.9954142,0.014653334,-0.0036633336,-0.0036633336,10.014454960484699,0.015542208175590436,stand
09/07/2020, 21:48:28,9.966106,0.25603202,1.0169497,0.014653334,-0.0036633336,-0.0036633336,10.021128482572001,0.015542208175590436,stand
09/07/2020, 21:48:28,9.966106,0.25603202,1.0169497,0.013432222,0.0012211112,0.0012211112,10.021128482572001,0.013542777559765705,stand
09/07/2020, 21:48:28,9.961321,0.2440679,1.0313065,0.013432222,0.0012211112,0.0012211112,10.01753841355843,0.013542777559765705,stand
09/07/2020, 21:48:28,9.961321,0.2440679,1.0313065,0.012211111,0.0024422223,0.0012211112,10.01753841355843,0.012512665716268013,stand
09/07/2020, 21:48:28,9.827323,0.2416751,1.0432707,0.012211111,0.0024422223,0.0012211112,9.885499338803324,0.012512665716268013,stand
09/07/2020, 21:48:28,9.827323,0.2416751,1.0432707,0.013432222,-0.008547778,-0.0024422223,9.885499338803324,0.016107562255969817,stand
09/07/2020, 21:48:28,9.848858,0.27756742,1.0169497,0.013432222,-0.008547778,-0.0024422223,9.905111397757883,0.016107562255969817,stand
09/07/2020, 21:48:28,9.848858,0.27756742,1.0169497,0.019537779,-0.007326667,0.0,9.905111397757883,0.020866356742743297,stand
09/07/2020, 21:48:28,9.925428,0.2632105,1.0097711,0.019537779,-0.007326667,0.0,9.980132574114057,0.020866356742743297,stand
09/07/2020, 21:48:28,9.925428,0.2632105,1.0097711,0.017095556,-0.008547778,0.0012211112,9.980132574114057,0.01915238044688202,stand
09/07/2020, 21:48:28,9.908679,0.2727818,1.0049855,0.017095556,-0.008547778,0.0012211112,9.963248735019603,0.01915238044688202,stand
09/07/2020, 21:48:28,9.908679,0.2727818,1.0049855,0.015874445,-0.0048844446,0.0,9.963248735019603,0.01660890777399157,stand
09/07/2020, 21:48:28,9.877572,0.28235307,1.0001999,0.015874445,-0.0048844446,0.0,9.932097105806388,0.01660890777399157,stand
09/07/2020, 21:48:28,9.877572,0.28235307,1.0001999,0.014653334,-0.0061055557,0.0012211112,9.932097105806388,0.015921342015681485,stand
09/07/2020, 21:48:29,9.930214,0.25603202,1.0480564,0.013432222,-0.0012211112,0.0,9.988649718440579,0.013487613264269558,stand
09/07/2020, 21:48:29,9.930214,0.25603202,1.0480564,0.013432222,-0.0036633336,-0.0024422223,9.988649718440579,0.014135383334772272,stand
09/07/2020, 21:48:29,10.001999,0.24885355,1.038485,0.013432222,-0.0036633336,-0.0024422223,10.05884492928845,0.014135383334772272,stand
09/07/2020, 21:48:29,10.001999,0.24885355,1.038485,0.017095556,-0.007326667,-0.0036633336,10.05884492928845,0.018956743304761988,stand
09/07/2020, 21:48:29,9.966106,0.2416751,1.0025927,0.017095556,-0.007326667,-0.0036633336,10.019325127454763,0.018956743304761988,stand
09/07/2020, 21:48:29,9.966106,0.2416751,1.0025927,0.015874445,-0.0061055557,0.0024422223,10.019325127454763,0.01718255737926435,stand
09/07/2020, 21:48:29,9.911072,0.23928227,1.0193424,0.015874445,-0.0061055557,0.0024422223,9.966225903140458,0.01718255737926435,stand
09/07/2020, 21:48:29,9.911072,0.23928227,1.0193424,0.017095556,-0.0061055557,0.0012211112,9.966225903140458,0.018194146700720018,stand
09/07/2020, 21:48:29,9.894321,0.24646074,1.0336994,0.017095556,-0.0061055557,0.0012211112,9.951224754805029,0.018194146700720018,stand
09/07/2020, 21:48:29,9.894321,0.24646074,1.0336994,0.017095556,-0.007326667,0.0012211112,9.951224754805029,0.01863945321449518,stand
09/07/2020, 21:48:29,9.930214,0.25842485,1.052842,0.017095556,-0.007326667,0.0012211112,9.989214602943244,0.01863945321449518,stand
09/07/2020, 21:48:29,9.930214,0.25842485,1.052842,0.018316668,-0.0061055557,-0.0012211112,9.989214602943244,0.019346039181400244,stand
09/07/2020, 21:48:29,9.913465,0.2321038,1.0504491,0.018316668,-0.0061055557,-0.0012211112,9.971664598313243,0.019346039181400244,stand
09/07/2020, 21:48:29,9.913465,0.2321038,1.0504491,0.017095556,-0.0061055557,0.0,9.971664598313243,0.01815312264324041,stand
09/07/2020, 21:48:29,9.949356,0.2632105,1.0313065,0.017095556,-0.0061055557,0.0,10.006126086878087,0.01815312264324041,stand
09/07/2020, 21:48:29,9.949356,0.2632105,1.0313065,0.012211111,0.007326667,-0.0024422223,10.006126086878087,0.01444838202279357,stand
09/07/2020, 21:48:29,9.932607,0.27038896,1.0743774,0.012211111,0.007326667,-0.0024422223,9.99420196035902,0.01444838202279357,stand
09/07/2020, 21:48:29,9.932607,0.27038896,1.0743774,0.012211111,0.0036633336,0.0,9.99420196035902,0.01274877460963127,stand
09/07/2020, 21:48:29,9.958928,0.27996024,1.0097711,0.012211111,0.0036633336,0.0,10.013903559308977,0.01274877460963127,stand
09/07/2020, 21:48:29,9.958928,0.27996024,1.0097711,0.014653334,-0.0024422223,-0.0024422223,10.013903559308977,0.015054869929680003,stand
09/07/2020, 21:48:30,9.896714,0.2536392,1.0169497,0.014653334,0.0,-0.0024422223,9.952058661499796,0.014855458886631858,stand
09/07/2020, 21:48:30,9.961321,0.24885355,1.0336994,0.014653334,0.0,-0.0024422223,10.017902781557403,0.014855458886631858,stand
09/07/2020, 21:48:30,9.961321,0.24885355,1.0336994,0.014653334,-0.0024422223,-0.0012211112,10.017902781557403,0.014905561753895855,stand
09/07/2020, 21:48:30,9.946963,0.24646074,1.0025927,0.014653334,-0.0024422223,-0.0012211112,10.000400695835427,0.014905561753895855,stand
09/07/2020, 21:48:30,9.946963,0.24646074,1.0025927,0.013432222,-0.0061055557,0.0,10.000400695835427,0.014754741927528998,stand
09/07/2020, 21:48:30,9.963714,0.22492532,1.0073783,0.013432222,-0.0061055557,0.0,10.017035097230416,0.014754741927528998,stand
09/07/2020, 21:48:30,9.963714,0.22492532,1.0073783,0.018316668,-0.0061055557,-0.0012211112,10.017035097230416,0.019346039181400244,stand
09/07/2020, 21:48:30,9.891929,0.25124636,1.0241281,0.018316668,-0.0061055557,-0.0012211112,9.947975468682216,0.019346039181400244,stand
09/07/2020, 21:48:30,9.891929,0.25124636,1.0241281,0.017095556,-0.0061055557,-0.0012211112,9.947975468682216,0.018194146700720018,stand
09/07/2020, 21:48:30,9.944571,0.2632105,1.0480564,0.017095556,-0.0061055557,-0.0012211112,10.003108775017763,0.018194146700720018,stand
09/07/2020, 21:48:30,9.944571,0.2632105,1.0480564,0.013432222,-0.0061055557,-0.0036633336,10.003108775017763,0.01520271102146125,stand
09/07/2020, 21:48:30,9.937392,0.25124636,1.026521,0.013432222,-0.0061055557,-0.0036633336,9.993429564462549,0.01520271102146125,stand
09/07/2020, 21:48:30,9.937392,0.25124636,1.026521,0.015874445,-0.009768889,0.0,9.993429564462549,0.018639453206868557,stand
09/07/2020, 21:48:30,9.968499,0.24646074,1.038485,0.015874445,-0.009768889,0.0,10.025476051954241,0.018639453206868557,stand
09/07/2020, 21:48:30,9.968499,0.24646074,1.038485,0.01099,-0.0061055557,-0.0012211112,10.025476051954241,0.012631271906127598,stand
09/07/2020, 21:48:30,9.949356,0.25603202,1.0408778,0.01099,-0.0061055557,-0.0012211112,10.006930869060668,0.012631271906127598,stand
09/07/2020, 21:48:30,9.949356,0.25603202,1.0408778,0.012211111,-0.0036633336,0.0,10.006930869060668,0.01274877460963127,stand
09/07/2020, 21:48:30,9.939785,0.25603202,1.0576276,0.012211111,-0.0036633336,0.0,9.999172684135198,0.01274877460963127,stand
09/07/2020, 21:48:30,9.939785,0.25603202,1.0576276,0.012211111,0.0,-0.0024422223,9.999172684135198,0.01245293904507187,stand
09/07/2020, 21:48:30,9.891929,0.2440679,1.0432707,0.012211111,0.0,-0.0024422223,9.94978571524643,0.01245293904507187,stand
09/07/2020, 21:48:31,9.853643,0.2416751,1.0145568,0.015874445,-0.01099,0.0036633336,9.90868411434815,0.01965192454396768,stand
09/07/2020, 21:48:31,9.853643,0.2416751,1.0145568,0.012211111,-0.0048844446,-0.0036633336,9.90868411434815,0.013652437640065379,stand
09/07/2020, 21:48:31,9.91825,0.26799613,1.0217353,0.012211111,-0.0048844446,-0.0036633336,9.974339562048534,0.013652437640065379,stand
09/07/2020, 21:48:31,9.91825,0.26799613,1.0217353,0.018316668,-0.0024422223,-0.0036633336,9.974339562048534,0.018838385605312775,stand
09/07/2020, 21:48:31,9.911072,0.2656033,1.0504491,0.018316668,-0.0024422223,-0.0036633336,9.970121978770283,0.018838385605312775,stand
09/07/2020, 21:48:31,9.911072,0.2656033,1.0504491,0.015874445,-0.0036633336,-0.0036633336,9.970121978770283,0.016698444361209732,stand
09/07/2020, 21:48:31,9.891929,0.22731815,1.0193424,0.015874445,-0.0036633336,-0.0036633336,9.946908332966549,0.016698444361209732,stand
09/07/2020, 21:48:31,9.891929,0.22731815,1.0193424,0.009768889,-0.0036633336,0.0,9.946908332966549,0.010433178371371648,stand
09/07/2020, 21:48:31,9.91825,0.25842485,1.0025927,0.009768889,-0.0036633336,0.0,9.972144213615984,0.010433178371371648,stand
09/07/2020, 21:48:31,9.91825,0.25842485,1.0025927,0.02075889,-0.0048844446,0.0012211112,9.972144213615984,0.02136072119581841,stand
09/07/2020, 21:48:31,9.913465,0.28235307,1.0241281,0.02075889,-0.0048844446,0.0012211112,9.970222710146247,0.02136072119581841,stand
09/07/2020, 21:48:31,9.913465,0.28235307,1.0241281,0.018316668,-0.0061055557,-0.0024422223,9.970222710146247,0.019461309550198667,stand
09/07/2020, 21:48:31,9.908679,0.28235307,1.012164,0.018316668,-0.0061055557,-0.0024422223,9.964242013691399,0.019461309550198667,stand
09/07/2020, 21:48:31,9.908679,0.28235307,1.012164,0.014653334,-0.0024422223,-0.0048844446,9.964242013691399,0.01563785337573877,stand
09/07/2020, 21:48:31,9.851251,0.24646074,1.038485,0.014653334,-0.0024422223,-0.0048844446,9.908901726898126,0.01563785337573877,stand
09/07/2020, 21:48:31,9.851251,0.24646074,1.038485,0.018316668,-0.007326667,-0.0012211112,9.908901726898126,0.019765411050021373,stand
09/07/2020, 21:48:31,9.894321,0.25842485,1.0049855,0.018316668,-0.007326667,-0.0012211112,9.948586630826318,0.019765411050021373,stand
09/07/2020, 21:48:31,9.894321,0.25842485,1.0049855,0.01099,0.0,0.0,9.948586630826318,0.010990000329911709,stand
09/07/2020, 21:48:31,9.858429,0.27756742,1.012164,0.01099,0.0,0.0,9.914138444120836,0.010990000329911709,stand
09/07/2020, 21:48:31,9.858429,0.27756742,1.012164,0.014653334,-0.0024422223,0.0,9.914138444120836,0.014855458886631858,stand
09/07/2020, 21:48:32,9.911072,0.27038896,1.0504491,0.012211111,-0.0024422223,-0.0048844446,9.9702506160404,0.013376602346222692,stand
09/07/2020, 21:48:32,9.942178,0.29910284,1.0552348,0.012211111,-0.0024422223,-0.0048844446,10.00249378068849,0.013376602346222692,stand
09/07/2020, 21:48:32,9.942178,0.29910284,1.0552348,0.013432222,-0.0048844446,-0.0048844446,10.00249378068849,0.015104310578013704,stand
09/07/2020, 21:48:32,9.934999,0.2727818,1.0600204,0.013432222,-0.0048844446,-0.0048844446,9.995112187486278,0.015104310578013704,stand
09/07/2020, 21:48:32,9.934999,0.2727818,1.0600204,0.012211111,-0.007326667,0.0012211112,9.995112187486278,0.014292739614090928,stand
09/07/2020, 21:48:32,9.8632145,0.27038896,1.012164,0.012211111,-0.007326667,0.0012211112,9.918698819769123,0.014292739614090928,stand
09/07/2020, 21:48:32,9.8632145,0.27038896,1.012164,0.012211111,-0.0036633336,0.0012211112,9.918698819769123,0.012807121710750326,stand
09/07/2020, 21:48:32,9.923036,0.2632105,1.0408778,0.012211111,-0.0036633336,0.0012211112,9.980948970548011,0.012807121710750326,stand
09/07/2020, 21:48:32,9.923036,0.2632105,1.0408778,0.01099,-0.0036633336,-0.0012211112,9.980948970548011,0.011648657981601578,stand
09/07/2020, 21:48:32,9.858429,0.24885355,1.0313065,0.01099,-0.0036633336,-0.0012211112,9.915348842024015,0.011648657981601578,stand
09/07/2020, 21:48:32,9.858429,0.24885355,1.0313065,0.018316668,-0.0024422223,-0.0048844446,9.915348842024015,0.01911341305547163,stand
09/07/2020, 21:48:32,9.889536,0.25124636,1.0169497,0.018316668,-0.0024422223,-0.0048844446,9.944859563011713,0.01911341305547163,stand
09/07/2020, 21:48:32,9.889536,0.25124636,1.0169497,0.017095556,0.0024422223,-0.0012211112,9.944859563011713,0.017312238843841643,stand
09/07/2020, 21:48:32,9.899107,0.24885355,1.0001999,0.017095556,0.0024422223,-0.0012211112,9.9526201045738,0.017312238843841643,stand
09/07/2020, 21:48:32,9.899107,0.24885355,1.0001999,0.017095556,-0.007326667,0.007326667,9.9526201045738,0.019990451617831702,stand
09/07/2020, 21:48:32,9.961321,0.24885355,1.0241281,0.017095556,-0.007326667,0.007326667,10.016919687614989,0.019990451617831702,stand
09/07/2020, 21:48:32,9.961321,0.24885355,1.0241281,0.017095556,-0.0024422223,0.0024422223,10.016919687614989,0.01744095614313045,stand
09/07/2020, 21:48:32,9.97807,0.2656033,1.079163,0.017095556,-0.0024422223,0.0024422223,10.039772103714608,0.01744095614313045,stand
09/07/2020, 21:48:32,9.97807,0.2656033,1.079163,0.013432222,-0.0036633336,-0.0061055557,10.039772103714608,0.01520271102146125,stand
09/07/2020, 21:48:32,9.95175,0.25603202,1.0480564,0.013432222,-0.0036633336,-0.0061055557,10.01005987253787,0.01520271102146125,stand
09/07/2020, 21:48:33,9.944571,0.25603202,1.0360922,0.014653334,-0.0048844446,0.0,10.001675990359898,0.015445970618058637,stand
09/07/2020, 21:48:33,9.944571,0.25603202,1.0360922,0.015874445,0.0036633336,-0.0012211112,10.001675990359898,0.01633735423797664,stand
09/07/2020, 21:48:33,9.927821,0.25842485,1.0169497,0.015874445,0.0036633336,-0.0012211112,9.983115894976319,0.01633735423797664,stand
09/07/2020, 21:48:33,9.927821,0.25842485,1.0169497,0.019537779,0.0012211112,0.0012211112,9.983115894976319,0.01961394953681452,stand
09/07/2020, 21:48:33,9.932607,0.2656033,1.0241281,0.019537779,0.0012211112,0.0012211112,9.988796686138977,0.01961394953681452,stand
09/07/2020, 21:48:33,9.932607,0.2656033,1.0241281,0.015874445,0.0012211112,-0.0012211112,9.988796686138977,0.015968100792199725,stand
09/07/2020, 21:48:33,9.937392,0.27038896,1.0313065,0.015874445,0.0012211112,-0.0012211112,9.994421830507543,0.015968100792199725,stand
09/07/2020, 21:48:33,9.937392,0.27038896,1.0313065,0.015874445,-0.0036633336,-0.0036633336,9.994421830507543,0.016698444361209732,stand
09/07/2020, 21:48:33,9.985249,0.2656033,1.0336994,0.015874445,-0.0036633336,-0.0036633336,10.042124698936501,0.016698444361209732,stand
09/07/2020, 21:48:33,9.985249,0.2656033,1.0336994,0.019537779,-0.0048844446,-0.0012211112,10.042124698936501,0.020176067590950624,stand
09/07/2020, 21:48:33,9.990034,0.25603202,1.0336994,0.019537779,-0.0048844446,-0.0012211112,10.046634671262229,0.020176067590950624,stand
09/07/2020, 21:48:33,9.990034,0.25603202,1.0336994,0.014653334,-0.0024422223,0.0,10.046634671262229,0.014855458886631858,stand
09/07/2020, 21:48:33,10.006784,0.26081768,1.0169497,0.014653334,-0.0024422223,0.0,10.061706975900426,0.014855458886631858,stand
09/07/2020, 21:48:33,10.006784,0.26081768,1.0169497,0.017095556,-0.0061055557,0.0,10.061706975900426,0.01815312264324041,stand
09/07/2020, 21:48:33,9.985249,0.2847459,1.0289137,0.017095556,-0.0061055557,0.0,10.04215776731935,0.01815312264324041,stand
09/07/2020, 21:48:33,9.985249,0.2847459,1.0289137,0.017095556,-0.0024422223,-0.0024422223,10.04215776731935,0.01744095614313045,stand
09/07/2020, 21:48:33,9.999606,0.28713873,1.0217353,0.017095556,-0.0024422223,-0.0024422223,10.05577020921536,0.01744095614313045,stand
09/07/2020, 21:48:33,9.999606,0.28713873,1.0217353,0.015874445,-0.008547778,-0.0024422223,10.05577020921536,0.01819414688042557,stand
09/07/2020, 21:48:33,9.925428,0.26081768,1.0025927,0.015874445,-0.008547778,-0.0024422223,9.979346004784334,0.01819414688042557,stand
09/07/2020, 21:48:33,9.925428,0.26081768,1.0025927,0.015874445,-0.0036633336,0.0012211112,9.979346004784334,0.01633735423797664,stand
