DATE,TIME,ax,ay,az,gx,gy,gz,ma,mg,label
10/07/2020, 21:01:24,-4.2161536,-1.7036897,8.549556,-0.13920668,-0.07693,0.03174889,9.683667381013915,0.16218728770564428,fall
10/07/2020, 21:01:24,-4.3501515,-1.8664017,8.707481,-0.13920668,-0.07693,0.03174889,9.910979047051113,0.16218728770564428,fall
10/07/2020, 21:01:24,-4.3501515,-1.8664017,8.707481,-0.12089001,-0.036633335,-0.046402223,9.910979047051113,0.13457176980091895,fall
10/07/2020, 21:01:24,-4.3334017,-2.1224337,8.963513,-0.12089001,-0.036633335,-0.046402223,10.179767521082281,0.13457176980091895,fall
10/07/2020, 21:01:24,-4.3334017,-2.1224337,8.963513,-0.046402223,-0.058613338,0.0,10.179767521082281,0.0747575392791278,fall
10/07/2020, 21:01:24,-4.3645086,-2.184647,8.872586,-0.046402223,-0.058613338,0.0,10.126421145639924,0.0747575392791278,fall
10/07/2020, 21:01:24,-4.3645086,-2.184647,8.872586,-0.06105556,-0.10135223,0.057392225,10.126421145639924,0.13150636215252343,fall
10/07/2020, 21:01:24,-4.211368,-1.9357935,8.796016,-0.06105556,-0.10135223,0.057392225,9.942475072904015,0.13150636215252343,fall
10/07/2020, 21:01:24,-4.211368,-1.9357935,8.796016,-0.03052778,-0.08425667,0.01099,9.942475072904015,0.09028794005263609,fall
10/07/2020, 21:01:24,-4.182654,-1.9405792,8.669196,-0.03052778,-0.08425667,0.01099,9.819134520864548,0.09028794005263609,fall
10/07/2020, 21:01:24,-4.182654,-1.9405792,8.669196,0.007326667,-0.05617111,-0.026864445,9.819134520864548,0.06269427601665928,fall
10/07/2020, 21:01:24,-4.082155,-2.0315065,8.62134,0.007326667,-0.05617111,-0.026864445,9.752871886289238,0.06269427601665928,fall
10/07/2020, 21:01:24,-4.082155,-2.0315065,8.62134,0.0012211112,-0.03297,-0.012211111,9.752871886289238,0.0351798700581969,fall
10/07/2020, 21:01:24,-4.063013,-2.1128623,8.609376,0.0012211112,-0.03297,-0.012211111,9.751595606758757,0.0351798700581969,fall
10/07/2020, 21:01:24,-4.063013,-2.1128623,8.609376,0.009768889,-0.018316668,0.0024422223,9.751595606758757,0.020902056287245,fall
10/07/2020, 21:01:24,-4.113262,-2.1080768,8.630911,0.009768889,-0.018316668,0.0024422223,9.79058405193102,0.020902056287245,fall
10/07/2020, 21:01:24,-4.113262,-2.1080768,8.630911,0.04396,-0.0061055557,-0.0048844446,9.79058405193102,0.044649942057524795,fall
10/07/2020, 21:01:24,-4.1635113,-2.009971,8.645268,0.04396,-0.0061055557,-0.0048844446,9.803850038828868,0.044649942057524795,fall
10/07/2020, 21:01:24,-4.1635113,-2.009971,8.645268,0.070824444,-0.0036633336,-0.013432222,9.803850038828868,0.07217995928028963,fall
10/07/2020, 21:01:24,-4.173083,-1.8687944,8.592627,0.070824444,-0.0036633336,-0.013432222,9.733460040353878,0.07217995928028963,fall
10/07/2020, 21:01:25,0.6628119,-3.6658044,9.24826,0.03297,0.06105556,-0.12699556,9.970343323056111,0.14471584370874738,fall
10/07/2020, 21:01:25,0.6628119,-3.6658044,9.24826,0.03052778,0.07204556,-0.13188,9.970343323056111,0.15334549916941642,fall
10/07/2020, 21:01:25,0.59581286,-3.6729827,9.092726,0.03052778,0.07204556,-0.13188,9.824635181791038,0.15334549916941642,fall
10/07/2020, 21:01:25,0.59581286,-3.6729827,9.092726,0.05372889,0.07693,-0.13554333,9.824635181791038,0.16485452196646294,fall
10/07/2020, 21:01:25,0.56470615,-3.6658044,8.975478,0.05372889,0.07693,-0.13554333,9.711653991522217,0.16485452196646294,fall
10/07/2020, 21:01:25,0.56470615,-3.6658044,8.975478,0.08303556,0.09280445,-0.15386,9.711653991522217,0.19794057129891054,fall
10/07/2020, 21:01:25,0.5240282,-3.6514473,8.99462,0.08303556,0.09280445,-0.15386,9.721670003155412,0.19794057129891054,fall
10/07/2020, 21:01:25,0.5240282,-3.6514473,8.99462,0.091583334,0.106236674,-0.17584,9.721670003155412,0.22492986770523174,fall
10/07/2020, 21:01:25,0.5240282,-3.6059837,8.970692,0.091583334,0.106236674,-0.17584,9.682511733031536,0.22492986770523174,fall
10/07/2020, 21:01:25,0.5240282,-3.6059837,8.970692,0.07693,0.11600556,-0.18683001,9.682511733031536,0.23298276698429202,fall
10/07/2020, 21:01:25,0.48095736,-3.5581272,8.913264,0.07693,0.11600556,-0.18683001,9.60925954125688,0.23298276698429202,fall
10/07/2020, 21:01:25,0.48095736,-3.5581272,8.913264,0.029306669,0.11844778,-0.18927222,9.60925954125688,0.2251948771319231,fall
10/07/2020, 21:01:25,0.4235296,-3.5174494,8.848659,0.029306669,0.11844778,-0.18927222,9.53155736452425,0.2251948771319231,fall
10/07/2020, 21:01:25,0.4235296,-3.5174494,8.848659,-0.024422223,0.11966889,-0.18072446,9.53155736452425,0.2181247770506946,fall
10/07/2020, 21:01:25,0.42592242,-3.5174494,8.796016,-0.024422223,0.11966889,-0.18072446,9.482813555744729,0.2181247770506946,fall
10/07/2020, 21:01:25,0.42592242,-3.5174494,8.796016,-0.04151778,0.11478445,-0.16973445,9.482813555744729,0.20906692398897095,fall
10/07/2020, 21:01:25,0.44506502,-3.546163,8.752945,-0.04151778,0.11478445,-0.16973445,9.454491033955978,0.20906692398897095,fall
10/07/2020, 21:01:25,0.44506502,-3.546163,8.752945,-0.014653334,0.12821667,-0.16240779,9.454491033955978,0.20743799856825004,fall
10/07/2020, 21:01:25,0.51206404,-3.5581272,8.805588,-0.014653334,0.12821667,-0.16240779,9.511091128343711,0.20743799856825004,fall
10/07/2020, 21:01:25,0.51206404,-3.5581272,8.805588,0.03174889,0.15996556,-0.15508112,9.511091128343711,0.2250491660795035,fall
10/07/2020, 21:01:26,0.44985065,-3.8141594,8.9108715,0.007326667,0.08303556,-0.025643334,9.703288539223356,0.08721332804875298,fall
10/07/2020, 21:01:26,0.4331009,-3.7974095,8.896515,0.007326667,0.08303556,-0.025643334,9.682761631043137,0.08721332804875298,fall
10/07/2020, 21:01:26,0.4331009,-3.7974095,8.896515,0.0024422223,0.08792,-0.024422223,9.682761631043137,0.0912816316568289,fall
10/07/2020, 21:01:26,0.36131623,-3.802195,8.920443,0.0024422223,0.08792,-0.024422223,9.703686548513234,0.0912816316568289,fall
10/07/2020, 21:01:26,0.36131623,-3.802195,8.920443,0.0012211112,0.081814446,-0.024422223,9.703686548513234,0.08539051222440137,fall
10/07/2020, 21:01:26,0.28953153,-3.7830527,9.016156,0.0012211112,0.081814446,-0.024422223,9.781941968191203,0.08539051222440137,fall
10/07/2020, 21:01:26,0.28953153,-3.7830527,9.016156,-0.01099,0.07204556,-0.02075889,9.781941968191203,0.07577779303800593,fall
10/07/2020, 21:01:26,0.22492532,-3.696911,9.083155,-0.01099,0.07204556,-0.02075889,9.809252875128674,0.07577779303800593,fall
10/07/2020, 21:01:26,0.22492532,-3.696911,9.083155,-0.028085556,0.054950003,-0.009768889,9.809252875128674,0.06247985619920313,fall
10/07/2020, 21:01:26,0.18424734,-3.603591,9.12144,-0.028085556,0.054950003,-0.009768889,9.809203912373459,0.06247985619920313,fall
10/07/2020, 21:01:26,0.18424734,-3.603591,9.12144,-0.04396,0.025643334,0.018316668,9.809203912373459,0.054088470058966276,fall
10/07/2020, 21:01:26,0.2009971,-3.6083765,9.042477,-0.04396,0.025643334,0.018316668,9.73792405291515,0.054088470058966276,fall
10/07/2020, 21:01:26,0.2009971,-3.6083765,9.042477,-0.06349778,0.01099,0.04396,9.73792405291515,0.07800788492771107,fall
10/07/2020, 21:01:26,0.26799613,-3.5940197,9.032906,-0.06349778,0.01099,0.04396,9.725337134200172,0.07800788492771107,fall
10/07/2020, 21:01:26,0.26799613,-3.5940197,9.032906,-0.06716111,0.015874445,0.06349778,9.725337134200172,0.09377942955780043,fall
10/07/2020, 21:01:26,0.35413775,-3.5988052,9.049655,-0.06716111,0.015874445,0.06349778,9.745412625472767,0.09377942955780043,fall
10/07/2020, 21:01:26,0.35413775,-3.5988052,9.049655,-0.04029667,0.03052778,0.06105556,9.745412625472767,0.07926883577153837,fall
10/07/2020, 21:01:26,0.42592242,-3.586841,8.999406,-0.04029667,0.03052778,0.06105556,9.697223565681584,0.07926883577153837,fall
10/07/2020, 21:01:26,0.42592242,-3.586841,8.999406,-0.023201112,0.04151778,0.039075557,9.697223565681584,0.061554177295965136,fall
10/07/2020, 21:01:26,0.40438703,-3.7208393,8.953942,-0.023201112,0.04151778,0.039075557,9.704702796745917,0.061554177295965136,fall
10/07/2020, 21:01:27,-1.2370893,-4.5008993,9.102298,-0.035412222,0.039075557,-0.035412222,10.229384607531877,0.06352125723544616,fall
10/07/2020, 21:01:27,-1.2370893,-4.5008993,9.102298,-0.08669889,-0.012211111,-0.0061055557,10.229384607531877,0.08776722926050155,fall
10/07/2020, 21:01:27,-1.1509477,-4.5128636,8.903693,-0.08669889,-0.012211111,-0.0061055557,10.048202394814211,0.08776722926050155,fall
10/07/2020, 21:01:27,-1.1509477,-4.5128636,8.903693,-0.098910004,-0.046402223,0.0061055557,10.048202394814211,0.1094240970676811,fall
10/07/2020, 21:01:27,-1.0336994,-4.57747,8.633304,-0.098910004,-0.046402223,0.0061055557,9.826275806272571,0.1094240970676811,fall
10/07/2020, 21:01:27,-1.0336994,-4.57747,8.633304,-0.07204556,-0.078151114,-0.0012211112,9.826275806272571,0.10629981227096363,fall
10/07/2020, 21:01:27,-0.9834501,-4.694718,8.5423765,-0.07204556,-0.078151114,-0.0012211112,9.796925370678547,0.10629981227096363,fall
10/07/2020, 21:01:27,-0.9834501,-4.694718,8.5423765,-0.024422223,-0.09646778,-0.018316668,9.796925370678547,0.10118289125263782,fall
10/07/2020, 21:01:27,-0.95473623,-4.867001,8.575876,-0.024422223,-0.09646778,-0.018316668,9.906809464924336,0.10118289125263782,fall
10/07/2020, 21:01:27,-0.95473623,-4.867001,8.575876,-0.007326667,-0.10379445,0.0036633336,9.906809464924336,0.10411718166095509,fall
10/07/2020, 21:01:27,-0.8805587,-4.752146,8.834301,-0.007326667,-0.10379445,0.0036633336,10.069912965679773,0.10411718166095509,fall
10/07/2020, 21:01:27,-0.8805587,-4.752146,8.834301,0.014653334,-0.13310112,0.036633335,10.069912965679773,0.13882589725502062,fall
10/07/2020, 21:01:27,-0.83988076,-4.613362,9.0233345,0.014653334,-0.13310112,0.036633335,10.169025158774028,0.13882589725502062,fall
10/07/2020, 21:01:27,-0.83988076,-4.613362,9.0233345,-0.026864445,-0.16973445,0.036633335,10.169025158774028,0.1757085158364965,fall
10/07/2020, 21:01:27,-0.7704889,-4.6612186,9.142975,-0.026864445,-0.16973445,0.036633335,10.291481991633763,0.1757085158364965,fall
10/07/2020, 21:01:27,-0.7704889,-4.6612186,9.142975,-0.11234222,-0.20881,0.048844445,10.291481991633763,0.24209124687919528,fall
10/07/2020, 21:01:27,-0.6795616,-4.6731825,9.162118,-0.11234222,-0.20881,0.048844445,10.307513959607254,0.24209124687919528,fall
10/07/2020, 21:01:27,-0.6795616,-4.6731825,9.162118,-0.123332225,-0.24178001,0.08303556,10.307513959607254,0.28383677748252145,fall
10/07/2020, 21:01:27,-0.55752766,-4.6971107,9.123833,-0.123332225,-0.24178001,0.08303556,10.277062263344149,0.28383677748252145,fall
10/07/2020, 21:01:27,-0.55752766,-4.6971107,9.123833,-0.06105556,-0.23567446,0.11356334,10.277062263344149,0.2686389060546469,fall
10/07/2020, 21:01:28,7.2670026,0.7920243,1.5553347,0.6569578,2.3921568,0.9378134,7.473666773325229,2.652075013534963,fall
10/07/2020, 21:01:28,7.2670026,0.7920243,1.5553347,0.7131289,2.997828,1.4201523,7.473666773325229,3.392986618690409,fall
10/07/2020, 21:01:28,6.1998034,0.52163535,1.7946169,0.7131289,2.997828,1.4201523,6.475362152252803,3.392986618690409,fall
10/07/2020, 21:01:28,6.1998034,0.52163535,1.7946169,0.81081784,3.6560068,1.9293556,6.475362152252803,4.212626792941455,fall
10/07/2020, 21:01:28,4.4147577,0.23449662,1.875973,0.81081784,3.6560068,1.9293556,4.802535696211751,4.212626792941455,fall
10/07/2020, 21:01:28,4.4147577,0.23449662,1.875973,1.0049745,4.327618,2.4629812,4.802535696211751,5.079815826896749,fall
10/07/2020, 21:01:28,2.1224337,0.0526421,1.9453648,1.0049745,4.327618,2.4629812,2.879572915380915,5.079815826896749,fall
10/07/2020, 21:01:28,2.1224337,0.0526421,1.9453648,1.2614079,4.951606,2.9709635,2.879572915380915,5.910683016767181,fall
10/07/2020, 21:01:28,-0.70348984,0.05503492,2.1487548,1.2614079,4.951606,2.9709635,2.2616529660843656,5.910683016767181,fall
10/07/2020, 21:01:28,-0.70348984,0.05503492,2.1487548,1.5398211,5.5328546,3.4789457,2.2616529660843656,6.714655026426873,fall
10/07/2020, 21:01:28,-3.9242291,0.040677983,2.3018954,1.5398211,5.5328546,3.4789457,4.549719927835645,6.714655026426873,fall
10/07/2020, 21:01:28,-3.9242291,0.040677983,2.3018954,1.8084656,6.142189,4.0223403,4.549719927835645,7.561498219701792,fall
10/07/2020, 21:01:28,-7.4679995,0.0023928226,2.062613,1.8084656,6.142189,4.0223403,7.7476056989021735,7.561498219701792,fall
10/07/2020, 21:01:28,-7.4679995,0.0023928226,2.062613,2.0111701,6.8858457,4.58283,7.7476056989021735,8.512461818306917,fall
10/07/2020, 21:01:28,-11.334801,0.009571291,1.1724831,2.0111701,6.8858457,4.58283,11.395284795252659,8.512461818306917,fall
10/07/2020, 21:01:28,-11.334801,0.009571291,1.1724831,2.1332812,7.7601614,4.980912,11.395284795252659,9.4646965187038,fall
10/07/2020, 21:01:28,-15.744773,-0.18664017,0.038285162,2.1332812,7.7601614,4.980912,15.745925642181945,9.4646965187038,fall
10/07/2020, 21:01:28,-15.744773,-0.18664017,0.038285162,2.294468,10.346475,7.2985816,15.745925642181945,12.86792190176777,fall
10/07/2020, 21:01:28,-25.847271,-4.8191447,7.1976104,2.294468,10.346475,7.2985816,27.260065433036512,12.86792190176777,fall
10/07/2020, 21:01:28,-25.847271,-4.8191447,7.1976104,2.7658167,11.148745,7.7858047,27.260065433036512,13.876707221699736,fall
10/07/2020, 21:01:29,-11.46162,-1.6606189,5.9557357,1.2614079,-0.60445005,0.24055889,13.022948332611241,1.4192879234378164,fall
10/07/2020, 21:01:29,-11.46162,-1.6606189,5.9557357,1.2687345,-0.7204556,0.23201112,13.022948332611241,1.4773532184883589,fall
10/07/2020, 21:01:29,-11.4903345,-1.5625132,6.1040907,1.2687345,-0.7204556,0.23201112,13.104547223398399,1.4773532184883589,fall
10/07/2020, 21:01:29,-11.4903345,-1.5625132,6.1040907,1.3029256,-0.7937223,0.21980001,13.104547223398399,1.5414026644448109,fall
10/07/2020, 21:01:29,-11.483156,-1.3639089,6.202196,1.3029256,-0.7937223,0.21980001,13.12213247107401,1.5414026644448109,fall
10/07/2020, 21:01:29,-11.483156,-1.3639089,6.202196,1.3126945,-0.8205867,0.20881,13.12213247107401,1.562091898338334,fall
10/07/2020, 21:01:29,-11.432906,-0.91405827,6.1064835,1.3126945,-0.8205867,0.20881,12.99369023071005,1.562091898338334,fall
10/07/2020, 21:01:29,-11.432906,-0.91405827,6.1064835,1.1820356,-0.82913446,0.19049335,12.99369023071005,1.4563515208332152,fall
10/07/2020, 21:01:29,-11.38505,-0.16510476,5.8169518,1.1820356,-0.82913446,0.19049335,12.786068460113599,1.4563515208332152,fall
10/07/2020, 21:01:29,-11.38505,-0.16510476,5.8169518,0.78273225,-0.91461223,0.15386,12.786068460113599,1.213613699209265,fall
10/07/2020, 21:01:29,-11.420942,0.567099,5.4293146,0.78273225,-0.91461223,0.15386,12.65847469433539,1.213613699209265,fall
10/07/2020, 21:01:29,-11.420942,0.567099,5.4293146,0.16118668,-1.1331911,0.09768889,12.65847469433539,1.1487586143927904,fall
10/07/2020, 21:01:29,-11.650654,1.012164,5.345566,0.16118668,-1.1331911,0.09768889,12.858354658092434,1.1487586143927904,fall
10/07/2020, 21:01:29,-11.650654,1.012164,5.345566,-0.50798225,-1.4677756,0.019537779,12.858354658092434,1.553316728177031,fall
10/07/2020, 21:01:29,-12.02872,0.83988076,5.4699926,-0.50798225,-1.4677756,0.019537779,13.240706991547807,1.553316728177031,fall
10/07/2020, 21:01:29,-12.02872,0.83988076,5.4699926,-1.0794623,-1.856089,-0.08792,13.240706991547807,2.1489614056124604,fall
10/07/2020, 21:01:29,-12.614961,0.10289137,5.623133,-1.0794623,-1.856089,-0.08792,13.811858895170879,2.1489614056124604,fall
10/07/2020, 21:01:29,-12.614961,0.10289137,5.623133,-1.4140468,-2.1699145,-0.27230778,13.811858895170879,2.604267391934745,fall
10/07/2020, 21:01:29,-13.2514515,-0.8997013,5.4628143,-1.4140468,-2.1699145,-0.27230778,14.361503037389333,2.604267391934745,fall
10/07/2020, 21:01:29,-13.2514515,-0.8997013,5.4628143,-1.4787656,-2.3762822,-0.52996224,14.361503037389333,2.8485654044718856,fall
10/07/2020, 21:01:30,-5.1828537,-1.7108682,0.58624154,1.5788968,4.221381,1.8157923,5.489327986386293,4.8590200522927525,fall
10/07/2020, 21:01:30,-5.1828537,-1.7108682,0.58624154,1.7803801,4.9125304,2.3017945,5.489327986386293,5.7097256159414735,fall
10/07/2020, 21:01:30,-7.243074,-1.3208381,0.57188463,1.7803801,4.9125304,2.3017945,7.384699412074048,5.7097256159414735,fall
10/07/2020, 21:01:30,-7.243074,-1.3208381,0.57188463,2.1186278,5.6537447,2.911129,7.384699412074048,6.7028415500790075,fall
10/07/2020, 21:01:30,-9.509077,-0.6963114,0.2727818,2.1186278,5.6537447,2.911129,9.538438355105352,6.7028415500790075,fall
10/07/2020, 21:01:30,-9.509077,-0.6963114,0.2727818,2.6388211,6.435256,3.5986147,9.538438355105352,7.831087055935945,fall
10/07/2020, 21:01:30,-11.9306135,0.15553348,0.09810573,2.6388211,6.435256,3.5986147,11.932030602829116,7.831087055935945,fall
10/07/2020, 21:01:30,-11.9306135,0.15553348,0.09810573,3.0808635,7.2546215,4.15422,11.932030602829116,8.909477965756864,fall
10/07/2020, 21:01:30,-14.77568,0.7728817,0.85902333,3.0808635,7.2546215,4.15422,14.820795339123817,8.909477965756864,fall
10/07/2020, 21:01:30,-14.77568,0.7728817,0.85902333,3.3470657,7.9128003,4.4521713,14.820795339123817,9.676625806849707,fall
10/07/2020, 21:01:30,-19.156939,0.17706887,3.9984066,3.3470657,7.9128003,4.4521713,19.570562174653993,9.676625806849707,fall
10/07/2020, 21:01:30,-19.156939,0.17706887,3.9984066,4.229929,8.4036875,4.5852723,19.570562174653993,10.466087353149796,fall
10/07/2020, 21:01:30,-28.113274,-4.6372905,13.529019,4.229929,8.4036875,4.5852723,31.541955890067957,10.466087353149796,fall
10/07/2020, 21:01:30,-28.113274,-4.6372905,13.529019,6.8907304,8.423224,4.195738,31.541955890067957,11.663493958337146,fall
10/07/2020, 21:01:30,-45.55934,-15.706488,15.840486,6.8907304,8.423224,4.195738,50.72739229701387,11.663493958337146,fall
10/07/2020, 21:01:30,-45.55934,-15.706488,15.840486,3.6767657,0.03052778,1.67048,50.72739229701387,4.03856921282118,fall
10/07/2020, 21:01:30,-61.847286,-6.0107703,24.3039,3.6767657,0.03052778,1.67048,66.722527807008,4.03856921282118,fall
10/07/2020, 21:01:30,-61.847286,-6.0107703,24.3039,0.67039,-0.8999589,3.535117,66.722527807008,3.7089621697200448,fall
10/07/2020, 21:01:30,-39.40979,-3.1154552,37.050465,0.67039,-0.8999589,3.535117,54.180942600020394,3.7089621697200448,fall
10/07/2020, 21:01:30,-39.40979,-3.1154552,37.050465,-1.7034501,1.0587034,4.5425334,54.180942600020394,4.965602158214937,fall
10/07/2020, 21:01:31,-9.743574,-1.2179468,3.347559,-1.3896245,-0.8621045,-1.2089001,10.37433286969933,2.033646908764261,fall
10/07/2020, 21:01:31,-9.743574,-1.2179468,3.347559,-1.2467545,-0.81448114,-1.1893623,10.37433286969933,1.905874872043625,fall
10/07/2020, 21:01:31,-9.71486,-1.1078769,3.400201,-1.2467545,-0.81448114,-1.1893623,10.352162223828488,1.905874872043625,fall
10/07/2020, 21:01:31,-9.71486,-1.1078769,3.400201,-1.13197,-0.81936556,-1.18692,10.352162223828488,1.833438111727544,fall
10/07/2020, 21:01:31,-9.501899,-1.079163,3.8117664,-1.13197,-0.81936556,-1.18692,10.294670262653769,1.833438111727544,fall
10/07/2020, 21:01:31,-9.501899,-1.079163,3.8117664,-1.0391656,-0.79250115,-1.1673822,10.294670262653769,1.7523425885751251,fall
10/07/2020, 21:01:31,-9.193225,-1.2705889,4.35733,-1.0391656,-0.79250115,-1.1673822,10.252614479239423,1.7523425885751251,fall
10/07/2020, 21:01:31,-9.193225,-1.2705889,4.35733,-0.95613,-0.6887067,-1.1038845,10.252614479239423,1.614640034489729,fall
10/07/2020, 21:01:31,-8.980264,-1.5768701,4.7162533,-0.95613,-0.6887067,-1.1038845,10.265217999141242,1.614640034489729,fall
10/07/2020, 21:01:31,-8.980264,-1.5768701,4.7162533,-0.8877478,-0.5519422,-1.0245123,10.265217999141242,1.463680927704978,fall
10/07/2020, 21:01:31,-8.953942,-2.0745773,4.8239303,-0.8877478,-0.5519422,-1.0245123,10.38013761872576,1.463680927704978,fall
10/07/2020, 21:01:31,-8.953942,-2.0745773,4.8239303,-0.85111445,-0.45303226,-0.9646778,10.38013761872576,1.3639051700289881,fall
10/07/2020, 21:01:31,-8.949157,-2.6608188,4.843073,-0.85111445,-0.45303226,-0.9646778,10.51773352644439,1.3639051700289881,fall
10/07/2020, 21:01:31,-8.949157,-2.6608188,4.843073,-0.85599893,-0.39197668,-0.91217005,10.51773352644439,1.3108905750009598,fall
10/07/2020, 21:01:31,-8.848659,-3.1154552,4.924429,-0.85599893,-0.39197668,-0.91217005,10.595037494998271,1.3108905750009598,fall
10/07/2020, 21:01:31,-8.848659,-3.1154552,4.924429,-0.8633256,-0.3309211,-0.8218078,10.595037494998271,1.2370157358689349,fall
10/07/2020, 21:01:31,-8.609376,-3.3236306,5.072784,-0.8633256,-0.3309211,-0.8218078,10.530954916790272,1.2370157358689349,fall
10/07/2020, 21:01:31,-8.609376,-3.3236306,5.072784,-0.8230289,-0.26864445,-0.6899278,10.530954916790272,1.1070441906506188,fall
10/07/2020, 21:01:31,-8.26481,-3.4097722,5.4053864,-0.8230289,-0.26864445,-0.6899278,10.447575158021616,1.1070441906506188,fall
10/07/2020, 21:01:31,-8.26481,-3.4097722,5.4053864,-0.7998278,-0.17584,-0.56171113,10.447575158021616,0.9930577204130291,fall
10/07/2020, 21:01:32,-17.596817,12.320643,5.0679984,-8.264481,-1.7596211,1.7999178,22.071040559924423,8.639306115221837,fall
10/07/2020, 21:01:32,-10.789237,7.597212,-4.287938,-8.264481,-1.7596211,1.7999178,13.87485771231869,8.639306115221837,fall
10/07/2020, 21:01:32,-10.789237,7.597212,-4.287938,-6.043279,0.085477784,1.2027946,13.87485771231869,6.162405725370954,fall
10/07/2020, 21:01:32,-8.346166,6.309873,-1.6797615,-6.043279,0.085477784,1.2027946,10.596913633638925,6.162405725370954,fall
10/07/2020, 21:01:32,-8.346166,6.309873,-1.6797615,-1.504409,1.7730534,-0.34557447,10.596913633638925,2.350826749305529,fall
10/07/2020, 21:01:32,-10.162318,5.7451673,2.7972097,-1.504409,1.7730534,-0.34557447,12.004334255656104,2.350826749305529,fall
10/07/2020, 21:01:32,-10.162318,5.7451673,2.7972097,0.12699556,1.90127,-1.7889278,12.004334255656104,2.613659935383459,fall
10/07/2020, 21:01:32,-14.42872,3.6514473,6.4055862,0.12699556,1.90127,-1.7889278,16.203474226001905,2.613659935383459,fall
10/07/2020, 21:01:32,-14.42872,3.6514473,6.4055862,-1.05504,0.63986224,-1.8060234,16.203474226001905,2.187293639463293,fall
10/07/2020, 21:01:32,-16.505692,0.23928227,9.29133,-1.05504,0.63986224,-1.8060234,18.9426483964507,2.187293639463293,fall
10/07/2020, 21:01:32,-16.505692,0.23928227,9.29133,-1.6643745,-0.41273558,-0.9549089,18.9426483964507,1.9627389180334884,fall
10/07/2020, 21:01:32,-13.086347,-0.72023964,9.332008,-1.6643745,-0.41273558,-0.9549089,16.089051967912845,1.9627389180334884,fall
10/07/2020, 21:01:32,-13.086347,-0.72023964,9.332008,-1.7962545,-0.71435004,-0.78395337,16.089051967912845,2.0860031533117733,fall
10/07/2020, 21:01:32,-7.60439,-0.5886344,7.271788,-1.7962545,-0.71435004,-0.78395337,10.538128029074716,2.0860031533117733,fall
10/07/2020, 21:01:32,-7.60439,-0.5886344,7.271788,-1.7645056,-0.2185789,-1.0501556,10.538128029074716,2.064965787849103,fall
10/07/2020, 21:01:32,-3.0317063,-0.85184485,6.4343,-1.7645056,-0.2185789,-1.0501556,7.16359537712416,2.064965787849103,fall
10/07/2020, 21:01:32,-3.0317063,-0.85184485,6.4343,-1.5495901,0.7656367,-1.0867889,7.16359537712416,2.041700060837779,fall
10/07/2020, 21:01:32,-1.1246266,-1.4476577,6.7812595,-1.5495901,0.7656367,-1.0867889,7.024669302193557,2.041700060837779,fall
10/07/2020, 21:01:32,-1.1246266,-1.4476577,6.7812595,-1.2382067,1.5618012,-0.97078335,7.024669302193557,2.2169346478182805,fall
10/07/2020, 21:01:32,-2.1391835,-2.4670002,7.2358956,-1.2382067,1.5618012,-0.97078335,7.938537773005794,2.2169346478182805,fall
10/07/2020, 21:01:33,-9.741181,-2.6105695,6.908079,1.4457957,-0.08059334,0.018316668,12.22404372758311,1.448156021814966,fall
10/07/2020, 21:01:33,-9.97807,-2.2827528,6.7669024,1.4457957,-0.08059334,0.018316668,12.270444773819772,1.448156021814966,fall
10/07/2020, 21:01:33,-9.97807,-2.2827528,6.7669024,1.4091623,-0.20148334,0.037854444,12.270444773819772,1.4239967817881,fall
10/07/2020, 21:01:33,-10.133604,-2.0434706,6.6735826,1.4091623,-0.20148334,0.037854444,12.3045685547406,1.4239967817881,fall
10/07/2020, 21:01:33,-10.133604,-2.0434706,6.6735826,1.3615389,-0.3284789,0.06105556,12.3045685547406,1.401932349182168,fall
10/07/2020, 21:01:33,-10.226924,-1.9932213,6.5084777,1.3615389,-0.3284789,0.06105556,12.285079821593499,1.401932349182168,fall
10/07/2020, 21:01:33,-10.226924,-1.9932213,6.5084777,1.3542123,-0.44570556,0.09646778,12.285079821593499,1.4289333054141338,fall
10/07/2020, 21:01:33,-10.2317095,-2.0386848,6.678368,1.3542123,-0.44570556,0.09646778,12.38728037757916,1.4289333054141338,fall
10/07/2020, 21:01:33,-10.2317095,-2.0386848,6.678368,1.4287001,-0.54095227,0.11600556,12.38728037757916,1.532080477446418,fall
10/07/2020, 21:01:33,-10.102497,-2.120041,7.1186476,1.4287001,-0.54095227,0.11600556,12.539145280483249,1.532080477446418,fall
10/07/2020, 21:01:33,-10.102497,-2.120041,7.1186476,1.5410423,-0.6020078,0.11356334,12.539145280483249,1.6583490243460526,fall
10/07/2020, 21:01:33,-9.9015,-2.2205393,7.4823565,1.5410423,-0.6020078,0.11356334,12.607781394943393,1.6583490243460526,fall
10/07/2020, 21:01:33,-9.9015,-2.2205393,7.4823565,1.6057612,-0.6667267,0.10135223,12.607781394943393,1.7416273179132484,fall
10/07/2020, 21:01:33,-9.77468,-2.2875385,8.051848,1.6057612,-0.6667267,0.10135223,12.868934188770748,1.7416273179132484,fall
10/07/2020, 21:01:33,-9.77468,-2.2875385,8.051848,1.6240778,-0.74609894,0.07326667,12.868934188770748,1.788759435239647,fall
10/07/2020, 21:01:33,-9.853643,-2.268396,8.52802,1.6240778,-0.74609894,0.07326667,13.227510425643194,1.788759435239647,fall
10/07/2020, 21:01:33,-9.853643,-2.268396,8.52802,1.5959923,-0.8034911,0.064718895,13.227510425643194,1.7880095120350268,fall
10/07/2020, 21:01:33,-10.023534,-2.0267208,8.573483,1.5959923,-0.8034911,0.064718895,13.344790971449264,1.7880095120350268,fall
10/07/2020, 21:01:33,-10.023534,-2.0267208,8.573483,1.4946401,-0.8437878,0.08059334,13.344790971449264,1.7182613840989103,fall
10/07/2020, 21:01:33,-10.140782,-1.4333007,8.334201,1.4946401,-0.8437878,0.08059334,13.20411760585465,1.7182613840989103,fall
10/07/2020, 21:01:34,-2.2827528,2.091327,-3.4480574,2.43978,4.990681,1.4250367,4.633973292140815,5.7349938531122575,fall
10/07/2020, 21:01:34,-2.2827528,2.091327,-3.4480574,3.2139645,5.965128,2.0905423,4.633973292140815,7.091028567224396,fall
10/07/2020, 21:01:34,-3.3164523,2.9575288,-2.4526432,3.2139645,5.965128,2.0905423,5.07555818145102,7.091028567224396,fall
10/07/2020, 21:01:34,-3.3164523,2.9575288,-2.4526432,3.7512536,7.1471634,2.7645957,5.07555818145102,8.532106292807152,fall
10/07/2020, 21:01:34,-5.2642097,2.8905299,0.24646074,3.7512536,7.1471634,2.7645957,6.010641404465774,8.532106292807152,fall
10/07/2020, 21:01:34,-5.2642097,2.8905299,0.24646074,4.0260034,8.168013,3.1663413,6.010641404465774,9.641102139462728,fall
10/07/2020, 21:01:34,-8.889337,1.4404793,4.0677986,4.0260034,8.168013,3.1663413,9.881410378042684,9.641102139462728,fall
10/07/2020, 21:01:34,-8.889337,1.4404793,4.0677986,4.4216437,8.700417,3.2664723,9.881410378042684,10.291648228505716,fall
10/07/2020, 21:01:34,-14.316257,-1.7898313,7.743174,4.4216437,8.700417,3.2664723,16.3742318576508,10.291648228505716,fall
10/07/2020, 21:01:34,-14.316257,-1.7898313,7.743174,5.492558,8.655236,3.250598,16.3742318576508,10.753961823936594,fall
10/07/2020, 21:01:34,-21.576082,-7.283752,14.005191,5.492558,8.655236,3.250598,26.734355009722496,10.753961823936594,fall
10/07/2020, 21:01:34,-21.576082,-7.283752,14.005191,8.931207,9.655326,3.7927713,26.734355009722496,13.688567698713813,fall
10/07/2020, 21:01:34,-32.992237,-22.604996,23.442484,8.931207,9.655326,3.7927713,46.357562399349085,13.688567698713813,fall
10/07/2020, 21:01:34,-32.992237,-22.604996,23.442484,10.356244,9.450179,2.6705701,46.357562399349085,14.271987299020727,fall
10/07/2020, 21:01:34,-47.461636,-18.42952,7.408179,10.356244,9.450179,2.6705701,51.450317401530704,14.271987299020727,fall
10/07/2020, 21:01:34,-47.461636,-18.42952,7.408179,7.351089,-0.12455334,1.80236,51.450317401530704,7.569843116487615,fall
10/07/2020, 21:01:34,-62.79963,3.2039895,28.883762,7.351089,-0.12455334,1.80236,69.19776517990002,7.569843116487615,fall
10/07/2020, 21:01:34,-62.79963,3.2039895,28.883762,2.735289,-0.52752,2.6229467,69.19776517990002,3.826216589700402,fall
10/07/2020, 21:01:34,-38.73023,14.045869,32.94438,2.735289,-0.52752,2.6229467,52.75082286281476,3.826216589700402,fall
10/07/2020, 21:01:34,-38.73023,14.045869,32.94438,-1.9415667,0.03052778,0.8718734,52.75082286281476,2.1285620513901122,fall
10/07/2020, 21:01:35,-8.410771,-1.7659031,4.536792,0.22102112,-0.37366003,-0.02198,9.718125781217276,0.434689855598452,fall
10/07/2020, 21:01:35,-8.410771,-1.7659031,4.536792,0.22712667,-0.38465002,-0.019537779,9.718125781217276,0.4471284933684284,fall
10/07/2020, 21:01:35,-8.367701,-1.7994026,4.6085763,0.22712667,-0.38465002,-0.019537779,9.720866120479648,0.4471284933684284,fall
10/07/2020, 21:01:35,-8.367701,-1.7994026,4.6085763,0.22590557,-0.3944189,-0.018316668,9.720866120479648,0.4549011877551168,fall
10/07/2020, 21:01:35,-8.403593,-1.8233309,4.6468616,0.22590557,-0.3944189,-0.018316668,9.774366177102273,0.4549011877551168,fall
10/07/2020, 21:01:35,-8.403593,-1.8233309,4.6468616,0.23567446,-0.3944189,-0.018316668,9.774366177102273,0.4598306365760495,fall
10/07/2020, 21:01:35,-8.484949,-1.8161523,4.7018967,0.23567446,-0.3944189,-0.018316668,9.869174383144607,0.4598306365760495,fall
10/07/2020, 21:01:35,-8.484949,-1.8161523,4.7018967,0.2759711,-0.39930335,-0.012211111,9.869174383144607,0.4855433350150937,fall
10/07/2020, 21:01:35,-8.41795,-1.835295,4.790431,0.2759711,-0.39930335,-0.012211111,9.85791122582823,0.4855433350150937,fall
10/07/2020, 21:01:35,-8.41795,-1.835295,4.790431,0.30772,-0.39075556,-0.0048844446,9.85791122582823,0.49739860310304085,fall
10/07/2020, 21:01:35,-8.391629,-1.9238294,4.8622155,0.30772,-0.39075556,-0.0048844446,9.887451663741034,0.49739860310304085,fall
10/07/2020, 21:01:35,-8.391629,-1.9238294,4.8622155,0.3492378,-0.37854445,0.012211111,9.887451663741034,0.5151815722835911,fall
10/07/2020, 21:01:35,-8.362915,-1.9740787,4.991428,0.3492378,-0.37854445,0.012211111,9.937287706042277,0.5151815722835911,fall
10/07/2020, 21:01:35,-8.362915,-1.9740787,4.991428,0.40663,-0.34801668,0.029306669,9.937287706042277,0.5360246770927689,fall
10/07/2020, 21:01:35,-8.405986,-2.0793629,5.2546387,0.40663,-0.34801668,0.029306669,10.128947394740537,0.5360246770927689,fall
10/07/2020, 21:01:35,-8.405986,-2.0793629,5.2546387,0.49455002,-0.30894113,0.035412222,10.128947394740537,0.5841903512735539,fall
10/07/2020, 21:01:35,-8.4682,-2.2301106,5.407779,0.49455002,-0.30894113,0.035412222,10.29212690425804,0.5841903512735539,fall
10/07/2020, 21:01:35,-8.4682,-2.2301106,5.407779,0.54950005,-0.29184556,0.045181114,10.29212690425804,0.6238312808332281,fall
10/07/2020, 21:01:35,-8.628518,-2.2947168,5.343173,0.54950005,-0.29184556,0.045181114,10.405121240543455,0.6238312808332281,fall
10/07/2020, 21:01:35,-8.628518,-2.2947168,5.343173,0.5800278,-0.2869611,0.057392225,10.405121240543455,0.6496713135544727,fall
10/07/2020, 21:01:36,0.4019942,-4.9028935,7.834101,0.12943779,-1.5996556,0.21735778,9.250573281992935,1.619535944842559,fall
10/07/2020, 21:01:36,0.4019942,-4.9028935,7.834101,0.16607112,-1.6607112,0.025643334,9.250573281992935,1.6691910567974135,fall
10/07/2020, 21:01:36,0.6843473,-5.4460645,8.047063,0.16607112,-1.6607112,0.025643334,9.740799264919964,1.6691910567974135,fall
10/07/2020, 21:01:36,0.6843473,-5.4460645,8.047063,0.37732336,-1.6643745,-0.12699556,9.740799264919964,1.7113278965004517,fall
10/07/2020, 21:01:36,0.93559366,-5.666204,8.178668,0.37732336,-1.6643745,-0.12699556,9.99358862551099,1.7113278965004517,fall
10/07/2020, 21:01:36,0.93559366,-5.666204,8.178668,0.6459678,-1.6191934,-0.2503278,9.99358862551099,1.7611717006412486,fall
10/07/2020, 21:01:36,1.2514462,-5.4436717,7.9680996,0.6459678,-1.6191934,-0.2503278,9.730893610808172,1.7611717006412486,fall
10/07/2020, 21:01:36,1.2514462,-5.4436717,7.9680996,0.80227005,-1.5618012,-0.36633334,9.730893610808172,1.793616549547689,fall
10/07/2020, 21:01:36,1.5026926,-4.7784667,7.422536,0.80227005,-1.5618012,-0.36633334,8.954656226788106,1.793616549547689,fall
10/07/2020, 21:01:36,1.5026926,-4.7784667,7.422536,0.7888378,-1.6118667,-0.51164556,8.954656226788106,1.8660548044617398,fall
10/07/2020, 21:01:36,1.6630118,-4.065406,6.7118673,0.7888378,-1.6118667,-0.51164556,8.021364970485262,1.8660548044617398,fall
10/07/2020, 21:01:36,1.6630118,-4.065406,6.7118673,0.58247,-1.7657267,-0.6899278,8.021364970485262,1.9831950031343744,fall
10/07/2020, 21:01:36,1.8065811,-3.6059837,6.070591,0.58247,-1.7657267,-0.6899278,7.2882733802256805,1.9831950031343744,fall
10/07/2020, 21:01:36,1.8065811,-3.6059837,6.070591,0.27841336,-1.9647678,-0.8633256,7.2882733802256805,2.1640604526168103,fall
10/07/2020, 21:01:36,1.9860427,-3.5820556,5.76431,0.27841336,-1.9647678,-0.8633256,7.0712627078078745,2.1640604526168103,fall
10/07/2020, 21:01:36,1.9860427,-3.5820556,5.76431,-0.029306669,-2.141829,-1.01108,7.0712627078078745,2.3686648613805525,fall
10/07/2020, 21:01:36,2.2325034,-3.9457645,5.582455,-0.029306669,-2.141829,-1.01108,7.191448734841385,2.3686648613805525,fall
10/07/2020, 21:01:36,2.2325034,-3.9457645,5.582455,-0.27841336,-2.2456234,-1.1392968,7.191448734841385,2.533443379572102,fall
10/07/2020, 21:01:36,2.5411777,-4.4410787,5.601598,-0.27841336,-2.2456234,-1.1392968,7.586742502590308,2.533443379572102,fall
10/07/2020, 21:01:36,2.5411777,-4.4410787,5.601598,-0.37854445,-2.3030157,-1.2601867,7.586742502590308,2.652404136786893,fall
10/07/2020, 21:01:37,-8.702696,-2.7493532,3.522235,-0.06594,0.15386,0.08059334,9.782739731873727,0.18578554984661735,fall
10/07/2020, 21:01:37,-8.743374,-2.6321049,3.3762727,-0.06594,0.15386,0.08059334,9.735182582269783,0.18578554984661735,fall
10/07/2020, 21:01:37,-8.743374,-2.6321049,3.3762727,-0.048844445,0.12821667,0.06716111,9.735182582269783,0.15276095429970973,fall
10/07/2020, 21:01:37,-8.69791,-2.3569303,3.266203,-0.048844445,0.12821667,0.06716111,9.585241026165255,0.15276095429970973,fall
10/07/2020, 21:01:37,-8.69791,-2.3569303,3.266203,-0.03297,0.10867889,0.048844445,9.585241026165255,0.12362808087759905,fall
10/07/2020, 21:01:37,-8.556734,-2.1080768,3.4097722,-0.03297,0.10867889,0.048844445,9.44924506034341,0.12362808087759905,fall
10/07/2020, 21:01:37,-8.556734,-2.1080768,3.4097722,-0.0048844446,0.12943779,0.008547778,9.44924506034341,0.1298116466909857,fall
10/07/2020, 21:01:37,-8.484949,-2.2325034,3.5724843,-0.0048844446,0.12943779,0.008547778,9.473176694090192,0.1298116466909857,fall
10/07/2020, 21:01:37,-8.484949,-2.2325034,3.5724843,0.0024422223,0.13432223,-0.0061055557,9.473176694090192,0.13448309436682146,fall
10/07/2020, 21:01:37,-8.482556,-2.309074,3.6514473,0.0024422223,0.13432223,-0.0061055557,9.519382955906838,0.13448309436682146,fall
10/07/2020, 21:01:37,-8.482556,-2.309074,3.6514473,0.0,0.15019667,-0.013432222,9.519382955906838,0.15079610314773834,fall
10/07/2020, 21:01:37,-8.525627,-2.3808584,3.6466618,0.0,0.15019667,-0.013432222,9.573554557674512,0.15079610314773834,fall
10/07/2020, 21:01:37,-8.525627,-2.3808584,3.6466618,-0.02075889,0.12577444,-0.013432222,9.573554557674512,0.12818177189738514,fall
10/07/2020, 21:01:37,-8.673982,-2.498107,3.534199,-0.02075889,0.12577444,-0.013432222,9.693763917350308,0.12818177189738514,fall
10/07/2020, 21:01:37,-8.673982,-2.498107,3.534199,-0.02198,0.11356334,-0.0061055557,9.693763917350308,0.11583190243114036,fall
10/07/2020, 21:01:37,-8.829515,-2.5387847,3.4360933,-0.02198,0.11356334,-0.0061055557,9.808797507912493,0.11583190243114036,fall
10/07/2020, 21:01:37,-8.829515,-2.5387847,3.4360933,-0.019537779,0.085477784,-0.017095556,9.808797507912493,0.08933327738131651,fall
10/07/2020, 21:01:37,-8.898908,-2.5268207,3.3212378,-0.019537779,0.085477784,-0.017095556,9.828835167687059,0.08933327738131651,fall
10/07/2020, 21:01:37,-8.898908,-2.5268207,3.3212378,-0.019537779,0.034191113,-0.019537779,9.828835167687059,0.04396000214748912,fall
10/07/2020, 21:01:37,-8.82473,-2.4215364,3.062813,-0.019537779,0.034191113,-0.019537779,9.64989744237797,0.04396000214748912,fall
10/07/2020, 21:01:38,-10.861022,-0.27756742,1.6079768,-1.1124322,-1.4921979,-0.9610145,10.982915452155083,2.09468586320909,fall
10/07/2020, 21:01:38,-10.861022,-0.27756742,1.6079768,-1.32979,-1.5459267,-1.0806834,10.982915452155083,2.3078360576968615,fall
10/07/2020, 21:01:38,-11.07159,-0.3469593,1.7371893,-1.32979,-1.5459267,-1.0806834,11.212418200277385,2.3078360576968615,fall
10/07/2020, 21:01:38,-11.07159,-0.3469593,1.7371893,-1.5532534,-1.6130879,-1.17593,11.212418200277385,2.529320092660875,fall
10/07/2020, 21:01:38,-11.404193,-0.5982057,2.1798615,-1.5532534,-1.6130879,-1.17593,11.626059635978592,2.529320092660875,fall
10/07/2020, 21:01:38,-11.404193,-0.5982057,2.1798615,-1.6973445,-1.7046711,-1.2357645,11.626059635978592,2.7044400735879925,fall
10/07/2020, 21:01:38,-11.700903,-1.0719845,3.0317063,-1.6973445,-1.7046711,-1.2357645,12.134723882570277,2.7044400735879925,fall
10/07/2020, 21:01:38,-11.700903,-1.0719845,3.0317063,-1.7559578,-1.7535156,-1.2467545,12.134723882570277,2.777157135771259,fall
10/07/2020, 21:01:38,-11.822937,-1.7012969,3.7184465,-1.7559578,-1.7535156,-1.2467545,12.510119709033471,2.777157135771259,fall
10/07/2020, 21:01:38,-11.822937,-1.7012969,3.7184465,-1.6985656,-1.7596211,-1.2125634,12.510119709033471,2.7297805152658845,fall
10/07/2020, 21:01:38,-11.822937,-2.2348964,4.3405805,-1.6985656,-1.7596211,-1.2125634,12.791295491737044,2.7297805152658845,fall
10/07/2020, 21:01:38,-11.822937,-2.2348964,4.3405805,-1.5410423,-1.73642,-1.1466234,12.791295491737044,2.5893457001934435,fall
10/07/2020, 21:01:38,-11.660225,-2.5268207,4.773681,-1.5410423,-1.73642,-1.1466234,12.850435773053935,2.5893457001934435,fall
10/07/2020, 21:01:38,-11.660225,-2.5268207,4.773681,-1.3358957,-1.6900178,-1.0867889,12.850435773053935,2.4128587888920565,fall
10/07/2020, 21:01:38,-11.399407,-2.617748,5.209175,-1.3358957,-1.6900178,-1.0867889,12.803694732462565,2.4128587888920565,fall
10/07/2020, 21:01:38,-11.399407,-2.617748,5.209175,-1.1600556,-1.6375101,-1.0318389,12.803694732462565,2.256514964598221,fall
10/07/2020, 21:01:38,-11.035698,-2.6679974,5.5633125,-1.1600556,-1.6375101,-1.0318389,12.643388991222652,2.256514964598221,fall
10/07/2020, 21:01:38,-11.035698,-2.6679974,5.5633125,-1.02207,-1.5642434,-0.96712005,12.643388991222652,2.1039976017133997,fall
10/07/2020, 21:01:38,-10.727024,-2.8498518,5.8839507,-1.02207,-1.5642434,-0.96712005,12.562307793045916,2.1039976017133997,fall
10/07/2020, 21:01:38,-10.727024,-2.8498518,5.8839507,-0.9182756,-1.4421322,-0.86088336,12.562307793045916,1.9141827501563815,fall
10/07/2020, 21:01:39,-8.829515,0.55752766,6.13759,-0.32359445,0.7265611,-1.1527289,10.767599104180729,1.4004957675647807,fall
10/07/2020, 21:01:39,-9.186047,-0.9834501,6.1471615,-0.32359445,0.7265611,-1.1527289,11.096766221710146,1.4004957675647807,fall
10/07/2020, 21:01:39,-9.186047,-0.9834501,6.1471615,-0.19537778,0.74609894,-1.1051056,11.096766221710146,1.3476255309458909,fall
10/07/2020, 21:01:39,-9.789038,-1.5050855,5.7810597,-0.19537778,0.74609894,-1.1051056,11.467832976924072,1.3476255309458909,fall
10/07/2020, 21:01:39,-9.789038,-1.5050855,5.7810597,-0.06594,0.68260115,-1.0880101,11.467832976924072,1.2861019932990798,fall
10/07/2020, 21:01:39,-9.640682,-1.68694,5.5369916,-0.06594,0.68260115,-1.0880101,11.244856425204551,1.2861019932990798,fall
10/07/2020, 21:01:39,-9.640682,-1.68694,5.5369916,0.037854444,0.6752745,-1.0013112,11.244856425204551,1.2083263974253224,fall
10/07/2020, 21:01:39,-8.963513,-1.5290136,5.493921,0.037854444,0.6752745,-1.0013112,10.623823252214816,1.2083263974253224,fall
10/07/2020, 21:01:39,-8.963513,-1.5290136,5.493921,0.014653334,0.71435004,-0.8303556,10.623823252214816,1.095445618697155,fall
10/07/2020, 21:01:39,-8.281559,-1.2418749,5.3886366,0.014653334,0.71435004,-0.8303556,9.958106092598326,1.095445618697155,fall
10/07/2020, 21:01:39,-8.281559,-1.2418749,5.3886366,-0.12821667,0.7570889,-0.65085226,9.958106092598326,1.0065941507551746,fall
10/07/2020, 21:01:39,-7.745567,-1.1700903,5.312066,-0.12821667,0.7570889,-0.65085226,9.46472203078822,1.0065941507551746,fall
10/07/2020, 21:01:39,-7.745567,-1.1700903,5.312066,-0.25887558,0.79128003,-0.45425335,9.46472203078822,0.9484127556632402,fall
10/07/2020, 21:01:39,-7.245467,-1.6103697,5.4173503,-0.25887558,0.79128003,-0.45425335,9.189002636042707,0.9484127556632402,fall
10/07/2020, 21:01:39,-7.245467,-1.6103697,5.4173503,-0.31016225,0.85599893,-0.25277,9.189002636042707,0.9448954805092654,fall
10/07/2020, 21:01:39,-6.8889365,-2.28036,5.5800624,-0.31016225,0.85599893,-0.25277,9.153938184999408,0.9448954805092654,fall
10/07/2020, 21:01:39,-6.8889365,-2.28036,5.5800624,-0.28818223,0.91583335,-0.08303556,9.153938184999408,0.9636880373126047,fall
10/07/2020, 21:01:39,-6.8099732,-2.7876384,5.4628143,-0.28818223,0.91583335,-0.08303556,9.164551485853522,0.9636880373126047,fall
10/07/2020, 21:01:39,-6.8099732,-2.7876384,5.4628143,-0.23323223,0.9426978,0.08303556,9.164551485853522,0.9746647437116072,fall
10/07/2020, 21:01:39,-7.018149,-2.8809586,5.032106,-0.23323223,0.9426978,0.08303556,9.103649059294371,0.9746647437116072,fall
10/07/2020, 21:01:40,-8.602198,-0.5814559,4.5008993,0.29673,-0.57270116,0.089141116,9.725944167542808,0.6511385816925789,fall
10/07/2020, 21:01:40,-8.640483,-0.5407779,4.496114,0.29673,-0.57270116,0.089141116,9.75527675909841,0.6511385816925789,fall
10/07/2020, 21:01:40,-8.640483,-0.5407779,4.496114,0.31382558,-0.5470578,0.10501556,9.75527675909841,0.6393645328196171,fall
10/07/2020, 21:01:40,-8.73141,-0.5982057,4.706682,0.31382558,-0.5470578,0.10501556,9.937214321669526,0.6393645328196171,fall
10/07/2020, 21:01:40,-8.73141,-0.5982057,4.706682,0.35534334,-0.5262989,0.11356334,9.937214321669526,0.6451015684830704,fall
10/07/2020, 21:01:40,-8.736196,-0.6867401,4.881358,0.35534334,-0.5262989,0.11356334,10.03097115232036,0.6451015684830704,fall
10/07/2020, 21:01:40,-8.736196,-0.6867401,4.881358,0.42983112,-0.5092034,0.10745778,10.03097115232036,0.6749741034339024,fall
10/07/2020, 21:01:40,-8.817552,-0.7609176,4.8382874,0.42983112,-0.5092034,0.10745778,10.08648782087027,0.6749741034339024,fall
10/07/2020, 21:01:40,-8.817552,-0.7609176,4.8382874,0.4689067,-0.5006556,0.109900005,10.08648782087027,0.6946995942856453,fall
10/07/2020, 21:01:40,-8.920443,-0.7178468,4.847859,0.4689067,-0.5006556,0.109900005,10.177982897329986,0.6946995942856453,fall
10/07/2020, 21:01:40,-8.920443,-0.7178468,4.847859,0.4823389,-0.4921078,0.10867889,10.177982897329986,0.6975901493686552,fall
10/07/2020, 21:01:40,-8.963513,-0.6580262,5.096712,0.4823389,-0.4921078,0.10867889,10.332184903148326,0.6975901493686552,fall
10/07/2020, 21:01:40,-8.963513,-0.6580262,5.096712,0.52141446,-0.45547447,0.106236674,10.332184903148326,0.7004400459216016,fall
10/07/2020, 21:01:40,-8.9108715,-0.78723866,5.465207,0.52141446,-0.45547447,0.106236674,10.482932048837277,0.7004400459216016,fall
10/07/2020, 21:01:40,-8.9108715,-0.78723866,5.465207,0.65451556,-0.37366003,0.10867889,10.482932048837277,0.7614614515710986,fall
10/07/2020, 21:01:40,-8.882157,-1.052842,5.845666,0.65451556,-0.37366003,0.10867889,10.685176894440986,0.7614614515710986,fall
10/07/2020, 21:01:40,-8.882157,-1.052842,5.845666,0.8498934,-0.28574002,0.091583334,10.685176894440986,0.901306629934976,fall
10/07/2020, 21:01:40,-8.9826565,-1.1653047,6.0083776,0.8498934,-0.28574002,0.091583334,10.869528654814845,0.901306629934976,fall
10/07/2020, 21:01:40,-8.9826565,-1.1653047,6.0083776,1.0599245,-0.23445335,0.045181114,10.869528654814845,1.0864849823395855,fall
10/07/2020, 21:01:40,-9.267402,-1.0504491,5.936593,1.0599245,-0.23445335,0.045181114,11.055827181684965,1.0864849823395855,fall
10/07/2020, 21:01:41,2.036292,-5.898308,4.8263235,-0.5641534,-2.2663822,-2.865948,7.888594231030184,3.6970819714616163,fall
10/07/2020, 21:01:41,2.0315065,-7.0301127,5.204389,-0.5641534,-2.2663822,-2.865948,8.979708784558177,3.6970819714616163,fall
10/07/2020, 21:01:41,2.0315065,-7.0301127,5.204389,-0.57270116,-2.21998,-2.9905012,8.979708784558177,3.768208465740518,fall
10/07/2020, 21:01:41,1.8687944,-8.793623,5.54417,-0.57270116,-2.21998,-2.9905012,10.562102893051527,3.768208465740518,fall
10/07/2020, 21:01:41,1.8687944,-8.793623,5.54417,-0.4713489,-2.0710046,-3.1052856,10.562102893051527,3.762184060413006,fall
10/07/2020, 21:01:41,1.6654046,-10.394422,5.8624153,-0.4713489,-2.0710046,-3.1052856,12.049293986902008,3.762184060413006,fall
10/07/2020, 21:01:41,1.6654046,-10.394422,5.8624153,-0.24910668,-1.8292245,-3.1480246,12.049293986902008,3.6494074740439943,fall
10/07/2020, 21:01:41,1.3782659,-11.145768,6.013163,-0.24910668,-1.8292245,-3.1480246,12.739148131625344,3.6494074740439943,fall
10/07/2020, 21:01:41,1.3782659,-11.145768,6.013163,-0.058613338,-1.56058,-3.108949,12.739148131625344,3.4791391256973383,fall
10/07/2020, 21:01:41,1.1365907,-11.016556,5.881558,-0.058613338,-1.56058,-3.108949,12.539898870025953,3.4791391256973383,fall
10/07/2020, 21:01:41,1.1365907,-11.016556,5.881558,-0.089141116,-1.3322322,-3.0417879,12.539898870025953,3.3219365246129295,fall
10/07/2020, 21:01:41,0.8566305,-10.193424,5.4412785,-0.089141116,-1.3322322,-3.0417879,11.58651045405964,3.3219365246129295,fall
10/07/2020, 21:01:41,0.8566305,-10.193424,5.4412785,-0.3712178,-1.1905833,-2.9929435,11.58651045405964,3.2423760270041715,fall
10/07/2020, 21:01:41,0.58624154,-9.080762,4.900501,-0.3712178,-1.1905833,-2.9929435,10.33531924246017,3.2423760270041715,fall
10/07/2020, 21:01:41,0.58624154,-9.080762,4.900501,-0.78273225,-1.1295278,-2.9953856,10.33531924246017,3.29557855513004,fall
10/07/2020, 21:01:41,0.39481574,-8.092526,4.278367,-0.78273225,-1.1295278,-2.9953856,9.162384413271809,3.29557855513004,fall
10/07/2020, 21:01:41,0.39481574,-8.092526,4.278367,-1.2040156,-1.0489345,-2.9917223,9.162384413271809,3.3912121266277024,fall
10/07/2020, 21:01:41,0.31106696,-7.389036,3.8476589,-1.2040156,-1.0489345,-2.9917223,8.336611847694682,3.3912121266277024,fall
10/07/2020, 21:01:41,0.31106696,-7.389036,3.8476589,-1.526389,-0.8987378,-2.9196768,8.336611847694682,3.414982504138309,fall
10/07/2020, 21:01:41,0.41874397,-6.9678993,3.5198421,-1.526389,-0.8987378,-2.9196768,7.817688675369287,3.414982504138309,fall
10/07/2020, 21:01:42,-9.104691,-0.6412765,2.8546374,-0.0048844446,0.035412222,0.02075889,9.563241090863816,0.04133781289480993,fall
10/07/2020, 21:01:42,-9.104691,-0.6412765,2.8546374,0.007326667,0.035412222,0.014653334,9.563241090863816,0.03901827441685711,fall
10/07/2020, 21:01:42,-9.116654,-0.6628119,2.9982069,0.007326667,0.035412222,0.014653334,9.619872727734833,0.03901827441685711,fall
10/07/2020, 21:01:42,-9.116654,-0.6628119,2.9982069,0.013432222,0.03297,0.019537779,9.619872727734833,0.040609977769638705,fall
10/07/2020, 21:01:42,-9.12144,-0.6867401,3.010171,0.013432222,0.03297,0.019537779,9.629818663839526,0.040609977769638705,fall
10/07/2020, 21:01:42,-9.12144,-0.6867401,3.010171,0.014653334,0.013432222,0.02198,9.629818663839526,0.02963554009919138,fall
10/07/2020, 21:01:42,-9.12144,-0.69152576,3.0197423,0.014653334,0.013432222,0.02198,9.633157197805593,0.02963554009919138,fall
10/07/2020, 21:01:42,-9.12144,-0.69152576,3.0197423,0.007326667,0.0,0.019537779,9.633157197805593,0.020866356742743297,fall
10/07/2020, 21:01:42,-9.109476,-0.67477596,2.9431717,0.007326667,0.0,0.019537779,9.59688163452027,0.020866356742743297,fall
10/07/2020, 21:01:42,-9.109476,-0.67477596,2.9431717,0.0061055557,-0.026864445,0.02075889,9.59688163452027,0.03449503884208713,fall
10/07/2020, 21:01:42,-9.135797,-0.6771688,2.8833513,0.0061055557,-0.026864445,0.02075889,9.603908109802711,0.03449503884208713,fall
10/07/2020, 21:01:42,-9.135797,-0.6771688,2.8833513,0.014653334,-0.051286668,0.036633335,9.603908109802711,0.06470736988976292,fall
10/07/2020, 21:01:42,-9.145369,-0.6987042,2.8713872,0.014653334,-0.051286668,0.036633335,9.610973864708075,0.06470736988976292,fall
10/07/2020, 21:01:42,-9.145369,-0.6987042,2.8713872,0.014653334,-0.06105556,0.02075889,9.610973864708075,0.06613193686062199,fall
10/07/2020, 21:01:42,-9.128618,-0.6412765,2.952743,0.014653334,-0.06105556,0.02075889,9.615695400750012,0.06613193686062199,fall
10/07/2020, 21:01:42,-9.128618,-0.6412765,2.952743,0.034191113,-0.07570889,0.015874445,9.615695400750012,0.0845746180441789,fall
10/07/2020, 21:01:42,-9.164511,-0.634098,2.9766715,0.034191113,-0.07570889,0.015874445,9.65665108067186,0.0845746180441789,fall
10/07/2020, 21:01:42,-9.164511,-0.634098,2.9766715,0.039075557,-0.10501556,0.017095556,9.65665108067186,0.1133464832553767,fall
10/07/2020, 21:01:42,-9.171689,-0.69152576,2.9096723,0.039075557,-0.10501556,0.017095556,9.646982961665897,0.1133464832553767,fall
10/07/2020, 21:01:42,-9.171689,-0.69152576,2.9096723,0.059834447,-0.11844778,0.01099,9.646982961665897,0.13315711718612716,fall
10/07/2020, 21:01:43,-9.3511505,-0.4331009,2.7206392,-1.0562612,1.3493278,0.31382558,9.74851117462828,1.7420848705965777,fall
10/07/2020, 21:01:43,-9.3511505,-0.4331009,2.7206392,-1.1234223,1.4250367,0.40663,9.74851117462828,1.8596115340392347,fall
10/07/2020, 21:01:43,-9.238688,-0.4426722,2.6512475,-1.1234223,1.4250367,0.40663,9.621768891946827,1.8596115340392347,fall
10/07/2020, 21:01:43,-9.238688,-0.4426722,2.6512475,-1.174709,1.5007457,0.5104245,9.621768891946827,1.9729956486496574,fall
10/07/2020, 21:01:43,-9.260223,-0.6723832,2.737389,-1.174709,1.5007457,0.5104245,9.679728063254636,1.9729956486496574,fall
10/07/2020, 21:01:43,-9.260223,-0.6723832,2.737389,-1.1881411,1.5788968,0.6239878,9.679728063254636,2.072186053457737,fall
10/07/2020, 21:01:43,-9.360723,-1.0432707,2.952743,-1.1881411,1.5788968,0.6239878,9.870675347346063,2.072186053457737,fall
10/07/2020, 21:01:43,-9.360723,-1.0432707,2.952743,-1.13197,1.6411734,0.73999333,9.870675347346063,2.1265926573021345,fall
10/07/2020, 21:01:43,-9.5760765,-1.4979069,3.2207394,-1.13197,1.6411734,0.73999333,10.213624649677199,2.1265926573021345,fall
10/07/2020, 21:01:43,-9.5760765,-1.4979069,3.2207394,-1.0355023,1.68147,0.8621045,10.213624649677199,2.154722871698005,fall
10/07/2020, 21:01:43,-9.779466,-1.98365,3.4121652,-1.0355023,1.68147,0.8621045,10.545884847096644,2.154722871698005,fall
10/07/2020, 21:01:43,-9.779466,-1.98365,3.4121652,-0.9683412,1.7071134,0.98055226,10.545884847096644,2.19394700523453,fall
10/07/2020, 21:01:43,-9.820144,-2.239682,3.4408789,-0.9683412,1.7071134,0.98055226,10.643826611928947,2.19394700523453,fall
10/07/2020, 21:01:43,-9.820144,-2.239682,3.4408789,-0.9720045,1.7022289,1.0867889,10.643826611928947,2.241313461826926,fall
10/07/2020, 21:01:43,-9.71486,-2.239682,3.4576287,-0.9720045,1.7022289,1.0867889,10.552245058845042,2.241313461826926,fall
10/07/2020, 21:01:43,-9.71486,-2.239682,3.4576287,-1.02207,1.6790278,1.185699,10.552245058845042,2.2955704328479682,fall
10/07/2020, 21:01:43,-9.456435,-2.1870399,3.505485,-1.02207,1.6790278,1.185699,10.319677105632524,2.2955704328479682,fall
10/07/2020, 21:01:43,-9.456435,-2.1870399,3.505485,-1.1185378,1.6594901,1.2907145,10.319677105632524,2.381381557017824,fall
10/07/2020, 21:01:43,-9.193225,-2.2707887,3.615555,-1.1185378,1.6594901,1.2907145,10.136276617979536,2.381381557017824,fall
10/07/2020, 21:01:43,-9.193225,-2.2707887,3.615555,-1.2174479,1.6680379,1.3969512,10.136276617979536,2.4931912063369794,fall
10/07/2020, 21:01:44,-3.8763726,-5.221139,6.690332,-0.30894113,-1.80236,-1.5959923,9.329903415205735,2.4271666412340087,fall
10/07/2020, 21:01:44,-3.0675986,-5.2833524,6.463014,-0.30894113,-1.80236,-1.5959923,8.893510272407687,2.4271666412340087,fall
10/07/2020, 21:01:44,-3.0675986,-5.2833524,6.463014,-0.25765446,-1.8145711,-1.6472789,8.893510272407687,2.4642609522013244,fall
10/07/2020, 21:01:44,-2.2372892,-5.221139,6.259624,-0.25765446,-1.8145711,-1.6472789,8.452730184720396,2.4642609522013244,fall
10/07/2020, 21:01:44,-2.2372892,-5.221139,6.259624,-0.1526389,-1.812129,-1.7071134,8.452730184720396,2.494262682744106,fall
10/07/2020, 21:01:44,-1.4715859,-5.2259245,6.0825553,-0.1526389,-1.812129,-1.7071134,8.153117849757505,2.494262682744106,fall
10/07/2020, 21:01:44,-1.4715859,-5.2259245,6.0825553,-0.014653334,-1.7730534,-1.779159,8.153117849757505,2.511839898459731,fall
10/07/2020, 21:01:44,-0.8327023,-5.4341,5.938986,-0.014653334,-1.7730534,-1.779159,8.092860443748949,2.511839898459731,fall
10/07/2020, 21:01:44,-0.8327023,-5.4341,5.938986,0.10379445,-1.6765857,-1.8255612,8.092860443748949,2.4808035756150946,fall
10/07/2020, 21:01:44,-0.3493521,-5.759524,5.517849,0.10379445,-1.6765857,-1.8255612,7.983784773879715,2.4808035756150946,fall
10/07/2020, 21:01:44,-0.3493521,-5.759524,5.517849,0.2185789,-1.5569167,-1.845099,7.983784773879715,2.424078507135273,fall
10/07/2020, 21:01:44,-0.05503492,-6.0634127,4.914858,0.2185789,-1.5569167,-1.845099,7.805371857358162,2.424078507135273,fall
10/07/2020, 21:01:44,-0.05503492,-6.0634127,4.914858,0.3492378,-1.4677756,-1.8487623,7.805371857358162,2.3862636376811683,fall
10/07/2020, 21:01:44,0.17228323,-6.1974106,4.2448673,0.3492378,-1.4677756,-1.8487623,7.513752594937672,2.3862636376811683,fall
10/07/2020, 21:01:44,0.17228323,-6.1974106,4.2448673,0.4798967,-1.4140468,-1.8316667,7.513752594937672,2.363224919113958,fall
10/07/2020, 21:01:44,0.35413775,-6.2117677,3.8093736,0.4798967,-1.4140468,-1.8316667,7.295395707537177,2.363224919113958,fall
10/07/2020, 21:01:44,0.35413775,-6.2117677,3.8093736,0.5421733,-1.3481067,-1.7974756,7.295395707537177,2.3113334140210493,fall
10/07/2020, 21:01:44,0.60777694,-6.1160545,3.4791641,0.5421733,-1.3481067,-1.7974756,7.0625844335589765,2.3113334140210493,fall
10/07/2020, 21:01:44,0.60777694,-6.1160545,3.4791641,0.52752,-1.27484,-1.7608423,7.0625844335589765,2.2369756497593554,fall
10/07/2020, 21:01:44,0.7968099,-6.0921264,3.225525,0.52752,-1.27484,-1.7608423,6.93923055048153,2.2369756497593554,fall
10/07/2020, 21:01:45,-8.989835,-1.3016955,2.9910283,0.09280445,-0.27963445,0.025643334,9.563356675386402,0.29574595390958286,fall
10/07/2020, 21:01:45,-8.930014,-1.268196,3.0388846,0.09280445,-0.27963445,0.025643334,9.517787811345805,0.29574595390958286,fall
10/07/2020, 21:01:45,-8.930014,-1.268196,3.0388846,0.091583334,-0.30161446,0.03174889,9.517787811345805,0.316807171022559,fall
10/07/2020, 21:01:45,-8.9826565,-1.2442678,3.0077782,0.091583334,-0.30161446,0.03174889,9.554216311921717,0.316807171022559,fall
10/07/2020, 21:01:45,-8.9826565,-1.2442678,3.0077782,0.09524667,-0.32115224,0.03174889,9.554216311921717,0.3364798389211797,fall
10/07/2020, 21:01:45,-9.0233345,-1.2346965,3.0939198,0.09524667,-0.32115224,0.03174889,9.618595555799862,0.3364798389211797,fall
10/07/2020, 21:01:45,-9.0233345,-1.2346965,3.0939198,0.10013112,-0.34435335,0.03297,9.618595555799862,0.36012843507184816,fall
10/07/2020, 21:01:45,-9.090333,-1.2753744,3.1202407,0.10013112,-0.34435335,0.03297,9.695186208734139,0.36012843507184816,fall
10/07/2020, 21:01:45,-9.090333,-1.2753744,3.1202407,0.10013112,-0.3712178,0.034191113,9.695186208734139,0.38600248489021216,fall
10/07/2020, 21:01:45,-9.114262,-1.2610176,3.0388846,0.10013112,-0.3712178,0.034191113,9.689930348134338,0.38600248489021216,fall
10/07/2020, 21:01:45,-9.114262,-1.2610176,3.0388846,0.09646778,-0.39808223,0.029306669,9.689930348134338,0.4106511562280471,fall
10/07/2020, 21:01:45,-9.0951185,-1.174876,3.0939198,0.09646778,-0.39808223,0.029306669,9.678525401171983,0.4106511562280471,fall
10/07/2020, 21:01:45,-9.0951185,-1.174876,3.0939198,0.09646778,-0.43471557,0.015874445,9.678525401171983,0.44557340155662667,fall
10/07/2020, 21:01:45,-9.080762,-1.1533405,3.0436704,0.09646778,-0.43471557,0.015874445,9.646468818760068,0.44557340155662667,fall
10/07/2020, 21:01:45,-9.080762,-1.1533405,3.0436704,0.098910004,-0.4591378,0.008547778,9.646468818760068,0.4697486246335003,fall
10/07/2020, 21:01:45,-8.980264,-1.079163,3.101098,0.098910004,-0.4591378,0.008547778,9.561722552296803,0.4697486246335003,fall
10/07/2020, 21:01:45,-8.980264,-1.079163,3.101098,0.11234222,-0.47745445,-0.008547778,9.561722552296803,0.490567625372708,fall
10/07/2020, 21:01:45,-8.958728,-1.105484,3.2973096,0.11234222,-0.47745445,-0.008547778,9.610054640158506,0.490567625372708,fall
10/07/2020, 21:01:45,-8.958728,-1.105484,3.2973096,0.1306589,-0.49455002,-0.019537779,9.610054640158506,0.5118917789591717,fall
10/07/2020, 21:01:45,-9.040084,-1.18684,3.330809,0.1306589,-0.49455002,-0.019537779,9.707007537998487,0.5118917789591717,fall
10/07/2020, 21:01:46,-10.755738,0.91405827,1.052842,-3.3140957,-1.84632,-1.4519012,10.845731156587586,4.062037086983231,fall
10/07/2020, 21:01:46,-10.593026,0.567099,1.3543376,-3.3140957,-1.84632,-1.4519012,10.694299171108323,4.062037086983231,fall
10/07/2020, 21:01:46,-10.593026,0.567099,1.3543376,-3.0784214,-1.8585312,-1.6179723,10.694299171108323,3.94317772986731,fall
10/07/2020, 21:01:46,-10.447063,0.15553348,2.050649,-3.0784214,-1.8585312,-1.6179723,10.647557763778163,3.94317772986731,fall
10/07/2020, 21:01:46,-10.447063,0.15553348,2.050649,-2.6986556,-1.7962545,-1.7303145,10.647557763778163,3.674678299714981,fall
10/07/2020, 21:01:46,-10.451849,-0.33738798,2.928815,-2.6986556,-1.7962545,-1.7303145,10.859693111501345,3.674678299714981,fall
10/07/2020, 21:01:46,-10.451849,-0.33738798,2.928815,-2.2370756,-1.7083346,-1.7522945,10.859693111501345,3.315637229316609,fall
10/07/2020, 21:01:46,-10.600204,-0.8662018,3.842873,-2.2370756,-1.7083346,-1.7522945,11.30850626668415,3.315637229316609,fall
10/07/2020, 21:01:46,-10.600204,-0.8662018,3.842873,-1.8048023,-1.6301835,-1.6973445,11.30850626668415,2.965769366854389,fall
10/07/2020, 21:01:46,-10.805987,-1.2777673,4.5726843,-1.8048023,-1.6301835,-1.6973445,11.803029003426134,2.965769366854389,fall
10/07/2020, 21:01:46,-10.805987,-1.2777673,4.5726843,-1.504409,-1.5532534,-1.62652,11.803029003426134,2.7058103963780984,fall
10/07/2020, 21:01:46,-10.949556,-1.5002998,5.2546387,-1.504409,-1.5532534,-1.62652,12.237438922146694,2.7058103963780984,fall
10/07/2020, 21:01:46,-10.949556,-1.5002998,5.2546387,-1.3749712,-1.4812078,-1.5776756,12.237438922146694,2.5638998798009274,fall
10/07/2020, 21:01:46,-11.066805,-1.4859428,5.7547383,-1.3749712,-1.4812078,-1.5776756,12.561815544088361,2.5638998798009274,fall
10/07/2020, 21:01:46,-11.066805,-1.4859428,5.7547383,-1.3481067,-1.4519012,-1.5447056,12.561815544088361,2.51227473736866,fall
10/07/2020, 21:01:46,-11.160125,-1.3591232,6.128019,-1.3481067,-1.4519012,-1.5447056,12.804226494856094,2.51227473736866,fall
10/07/2020, 21:01:46,-11.160125,-1.3591232,6.128019,-1.3481067,-1.4592278,-1.4885345,12.804226494856094,2.482432752635698,fall
10/07/2020, 21:01:46,-11.117054,-1.39023,6.3361945,-1.3481067,-1.4592278,-1.4885345,12.871246619526907,2.482432752635698,fall
10/07/2020, 21:01:46,-11.117054,-1.39023,6.3361945,-1.350549,-1.5105145,-1.3676445,12.871246619526907,2.4446038969949506,fall
10/07/2020, 21:01:46,-10.877771,-1.7611175,6.4055862,-1.350549,-1.5105145,-1.3676445,12.745939743972539,2.4446038969949506,fall
10/07/2020, 21:01:47,5.8839507,27.07479,-12.997812,-3.0124812,-5.87965,-1.5349368,30.60405531541601,6.782430204479899,fall
10/07/2020, 21:01:47,5.8839507,27.07479,-12.997812,-4.559629,-3.3226435,1.2040156,30.60405531541601,5.7688672918166795,fall
10/07/2020, 21:01:47,11.322837,16.309479,-14.81875,-4.559629,-3.3226435,1.2040156,24.77500948944617,5.7688672918166795,fall
10/07/2020, 21:01:47,11.322837,16.309479,-14.81875,-3.3849201,0.67161113,2.3335435,24.77500948944617,4.16583379160627,fall
10/07/2020, 21:01:47,11.389835,2.9455647,-5.4819565,-3.3849201,0.67161113,2.3335435,12.979081170193735,4.16583379160627,fall
10/07/2020, 21:01:47,11.389835,2.9455647,-5.4819565,-1.5361578,3.2139645,0.8950745,12.979081170193735,3.6729425302898933,fall
10/07/2020, 21:01:47,3.9816568,-14.787644,9.899107,-1.5361578,3.2139645,0.8950745,18.23514014961309,3.6729425302898933,fall
10/07/2020, 21:01:47,3.9816568,-14.787644,9.899107,0.29795113,2.647369,0.42006224,18.23514014961309,2.696996347892274,fall
10/07/2020, 21:01:47,-6.1639113,-19.475183,18.920048,0.29795113,2.647369,0.42006224,27.84321788390598,2.696996347892274,fall
10/07/2020, 21:01:47,-6.1639113,-19.475183,18.920048,0.91583335,0.15141778,-0.35534334,27.84321788390598,0.9939552133005103,fall
10/07/2020, 21:01:47,-11.303694,-13.651053,20.348564,0.91583335,0.15141778,-0.35534334,26.984973883103788,0.9939552133005103,fall
10/07/2020, 21:01:47,-11.303694,-13.651053,20.348564,0.3712178,-2.0514667,-1.0611455,26.984973883103788,2.3393050563071602,fall
10/07/2020, 21:01:47,-8.60459,-5.994021,20.511276,0.3712178,-2.0514667,-1.0611455,23.036486634152737,2.3393050563071602,fall
10/07/2020, 21:01:47,-8.60459,-5.994021,20.511276,-0.92560226,-2.40681,-1.2821667,23.036486634152737,2.879830833389304,fall
10/07/2020, 21:01:47,-3.4887354,-0.2943172,17.812172,-0.92560226,-2.40681,-1.2821667,18.15299883316542,2.879830833389304,fall
10/07/2020, 21:01:47,-3.4887354,-0.2943172,17.812172,-2.1479344,-1.8475412,-0.89019006,18.15299883316542,2.9697591199131637,fall
10/07/2020, 21:01:47,-1.1844472,1.820938,13.110275,-2.1479344,-1.8475412,-0.89019006,13.289019823964969,2.9697591199131637,fall
10/07/2020, 21:01:47,-1.1844472,1.820938,13.110275,-2.7670379,-1.4763234,-0.6667267,13.289019823964969,3.206330262294736,fall
10/07/2020, 21:01:47,-0.6628119,0.23449662,8.080562,-2.7670379,-1.4763234,-0.6667267,8.111090224623142,3.206330262294736,fall
10/07/2020, 21:01:47,-0.6628119,0.23449662,8.080562,-2.536248,-1.3822979,-0.6459678,8.111090224623142,2.959826945020331,fall
10/07/2020, 21:01:48,6.2548385,-1.3639089,2.1391835,-0.39930335,-2.603409,-2.9905012,6.749767242896607,3.985006784751067,fall
10/07/2020, 21:01:48,5.8600225,-1.268196,2.2971098,-0.39930335,-2.603409,-2.9905012,6.420661875124233,3.985006784751067,fall
10/07/2020, 21:01:48,5.8600225,-1.268196,2.2971098,-0.33336335,-2.4800768,-2.997828,6.420661875124233,3.9049820444568977,fall
10/07/2020, 21:01:48,5.3742795,-1.4404793,1.9716859,-0.33336335,-2.4800768,-2.997828,5.902999739156977,3.9049820444568977,fall
10/07/2020, 21:01:48,5.3742795,-1.4404793,1.9716859,-0.32481557,-2.4446645,-2.9465413,5.902999739156977,3.842394468893227,fall
10/07/2020, 21:01:48,5.089534,-1.5984055,1.4045869,-0.32481557,-2.4446645,-2.9465413,5.516440775690782,3.842394468893227,fall
10/07/2020, 21:01:48,5.089534,-1.5984055,1.4045869,-0.24910668,-2.4629812,-2.8195457,5.516440775690782,3.7520885995313455,fall
10/07/2020, 21:01:48,5.2283173,-1.4452649,0.8111669,-0.24910668,-2.4629812,-2.8195457,5.4847136501398746,3.7520885995313455,fall
10/07/2020, 21:01:48,5.2283173,-1.4452649,0.8111669,-0.09524667,-2.4434435,-2.6742334,5.4847136501398746,3.6236739256340456,fall
10/07/2020, 21:01:48,5.706882,-0.8350951,0.23449662,-0.09524667,-2.4434435,-2.6742334,5.772423638868448,3.6236739256340456,fall
10/07/2020, 21:01:48,5.706882,-0.8350951,0.23449662,0.106236674,-2.3567445,-2.5838711,5.772423638868448,3.4988456663525933,fall
10/07/2020, 21:01:48,6.367301,-0.038285162,-0.09332009,0.106236674,-2.3567445,-2.5838711,6.368099893560798,3.4988456663525933,fall
10/07/2020, 21:01:48,6.367301,-0.038285162,-0.09332009,0.24055889,-2.2028844,-2.5338056,6.368099893560798,3.366116349820726,fall
10/07/2020, 21:01:48,6.9009004,0.63888365,-0.46660042,0.24055889,-2.2028844,-2.5338056,6.946100640040231,3.366116349820726,fall
10/07/2020, 21:01:48,6.9009004,0.63888365,-0.46660042,0.19537778,-1.9965167,-2.4751923,6.946100640040231,3.1860364707531863,fall
10/07/2020, 21:01:48,7.233503,1.0959128,-0.64845496,0.19537778,-1.9965167,-2.4751923,7.34473161064149,3.1860364707531863,fall
10/07/2020, 21:01:48,7.233503,1.0959128,-0.64845496,0.03052778,-1.7925912,-2.4104733,7.34473161064149,3.004113340354704,fall
10/07/2020, 21:01:48,7.240681,1.2849457,-0.6891329,0.03052778,-1.7925912,-2.4104733,7.3860309733658,3.004113340354704,fall
10/07/2020, 21:01:48,7.240681,1.2849457,-0.6891329,-0.19293556,-1.6643745,-2.3079002,7.3860309733658,2.8519764718915273,fall
10/07/2020, 21:01:48,7.0325055,1.1844472,-0.71306115,-0.19293556,-1.6643745,-2.3079002,7.167112744034979,2.8519764718915273,fall
10/07/2020, 21:01:49,0.5623133,-3.414558,8.834301,0.26620224,0.18316667,0.054950003,9.487901570907342,0.3277699867194328,fall
10/07/2020, 21:01:49,0.71306115,-3.3212378,8.62134,0.26620224,0.18316667,0.054950003,9.266421998921732,0.3277699867194328,fall
10/07/2020, 21:01:49,0.71306115,-3.3212378,8.62134,0.31382558,0.2295689,0.06960334,9.266421998921732,0.3950101227932307,fall
10/07/2020, 21:01:49,0.8446664,-3.1561332,8.592627,0.31382558,0.2295689,0.06960334,9.1928161833608,0.3950101227932307,fall
10/07/2020, 21:01:49,0.8446664,-3.1561332,8.592627,0.30894113,0.31504667,0.08303556,9.1928161833608,0.4489921227303221,fall
10/07/2020, 21:01:49,0.863809,-3.0364919,8.889337,0.30894113,0.31504667,0.08303556,9.433279058284935,0.4489921227303221,fall
10/07/2020, 21:01:49,0.863809,-3.0364919,8.889337,0.25277,0.37976557,0.11112112,9.433279058284935,0.4695343091061809,fall
10/07/2020, 21:01:49,0.71306115,-3.1058838,9.066405,0.25277,0.37976557,0.11112112,9.6101340060266,0.4695343091061809,fall
10/07/2020, 21:01:49,0.71306115,-3.1058838,9.066405,0.21491556,0.39808223,0.14409111,9.6101340060266,0.47478458872005946,fall
10/07/2020, 21:01:49,0.552742,-3.2733815,9.202796,0.21491556,0.39808223,0.14409111,9.783251191460591,0.47478458872005946,fall
10/07/2020, 21:01:49,0.552742,-3.2733815,9.202796,0.21369445,0.38465002,0.14531223,9.783251191460591,0.46339681071434197,fall
10/07/2020, 21:01:49,0.4019942,-3.5389848,9.394221,0.21369445,0.38465002,0.14531223,10.046760996482199,0.46339681071434197,fall
10/07/2020, 21:01:49,0.4019942,-3.5389848,9.394221,0.23811668,0.36389112,0.13798556,10.046760996482199,0.4562415135943012,fall
10/07/2020, 21:01:49,0.32303107,-3.76391,9.305687,0.23811668,0.36389112,0.13798556,10.043265285665642,0.4562415135943012,fall
10/07/2020, 21:01:49,0.32303107,-3.76391,9.305687,0.3162678,0.34801668,0.14042778,10.043265285665642,0.4907757994472086,fall
10/07/2020, 21:01:49,0.41635114,-3.749553,8.760123,0.3162678,0.34801668,0.14042778,9.537937676218187,0.4907757994472086,fall
10/07/2020, 21:01:49,0.41635114,-3.749553,8.760123,0.44204223,0.3809867,0.14897557,9.537937676218187,0.6022839132091097,fall
10/07/2020, 21:01:49,0.6580262,-3.438486,8.518449,0.44204223,0.3809867,0.14897557,9.209785861907406,0.6022839132091097,fall
10/07/2020, 21:01:49,0.6580262,-3.438486,8.518449,0.49821335,0.49455002,0.16851334,9.209785861907406,0.7219369857260158,fall
10/07/2020, 21:01:49,0.8207382,-3.0963125,8.85823,0.49821335,0.49455002,0.16851334,9.419606930800853,0.7219369857260158,fall
10/07/2020, 21:01:50,5.06082,4.206582,-2.821138,0.27475002,0.6325356,-0.5800278,7.160031557059627,0.9011221349617671,fall
10/07/2020, 21:01:50,4.766503,4.9866424,-2.6871397,0.27475002,0.6325356,-0.5800278,7.40316631953267,0.9011221349617671,fall
10/07/2020, 21:01:50,4.766503,4.9866424,-2.6871397,0.24666445,0.8767578,-0.14653334,7.40316631953267,0.9225072418978351,fall
10/07/2020, 21:01:50,4.4721856,5.73081,-2.5196424,0.24666445,0.8767578,-0.14653334,7.693583487878335,0.9225072418978351,fall
10/07/2020, 21:01:50,4.4721856,5.73081,-2.5196424,0.03174889,1.0721356,0.32359445,7.693583487878335,1.1203553169465954,fall
10/07/2020, 21:01:50,4.199404,6.2644095,-2.199004,0.03174889,1.0721356,0.32359445,7.855790041723708,1.1203553169465954,fall
10/07/2020, 21:01:50,4.199404,6.2644095,-2.199004,-0.29917222,1.2345434,0.7973856,7.855790041723708,1.4998084155678082,fall
10/07/2020, 21:01:50,3.9864426,6.431907,-1.8568304,-0.29917222,1.2345434,0.7973856,7.791596321987301,1.4998084155678082,fall
10/07/2020, 21:01:50,3.9864426,6.431907,-1.8568304,-0.61544,1.3774134,1.2601867,7.791596321987301,1.9657325628458884,fall
10/07/2020, 21:01:50,3.8069808,6.1447687,-1.5290136,-0.61544,1.3774134,1.2601867,7.388448310113296,1.9657325628458884,fall
10/07/2020, 21:01:50,3.8069808,6.1447687,-1.5290136,-0.8779789,1.51662,1.6949023,7.388448310113296,2.437965779196013,fall
10/07/2020, 21:01:50,3.7160535,5.477171,-1.3016955,-0.8779789,1.51662,1.6949023,6.7455812313175105,2.437965779196013,fall
10/07/2020, 21:01:50,3.7160535,5.477171,-1.3016955,-1.0904523,1.6619323,2.097869,6.7455812313175105,2.8900102740394207,fall
10/07/2020, 21:01:50,3.6059837,4.6205406,-1.3567305,-1.0904523,1.6619323,2.097869,6.016081103660519,2.8900102740394207,fall
10/07/2020, 21:01:50,3.6059837,4.6205406,-1.3567305,-1.2760612,1.8194556,2.4556546,6.016081103660519,3.3119466349399387,fall
10/07/2020, 21:01:50,3.5294135,3.749553,-1.5696917,-1.2760612,1.8194556,2.4556546,5.3832925541302075,3.3119466349399387,fall
10/07/2020, 21:01:50,3.5294135,3.749553,-1.5696917,-1.4531223,1.9818634,2.7743645,5.3832925541302075,3.706271033332313,fall
10/07/2020, 21:01:50,3.4432719,3.0029924,-1.8927227,-1.4531223,1.9818634,2.7743645,4.945349717536294,3.706271033332313,fall
10/07/2020, 21:01:50,3.4432719,3.0029924,-1.8927227,-1.6179723,2.1479344,3.0588834,4.945349717536294,4.072864396409026,fall
10/07/2020, 21:01:50,3.3092737,2.3449662,-2.2420747,-1.6179723,2.1479344,3.0588834,4.634334687070867,4.072864396409026,fall
10/07/2020, 21:01:51,-9.080762,-1.0983056,3.1752756,-0.10867889,0.21980001,-0.15019667,9.682400886090512,0.28754510304542125,fall
10/07/2020, 21:01:51,-9.013762,-1.2203395,3.2805598,-0.10867889,0.21980001,-0.15019667,9.669499210505052,0.28754510304542125,fall
10/07/2020, 21:01:51,-9.013762,-1.2203395,3.2805598,-0.08303556,0.22712667,-0.14775445,9.669499210505052,0.28339514059211174,fall
10/07/2020, 21:01:51,-9.02812,-1.3734802,3.3643086,-0.08303556,0.22712667,-0.14775445,9.732007586387207,0.28339514059211174,fall
10/07/2020, 21:01:51,-9.02812,-1.3734802,3.3643086,-0.07570889,0.23567446,-0.13432223,9.732007586387207,0.2816322873936255,fall
10/07/2020, 21:01:51,-9.01137,-1.4811572,3.306881,-0.07570889,0.23567446,-0.13432223,9.712572892394586,0.2816322873936255,fall
10/07/2020, 21:01:51,-9.01137,-1.4811572,3.306881,-0.07326667,0.24422224,-0.12455334,9.712572892394586,0.28377110623748175,fall
10/07/2020, 21:01:51,-9.008977,-1.5314065,3.2183464,-0.07326667,0.24422224,-0.12455334,9.688375748821603,0.28377110623748175,fall
10/07/2020, 21:01:51,-9.008977,-1.5314065,3.2183464,-0.07937223,0.24300112,-0.10379445,9.688375748821603,0.27590357264331844,fall
10/07/2020, 21:01:51,-9.0233345,-1.5840486,3.1274192,-0.07937223,0.24300112,-0.10379445,9.68041975719783,0.27590357264331844,fall
10/07/2020, 21:01:51,-9.0233345,-1.5840486,3.1274192,-0.10013112,0.23445335,-0.078151114,9.68041975719783,0.2666499778484814,fall
10/07/2020, 21:01:51,-9.01137,-1.6582261,3.0963125,-0.10013112,0.23445335,-0.078151114,9.671693187304108,0.2666499778484814,fall
10/07/2020, 21:01:51,-9.01137,-1.6582261,3.0963125,-0.09402556,0.2283478,-0.06105556,9.671693187304108,0.25438416207856446,fall
10/07/2020, 21:01:51,-8.896515,-1.6582261,3.0795627,-0.09402556,0.2283478,-0.06105556,9.559361764349898,0.25438416207856446,fall
10/07/2020, 21:01:51,-8.896515,-1.6582261,3.0795627,-0.068382226,0.22102112,-0.05372889,9.559361764349898,0.2375147490776373,fall
10/07/2020, 21:01:51,-8.829515,-1.579263,2.9982069,-0.068382226,0.22102112,-0.05372889,9.457465785347946,0.2375147490776373,fall
10/07/2020, 21:01:51,-8.829515,-1.579263,2.9982069,-0.042738892,0.21003112,-0.05372889,9.457465785347946,0.22096714389797845,fall
10/07/2020, 21:01:51,-8.800801,-1.4452649,2.9240294,-0.042738892,0.21003112,-0.05372889,9.38577868347335,0.22096714389797845,fall
10/07/2020, 21:01:51,-8.800801,-1.4452649,2.9240294,-0.03174889,0.18927222,-0.05617111,9.38577868347335,0.19996789989474603,fall
10/07/2020, 21:01:51,-8.891729,-1.3615161,2.8498518,-0.03174889,0.18927222,-0.05617111,9.436007238650788,0.19996789989474603,fall
10/07/2020, 21:01:52,-7.743174,-1.0887343,4.1108694,-0.21980001,-0.93537116,-0.2759711,8.834100654173623,0.9996956079527177,fall
10/07/2020, 21:01:52,-7.743174,-1.0887343,4.1108694,-0.5470578,-0.9964267,-0.45547447,8.834100654173623,1.2245796852374253,fall
10/07/2020, 21:01:52,-8.035098,-0.17467605,3.8572302,-0.5470578,-0.9964267,-0.45547447,8.914681010620697,1.2245796852374253,fall
10/07/2020, 21:01:52,-8.035098,-0.17467605,3.8572302,-0.96223557,-1.1136534,-0.59834445,8.914681010620697,1.588753382441959,fall
10/07/2020, 21:01:52,-8.360522,0.8063812,3.1728828,-0.96223557,-1.1136534,-0.59834445,8.978628433366499,1.588753382441959,fall
10/07/2020, 21:01:52,-8.360522,0.8063812,3.1728828,-1.3993934,-1.2626289,-0.6899278,8.978628433366499,2.007120863705537,fall
10/07/2020, 21:01:52,-8.63809,1.4763715,2.629712,-1.3993934,-1.2626289,-0.6899278,9.149407619970642,2.007120863705537,fall
10/07/2020, 21:01:52,-8.63809,1.4763715,2.629712,-1.8218979,-1.4531223,-0.7717422,9.149407619970642,2.4548853713980434,fall
10/07/2020, 21:01:52,-8.796016,1.7084754,2.1176481,-1.8218979,-1.4531223,-0.7717422,9.207237071707798,2.4548853713980434,fall
10/07/2020, 21:01:52,-8.796016,1.7084754,2.1176481,-2.2016635,-1.6997868,-0.8523356,9.207237071707798,2.9091361560039255,fall
10/07/2020, 21:01:52,-8.769695,1.550549,2.0291135,-2.2016635,-1.6997868,-0.8523356,9.133950917119373,2.9091361560039255,fall
10/07/2020, 21:01:52,-8.769695,1.550549,2.0291135,-2.3408701,-1.8976067,-0.9842156,9.133950917119373,3.1700575241184126,fall
10/07/2020, 21:01:52,-8.4705925,1.0695918,2.8498518,-2.3408701,-1.8976067,-0.9842156,9.000923250584119,3.1700575241184126,fall
10/07/2020, 21:01:52,-8.4705925,1.0695918,2.8498518,-2.2541711,-2.0184968,-1.1515079,9.000923250584119,3.2375279107509956,fall
10/07/2020, 21:01:52,-8.068598,0.3804588,4.508078,-2.2541711,-2.0184968,-1.1515079,9.25039390485094,3.2375279107509956,fall
10/07/2020, 21:01:52,-8.068598,0.3804588,4.508078,-2.1601458,-2.0514667,-1.339559,9.25039390485094,3.2663685558306232,fall
10/07/2020, 21:01:52,-7.8293157,-0.34456646,6.5682983,-2.1601458,-2.0514667,-1.339559,10.225431671614253,3.2663685558306232,fall
10/07/2020, 21:01:52,-7.8293157,-0.34456646,6.5682983,-2.1796834,-2.1857889,-1.5129567,10.225431671614253,3.4376926861926975,fall
10/07/2020, 21:01:52,-8.252846,-0.6269195,9.449257,-2.1796834,-2.1857889,-1.5129567,12.561486662871074,3.4376926861926975,fall
10/07/2020, 21:01:52,-8.252846,-0.6269195,9.449257,-2.2566135,-2.4446645,-1.5984346,12.561486662871074,3.691027219424186,fall
10/07/2020, 21:01:53,-7.3842506,-0.92602235,4.9028935,-0.13554333,0.6801589,0.09646778,8.911960503599271,0.7002100927877636,fall
10/07/2020, 21:01:53,-7.570891,-1.3998013,4.9292145,-0.13554333,0.6801589,0.09646778,9.141935680660424,0.7002100927877636,fall
10/07/2020, 21:01:53,-7.570891,-1.3998013,4.9292145,-0.16607112,0.66306335,0.11966889,9.141935680660424,0.6939403883166578,fall
10/07/2020, 21:01:53,-7.9944205,-1.6175481,4.6875396,-0.16607112,0.66306335,0.11966889,9.407457082421047,0.6939403883166578,fall
10/07/2020, 21:01:53,-7.9944205,-1.6175481,4.6875396,-0.17828223,0.59468114,0.15752333,9.407457082421047,0.6405027848734052,fall
10/07/2020, 21:01:53,-8.238488,-1.713261,4.2352962,-0.17828223,0.59468114,0.15752333,9.420492841673296,0.6405027848734052,fall
10/07/2020, 21:01:53,-8.238488,-1.713261,4.2352962,-0.15141778,0.53851,0.18683001,9.420492841673296,0.5897676185075099,fall
10/07/2020, 21:01:53,-8.255239,-1.5577276,4.0295134,-0.15141778,0.53851,0.18683001,9.31732023421098,0.5897676185075099,fall
10/07/2020, 21:01:53,-8.255239,-1.5577276,4.0295134,-0.102573335,0.52752,0.18683001,9.31732023421098,0.5689499930589201,fall
10/07/2020, 21:01:53,-8.116454,-1.3112668,4.2855453,-0.102573335,0.52752,0.18683001,9.271577377218733,0.5689499930589201,fall
10/07/2020, 21:01:53,-8.116454,-1.3112668,4.2855453,-0.08059334,0.5372889,0.17950334,9.271577377218733,0.572185372817414,fall
10/07/2020, 21:01:53,-8.02792,-1.2705889,4.706682,-0.08059334,0.5372889,0.17950334,9.39227072073987,0.572185372817414,fall
10/07/2020, 21:01:53,-8.02792,-1.2705889,4.706682,-0.078151114,0.5507211,0.18927222,9.39227072073987,0.5875587728785836,fall
10/07/2020, 21:01:53,-8.154739,-1.4476577,4.8047876,-0.078151114,0.5507211,0.18927222,9.575044198746689,0.5875587728785836,fall
10/07/2020, 21:01:53,-8.154739,-1.4476577,4.8047876,-0.07448778,0.56293225,0.21125223,9.575044198746689,0.6058619106262406,fall
10/07/2020, 21:01:53,-8.262417,-1.4763715,4.725825,-0.07448778,0.56293225,0.21125223,9.63226999557276,0.6058619106262406,fall
10/07/2020, 21:01:53,-8.262417,-1.4763715,4.725825,-0.068382226,0.56659555,0.22712667,9.63226999557276,0.6142419527846658,fall
10/07/2020, 21:01:53,-8.449057,-1.4045869,4.6037908,-0.068382226,0.56659555,0.22712667,9.723904134245435,0.6142419527846658,fall
10/07/2020, 21:01:53,-8.449057,-1.4045869,4.6037908,-0.08303556,0.5556056,0.23933779,9.723904134245435,0.6106349582946243,fall
10/07/2020, 21:01:53,-8.645268,-1.3663018,4.546363,-0.08303556,0.5556056,0.23933779,9.862903342962246,0.6106349582946243,fall
10/07/2020, 21:01:54,-9.710074,0.040677983,6.1830535,0.15874445,-1.1344123,0.0048844446,11.51161806766828,1.1454758401088208,fall
10/07/2020, 21:01:54,-9.710074,0.040677983,6.1830535,-0.081814446,-1.1698245,0.02075889,11.51161806766828,1.1728656578529848,fall
10/07/2020, 21:01:54,-9.700503,0.014356935,5.898308,-0.081814446,-1.1698245,0.02075889,11.352973454494327,1.1728656578529848,fall
10/07/2020, 21:01:54,-9.700503,0.014356935,5.898308,-0.34191114,-1.0745778,0.034191113,11.352973454494327,1.128179827928429,fall
10/07/2020, 21:01:54,-9.602397,0.09571291,5.1876397,-0.34191114,-1.0745778,0.034191113,10.914522171378675,1.128179827928429,fall
10/07/2020, 21:01:54,-9.602397,0.09571291,5.1876397,-0.59834445,-0.94758224,-0.029306669,10.914522171378675,1.121065148316545,fall
10/07/2020, 21:01:54,-9.454042,0.16271193,4.0869412,-0.59834445,-0.94758224,-0.029306669,10.300897157409663,1.121065148316545,fall
10/07/2020, 21:01:54,-9.454042,0.16271193,4.0869412,-0.81448114,-0.99886894,-0.13188,10.300897157409663,1.2955736275332372,fall
10/07/2020, 21:01:54,-9.209974,0.10289137,3.6586258,-0.81448114,-0.99886894,-0.13188,9.910588079552175,1.2955736275332372,fall
10/07/2020, 21:01:54,-9.209974,0.10289137,3.6586258,-0.8498934,-1.0074167,-0.27963445,9.910588079552175,1.347368790553238,fall
10/07/2020, 21:01:54,-8.941978,-0.12921242,3.6227336,-0.8498934,-1.0074167,-0.27963445,9.648827556685992,1.347368790553238,fall
10/07/2020, 21:01:54,-8.941978,-0.12921242,3.6227336,-0.7888378,-0.84745115,-0.4383789,9.648827556685992,1.2379881147517504,fall
10/07/2020, 21:01:54,-8.707481,-0.54317075,3.2925239,-0.7888378,-0.84745115,-0.4383789,9.325019029264658,1.2379881147517504,fall
10/07/2020, 21:01:54,-8.707481,-0.54317075,3.2925239,-0.72778225,-0.6752745,-0.54461557,9.325019029264658,1.1323730643011696,fall
10/07/2020, 21:01:54,-8.568698,-0.9403793,2.8546374,-0.72778225,-0.6752745,-0.54461557,9.080520473516094,1.1323730643011696,fall
10/07/2020, 21:01:54,-8.568698,-0.9403793,2.8546374,-0.7265611,-0.5360678,-0.6191034,9.080520473516094,1.094782502835234,fall
10/07/2020, 21:01:54,-8.496913,-1.1030912,2.510071,-0.7265611,-0.5360678,-0.6191034,8.928314325297913,1.094782502835234,fall
10/07/2020, 21:01:54,-8.496913,-1.1030912,2.510071,-0.80471224,-0.40174556,-0.68138003,8.928314325297913,1.128379380303697,fall
10/07/2020, 21:01:54,-8.477771,-0.8111669,2.160719,-0.80471224,-0.40174556,-0.68138003,8.786312979937888,1.128379380303697,fall
10/07/2020, 21:01:54,-8.477771,-0.8111669,2.160719,-0.9512456,-0.3284789,-0.7436567,8.786312979937888,1.2513160560478715,fall
10/07/2020, 21:01:55,-1.1820544,-4.331009,4.4721856,-0.14042778,-1.2235534,-1.7034501,6.3368237264137095,2.1020335676357256,fall
10/07/2020, 21:01:55,-0.9092726,-3.8285162,4.1204405,-0.14042778,-1.2235534,-1.7034501,5.697573439057984,2.1020335676357256,fall
10/07/2020, 21:01:55,-0.9092726,-3.8285162,4.1204405,-0.21247335,-1.1331911,-1.6533846,5.697573439057984,2.0156754541506645,fall
10/07/2020, 21:01:55,-0.55034924,-3.4193435,3.8524444,-0.21247335,-1.1331911,-1.6533846,5.180359253175977,2.0156754541506645,fall
10/07/2020, 21:01:55,-0.55034924,-3.4193435,3.8524444,-0.27963445,-1.0245123,-1.6350678,5.180359253175977,1.9496839834826811,fall
10/07/2020, 21:01:55,-0.2105684,-3.2327034,3.6083765,-0.27963445,-1.0245123,-1.6350678,4.849236188940282,1.9496839834826811,fall
10/07/2020, 21:01:55,-0.2105684,-3.2327034,3.6083765,-0.39197668,-0.8999589,-1.6326256,4.849236188940282,1.9050034231152422,fall
10/07/2020, 21:01:55,0.050249275,-3.2590244,3.3834512,-0.39197668,-0.8999589,-1.6326256,4.698032257304664,1.9050034231152422,fall
10/07/2020, 21:01:55,0.050249275,-3.2590244,3.3834512,-0.5104245,-0.75953114,-1.61553,4.698032257304664,1.8567062083752026,fall
10/07/2020, 21:01:55,0.14596218,-3.4097722,3.1752756,-0.5104245,-0.75953114,-1.61553,4.6615690527325535,1.8567062083752026,fall
10/07/2020, 21:01:55,0.14596218,-3.4097722,3.1752756,-0.59956557,-0.60933447,-1.5544745,4.6615690527325535,1.7740231817995742,fall
10/07/2020, 21:01:55,0.16749759,-3.5509489,2.969493,-0.59956557,-0.60933447,-1.5544745,4.631973811763044,1.7740231817995742,fall
10/07/2020, 21:01:55,0.16749759,-3.5509489,2.969493,-0.64841,-0.4591378,-1.460449,4.631973811763044,1.6625745992518022,fall
10/07/2020, 21:01:55,0.17467605,-3.6921253,2.8307092,-0.64841,-0.4591378,-1.460449,4.655664913325898,1.6625745992518022,fall
10/07/2020, 21:01:55,0.17467605,-3.6921253,2.8307092,-0.7387723,-0.2942878,-1.3798556,4.655664913325898,1.5926052079724489,fall
10/07/2020, 21:01:55,0.1794617,-3.7686956,2.5459633,-0.7387723,-0.2942878,-1.3798556,4.55161532151878,1.5926052079724489,fall
10/07/2020, 21:01:55,0.1794617,-3.7686956,2.5459633,-0.8962956,-0.14897557,-1.3053678,4.55161532151878,1.5904479555817046,fall
10/07/2020, 21:01:55,0.2009971,-3.7040894,2.2731814,-0.8962956,-0.14897557,-1.3053678,4.350635814747212,1.5904479555817046,fall
10/07/2020, 21:01:55,0.2009971,-3.7040894,2.2731814,-1.0525978,-0.024422223,-1.2040156,4.350635814747212,1.5994411796439048,fall
10/07/2020, 21:01:55,0.30388847,-3.4887354,2.0338993,-1.0525978,-0.024422223,-1.2040156,4.049736972485763,1.5994411796439048,fall
10/07/2020, 21:01:56,-8.803194,-2.1535404,3.3403804,-0.02075889,0.109900005,-0.008547778,9.658783720944712,0.11216954642632922,fall
10/07/2020, 21:01:56,-8.829515,-2.184647,3.2590244,-0.02075889,0.109900005,-0.008547778,9.662001138827929,0.11216954642632922,fall
10/07/2020, 21:01:56,-8.829515,-2.184647,3.2590244,-0.018316668,0.09280445,0.0,9.662001138827929,0.09459474434766163,fall
10/07/2020, 21:01:56,-8.819944,-2.1511476,3.237489,-0.018316668,0.09280445,0.0,9.638474456005348,0.09459474434766163,fall
10/07/2020, 21:01:56,-8.819944,-2.1511476,3.237489,-0.02075889,0.078151114,0.0036633336,9.638474456005348,0.08094410525238999,fall
10/07/2020, 21:01:56,-8.85823,-2.2085752,3.2446675,-0.02075889,0.078151114,0.0036633336,9.688854644089108,0.08094410525238999,fall
10/07/2020, 21:01:56,-8.85823,-2.2085752,3.2446675,-0.018316668,0.06227667,-0.0012211112,9.688854644089108,0.06492591858718655,fall
10/07/2020, 21:01:56,-8.805588,-2.1822543,3.196811,-0.018316668,0.06227667,-0.0012211112,9.618742649714306,0.06492591858718655,fall
10/07/2020, 21:01:56,-8.805588,-2.1822543,3.196811,-0.0061055557,0.046402223,-0.01099,9.618742649714306,0.04807519375651333,fall
10/07/2020, 21:01:56,-8.800801,-2.050649,3.2087753,-0.0061055557,0.046402223,-0.01099,9.589343197241122,0.04807519375651333,fall
10/07/2020, 21:01:56,-8.800801,-2.050649,3.2087753,0.0048844446,0.02075889,-0.018316668,9.589343197241122,0.02811209004737814,fall
10/07/2020, 21:01:56,-8.781659,-1.9190438,3.1513474,0.0048844446,0.02075889,-0.018316668,9.525295610374336,0.02811209004737814,fall
10/07/2020, 21:01:56,-8.781659,-1.9190438,3.1513474,0.0061055557,0.01099,-0.034191113,9.525295610374336,0.036429248184786135,fall
10/07/2020, 21:01:56,-8.702696,-1.8305093,3.2638102,0.0061055557,0.01099,-0.034191113,9.473127047569081,0.036429248184786135,fall
10/07/2020, 21:01:56,-8.702696,-1.8305093,3.2638102,-0.0036633336,0.007326667,-0.04029667,9.473127047569081,0.04112081811373564,fall
10/07/2020, 21:01:56,-8.673982,-1.9812572,3.2997024,-0.0036633336,0.007326667,-0.04029667,9.489540242451646,0.04112081811373564,fall
10/07/2020, 21:01:56,-8.673982,-1.9812572,3.2997024,0.0012211112,0.0036633336,-0.04029667,9.489540242451646,0.04048126409332364,fall
10/07/2020, 21:01:56,-8.721839,-2.1176481,3.290131,0.0012211112,0.0036633336,-0.04029667,9.559281922412037,0.04048126409332364,fall
10/07/2020, 21:01:56,-8.721839,-2.1176481,3.290131,0.01099,-0.015874445,-0.035412222,9.559281922412037,0.04033365347467724,fall
10/07/2020, 21:01:56,-8.784052,-2.105684,3.2327034,0.01099,-0.015874445,-0.035412222,9.593948330048134,0.04033365347467724,fall
10/07/2020, 21:01:57,-9.5665045,-2.0721843,4.249653,-2.1699145,-0.19782001,-0.3394689,10.671059238060147,2.205198574976714,fall
10/07/2020, 21:01:57,-9.5665045,-2.0721843,4.249653,-1.9806423,-0.07570889,-0.3382478,10.671059238060147,2.010742999160159,fall
10/07/2020, 21:01:57,-9.789038,-2.5028925,4.476971,-1.9806423,-0.07570889,-0.3382478,11.05138003554225,2.010742999160159,fall
10/07/2020, 21:01:57,-9.789038,-2.5028925,4.476971,-1.80236,0.034191113,-0.32481557,11.05138003554225,1.831713942086461,fall
10/07/2020, 21:01:57,-9.982856,-2.548356,4.5942197,-1.80236,0.034191113,-0.32481557,11.280885734710521,1.831713942086461,fall
10/07/2020, 21:01:57,-9.982856,-2.548356,4.5942197,-1.6411734,0.08059334,-0.30772,11.280885734710521,1.6717167507689765,fall
10/07/2020, 21:01:57,-10.167104,-2.37368,4.800002,-1.6411734,0.08059334,-0.30772,11.491056367702884,1.6717167507689765,fall
10/07/2020, 21:01:57,-10.167104,-2.37368,4.800002,-1.5581379,0.054950003,-0.30894113,11.491056367702884,1.5894205918348836,fall
10/07/2020, 21:01:57,-10.234102,-2.2755744,4.9340005,-1.5581379,0.054950003,-0.30894113,11.587037963172577,1.5894205918348836,fall
10/07/2020, 21:01:57,-10.234102,-2.2755744,4.9340005,-1.5202833,0.015874445,-0.3052778,11.587037963172577,1.5507120841908477,fall
10/07/2020, 21:01:57,-10.157532,-2.4047868,5.17089,-1.5202833,0.015874445,-0.3052778,11.648886323396306,1.5507120841908477,fall
10/07/2020, 21:01:57,-10.157532,-2.4047868,5.17089,-1.4836501,0.009768889,-0.28085557,11.648886323396306,1.5100307496345513,fall
10/07/2020, 21:01:57,-9.927821,-2.7732813,5.3096733,-1.4836501,0.009768889,-0.28085557,11.595057265564892,1.5100307496345513,fall
10/07/2020, 21:01:57,-9.927821,-2.7732813,5.3096733,-1.4079412,0.054950003,-0.24055889,11.595057265564892,1.4294007725908107,fall
10/07/2020, 21:01:57,-9.626326,-3.2853456,5.400601,-1.4079412,0.054950003,-0.24055889,11.516341880144289,1.4294007725908107,fall
10/07/2020, 21:01:57,-9.626326,-3.2853456,5.400601,-1.3065889,0.13432223,-0.19171445,11.516341880144289,1.3273927126924556,fall
10/07/2020, 21:01:57,-9.334401,-3.7471602,5.4580283,-1.3065889,0.13432223,-0.19171445,11.443877276029733,1.3273927126924556,fall
10/07/2020, 21:01:57,-9.334401,-3.7471602,5.4580283,-1.2052367,0.23567446,-0.15386,11.443877276029733,1.2376634390442578,fall
10/07/2020, 21:01:57,-9.195618,-4.1635113,5.575277,-1.2052367,0.23567446,-0.15386,11.531605376492482,1.2376634390442578,fall
10/07/2020, 21:01:57,-9.195618,-4.1635113,5.575277,-1.0806834,0.33214223,-0.11234222,11.531605376492482,1.1361407231838183,fall
10/07/2020, 21:01:58,-9.444471,-6.472585,7.838887,0.39808223,-2.5399113,-1.3774134,13.875898212639544,2.916656711357151,fall
10/07/2020, 21:01:58,-9.444471,-6.472585,7.838887,0.32359445,-2.3628502,-1.1979101,13.875898212639544,2.668850487034253,fall
10/07/2020, 21:01:58,-9.367901,-5.757131,7.1976104,0.32359445,-2.3628502,-1.1979101,13.14183092121103,2.668850487034253,fall
10/07/2020, 21:01:58,-9.367901,-5.757131,7.1976104,0.1965989,-2.1479344,-1.0086378,13.14183092121103,2.381097153909279,fall
10/07/2020, 21:01:58,-9.363115,-4.962714,6.15434,0.1965989,-2.1479344,-1.0086378,12.254483210631445,2.381097153909279,fall
10/07/2020, 21:01:58,-9.363115,-4.962714,6.15434,0.034191113,-1.9098178,-0.76075226,12.254483210631445,2.056044046263003,fall
10/07/2020, 21:01:58,-9.38465,-4.15394,4.8622155,0.034191113,-1.9098178,-0.76075226,11.356408714540569,2.056044046263003,fall
10/07/2020, 21:01:58,-9.38465,-4.15394,4.8622155,-0.12577444,-1.6350678,-0.46035892,11.356408714540569,1.7032898524509896,fall
10/07/2020, 21:01:58,-9.236296,-3.397808,3.6179478,-0.12577444,-1.6350678,-0.46035892,10.4854091183337,1.7032898524509896,fall
10/07/2020, 21:01:58,-9.236296,-3.397808,3.6179478,-0.38831335,-1.2943778,-0.22346334,10.4854091183337,1.369721513366422,fall
10/07/2020, 21:01:58,-8.927621,-2.737389,2.309074,-0.38831335,-1.2943778,-0.22346334,9.619123459236608,1.369721513366422,fall
10/07/2020, 21:01:58,-8.927621,-2.737389,2.309074,-0.6972545,-0.9414767,-0.09646778,9.619123459236608,1.175520404887632,fall
10/07/2020, 21:01:58,-8.374879,-1.9501505,1.0983056,-0.6972545,-0.9414767,-0.09646778,8.668792211001715,1.175520404887632,fall
10/07/2020, 21:01:58,-8.374879,-1.9501505,1.0983056,-0.8034911,-0.5470578,0.0024422223,8.668792211001715,0.9720474175352798,fall
10/07/2020, 21:01:58,-7.6546397,-0.9906286,0.30149564,-0.8034911,-0.5470578,0.0024422223,7.724361067573072,0.9720474175352798,fall
10/07/2020, 21:01:58,-7.6546397,-0.9906286,0.30149564,-0.5592689,-0.07448778,0.16118668,7.724361067573072,0.5867804265988562,fall
10/07/2020, 21:01:58,-6.8099732,0.083748795,-0.15792629,-0.5592689,-0.07448778,0.16118668,6.812318995927623,0.5867804265988562,fall
10/07/2020, 21:01:58,-6.8099732,0.083748795,-0.15792629,-0.048844445,0.5104245,0.37488112,6.812318995927623,0.6351809173178063,fall
10/07/2020, 21:01:58,-6.101698,1.0815558,-0.23928227,-0.048844445,0.5104245,0.37488112,6.201430203840512,0.6351809173178063,fall
10/07/2020, 21:01:58,-6.101698,1.0815558,-0.23928227,0.5324045,1.1686034,0.59346,6.201430203840512,1.4146671997531262,fall
10/07/2020, 21:01:59,-8.458628,-1.1700903,4.304688,0.14531223,-0.4261678,-0.11234222,9.562836007712344,0.46406400709911877,fall
10/07/2020, 21:01:59,-8.446664,-1.1653047,4.369294,0.14531223,-0.4261678,-0.11234222,9.58096011740288,0.46406400709911877,fall
10/07/2020, 21:01:59,-8.446664,-1.1653047,4.369294,0.14287001,-0.42128336,-0.106236674,9.58096011740288,0.4573595340299989,fall
10/07/2020, 21:01:59,-8.458628,-1.282553,4.4985065,0.14287001,-0.42128336,-0.106236674,9.665913604740501,0.4573595340299989,fall
10/07/2020, 21:01:59,-8.458628,-1.282553,4.4985065,0.16485001,-0.42128336,-0.081814446,9.665913604740501,0.4597268784996222,fall
10/07/2020, 21:01:59,-8.4705925,-1.4524434,4.5487556,0.16485001,-0.42128336,-0.081814446,9.723770201052137,0.4597268784996222,fall
10/07/2020, 21:01:59,-8.4705925,-1.4524434,4.5487556,0.19904111,-0.41884112,-0.06349778,9.723770201052137,0.4680568553679207,fall
10/07/2020, 21:01:59,-8.525627,-1.5194423,4.5248275,0.19904111,-0.41884112,-0.06349778,9.77082835567515,0.4680568553679207,fall
10/07/2020, 21:01:59,-8.525627,-1.5194423,4.5248275,0.22468445,-0.43227336,-0.045181114,9.77082835567515,0.4892695473435172,fall
10/07/2020, 21:01:59,-8.508878,-1.4955142,4.4745784,0.22468445,-0.43227336,-0.045181114,9.729307010585249,0.4892695473435172,fall
10/07/2020, 21:01:59,-8.508878,-1.4955142,4.4745784,0.24788557,-0.45059,-0.02198,9.729307010585249,0.5147443417246638,fall
10/07/2020, 21:01:59,-8.465807,-1.3399807,4.5008993,0.24788557,-0.45059,-0.02198,9.681091388812339,0.5147443417246638,fall
10/07/2020, 21:01:59,-8.465807,-1.3399807,4.5008993,0.2759711,-0.4481478,-0.024422223,9.681091388812339,0.5268709091412441,fall
10/07/2020, 21:01:59,-8.372486,-1.2203395,4.7042894,0.2759711,-0.4481478,-0.024422223,9.680810473464685,0.5268709091412441,fall
10/07/2020, 21:01:59,-8.372486,-1.2203395,4.7042894,0.28818223,-0.44692668,-0.025643334,9.680810473464685,0.5324002608106048,fall
10/07/2020, 21:01:59,-8.405986,-1.2346965,4.790431,0.28818223,-0.44692668,-0.025643334,9.753630229797407,0.5324002608106048,fall
10/07/2020, 21:01:59,-8.405986,-1.2346965,4.790431,0.28085557,-0.45547447,-0.019537779,9.753630229797407,0.5354610752877677,fall
10/07/2020, 21:01:59,-8.465807,-1.2490535,4.7569313,0.28085557,-0.45547447,-0.019537779,9.790731205240453,0.5354610752877677,fall
10/07/2020, 21:01:59,-8.465807,-1.2490535,4.7569313,0.28085557,-0.46524334,-0.02075889,9.790731205240453,0.5438401838629591,fall
10/07/2020, 21:01:59,-8.566305,-1.2466606,4.7808595,0.28085557,-0.46524334,-0.02075889,9.889002174419987,0.5438401838629591,fall
10/07/2020, 21:02:00,-2.9072795,-4.914858,7.893922,-0.5128667,0.3602278,1.2235534,9.74279754873122,1.3747287950000553,fall
10/07/2020, 21:02:00,-2.6153553,-4.362116,7.793423,-0.5128667,0.3602278,1.2235534,9.306212047538951,1.3747287950000553,fall
10/07/2020, 21:02:00,-2.6153553,-4.362116,7.793423,-0.48966557,0.15874445,1.0733567,9.306212047538951,1.1904061818710656,fall
10/07/2020, 21:02:00,-2.3138595,-3.9768713,7.8484583,-0.48966557,0.15874445,1.0733567,9.097678170841398,1.1904061818710656,fall
10/07/2020, 21:02:00,-2.3138595,-3.9768713,7.8484583,-0.4481478,-0.0012211112,0.9072856,9.097678170841398,1.011931347699977,fall
10/07/2020, 21:02:00,-2.1798615,-3.723232,7.9776707,-0.4481478,-0.0012211112,0.9072856,9.069591083692655,1.011931347699977,fall
10/07/2020, 21:02:00,-2.1798615,-3.723232,7.9776707,-0.3370267,-0.12089001,0.7436567,9.069591083692655,0.8253645620145248,fall
10/07/2020, 21:02:00,-2.2444677,-3.5150564,7.982456,-0.3370267,-0.12089001,0.7436567,9.006268029099507,0.8253645620145248,fall
10/07/2020, 21:02:00,-2.2444677,-3.5150564,7.982456,-0.16118668,-0.24422224,0.58979666,9.006268029099507,0.658396347670263,fall
10/07/2020, 21:02:00,-2.388037,-3.3044882,7.8149586,-0.16118668,-0.24422224,0.58979666,8.814530060422472,0.658396347670263,fall
10/07/2020, 21:02:00,-2.388037,-3.3044882,7.8149586,-0.013432222,-0.39075556,0.44326335,8.814530060422472,0.5910606859950733,fall
10/07/2020, 21:02:00,-2.440679,-3.0819557,7.587641,-0.013432222,-0.39075556,0.44326335,8.545622121126693,0.5910606859950733,fall
10/07/2020, 21:02:00,-2.440679,-3.0819557,7.587641,0.07326667,-0.5458367,0.29184556,8.545622121126693,0.6232812566207402,fall
10/07/2020, 21:02:00,-2.400001,-2.8953154,7.391429,0.07326667,-0.5458367,0.29184556,8.29313440361838,0.6232812566207402,fall
10/07/2020, 21:02:00,-2.400001,-2.8953154,7.391429,0.11844778,-0.6777167,0.12943779,8.29313440361838,0.7000599303718503,fall
10/07/2020, 21:02:00,-2.3234308,-2.78046,7.21436,0.11844778,-0.6777167,0.12943779,8.073182851483894,0.7000599303718503,fall
10/07/2020, 21:02:00,-2.3234308,-2.78046,7.21436,0.123332225,-0.79616445,-0.048844445,8.073182851483894,0.8071396742786204,fall
10/07/2020, 21:02:00,-2.2612174,-2.6919255,7.058827,0.123332225,-0.79616445,-0.048844445,7.885848369051538,0.8071396742786204,fall
10/07/2020, 21:02:00,-2.2612174,-2.6919255,7.058827,0.13432223,-0.9133912,-0.23445335,7.885848369051538,0.9525199570537779,fall
10/07/2020, 21:02:00,-2.239682,-2.7445676,7.056434,0.13432223,-0.9133912,-0.23445335,7.895700712756431,0.9525199570537779,fall
10/07/2020, 21:02:01,-8.946764,-1.2346965,3.5605202,-0.06227667,0.41762,-0.14042778,9.708056720872273,0.4449773172311305,fall
10/07/2020, 21:02:01,-8.946764,-1.2346965,3.5605202,-0.06105556,0.3809867,-0.13676445,9.708056720872273,0.40936921600588566,fall
10/07/2020, 21:02:01,-8.953942,-1.1413764,3.641876,-0.06105556,0.3809867,-0.13676445,9.73340040243981,0.40936921600588566,fall
10/07/2020, 21:02:01,-8.953942,-1.1413764,3.641876,-0.04151778,0.35656446,-0.14409111,9.73340040243981,0.3868128629389784,fall
10/07/2020, 21:02:01,-8.925228,-1.0576276,3.7734814,-0.04151778,0.35656446,-0.14409111,9.747688683457719,0.3868128629389784,fall
10/07/2020, 21:02:01,-8.925228,-1.0576276,3.7734814,-0.028085556,0.35900667,-0.14653334,9.747688683457719,0.38877578316111605,fall
10/07/2020, 21:02:01,-8.915657,-0.997807,3.9553359,-0.028085556,0.35900667,-0.14653334,9.80455206050621,0.38877578316111605,fall
10/07/2020, 21:02:01,-8.915657,-0.997807,3.9553359,-0.03052778,0.36389112,-0.15874445,9.80455206050621,0.3981814885112077,fall
10/07/2020, 21:02:01,-9.044869,-1.079163,3.9840498,-0.03052778,0.36389112,-0.15874445,9.942178249610874,0.3981814885112077,fall
10/07/2020, 21:02:01,-9.044869,-1.079163,3.9840498,-0.039075557,0.36633334,-0.16118668,9.942178249610874,0.40212952868305335,fall
10/07/2020, 21:02:01,-9.224331,-1.2753744,3.9242291,-0.039075557,0.36633334,-0.16118668,10.10516872033531,0.40212952868305335,fall
10/07/2020, 21:02:01,-9.224331,-1.2753744,3.9242291,-0.037854444,0.35656446,-0.14897557,10.10516872033531,0.38828455276435997,fall
10/07/2020, 21:02:01,-9.32483,-1.2969099,3.8668015,-0.037854444,0.35656446,-0.14897557,10.177749494073234,0.38828455276435997,fall
10/07/2020, 21:02:01,-9.32483,-1.2969099,3.8668015,-0.03297,0.34435335,-0.14531223,10.177749494073234,0.37520913470348755,fall
10/07/2020, 21:02:01,-9.300901,-1.2227324,3.7950168,-0.03297,0.34435335,-0.14531223,10.119485852913542,0.37520913470348755,fall
10/07/2020, 21:02:01,-9.300901,-1.2227324,3.7950168,-0.039075557,0.32115224,-0.14653334,10.119485852913542,0.35515866910739224,fall
10/07/2020, 21:02:01,-9.176475,-1.1318051,3.694518,-0.039075557,0.32115224,-0.14653334,9.956813354058252,0.35515866910739224,fall
10/07/2020, 21:02:01,-9.176475,-1.1318051,3.694518,-0.04029667,0.31260446,-0.15386,9.956813354058252,0.35073960239607965,fall
10/07/2020, 21:02:01,-9.037691,-1.0600204,3.7064822,-0.04029667,0.31260446,-0.15386,9.825554139755978,0.35073960239607965,fall
10/07/2020, 21:02:01,-9.037691,-1.0600204,3.7064822,-0.028085556,0.31016225,-0.16485001,9.825554139755978,0.35237046373792386,fall
10/07/2020, 21:02:02,-10.102497,-0.22253251,0.89730847,-1.8792901,-0.91094893,-0.77296335,10.144709501944245,2.2268883188158064,fall
10/07/2020, 21:02:02,-10.102497,-0.22253251,0.89730847,-2.097869,-0.8975167,-0.80471224,10.144709501944245,2.419535505333419,fall
10/07/2020, 21:02:02,-10.454242,0.08853444,1.3734802,-2.097869,-0.8975167,-0.80471224,10.544451471308223,2.419535505333419,fall
10/07/2020, 21:02:02,-10.454242,0.08853444,1.3734802,-2.24196,-0.91217005,-0.8083756,10.544451471308223,2.5518444643849576,fall
10/07/2020, 21:02:02,-10.966306,0.27996024,1.5577276,-2.24196,-0.91217005,-0.8083756,11.079925738073335,2.5518444643849576,fall
10/07/2020, 21:02:02,-10.966306,0.27996024,1.5577276,-2.4104733,-0.9842156,-0.8755367,11.079925738073335,2.746930398593025,fall
10/07/2020, 21:02:02,-11.416157,0.22731815,1.5864414,-2.4104733,-0.9842156,-0.8755367,11.528100677067684,2.746930398593025,fall
10/07/2020, 21:02:02,-11.416157,0.22731815,1.5864414,-2.5570068,-1.1160955,-1.0086378,11.528100677067684,2.966699075251507,fall
10/07/2020, 21:02:02,-11.669796,-0.23449662,1.8927227,-2.5570068,-1.1160955,-1.0086378,11.82461527625059,2.966699075251507,fall
10/07/2020, 21:02:02,-11.669796,-0.23449662,1.8927227,-2.591198,-1.229659,-1.1551712,11.82461527625059,3.092052468428595,fall
10/07/2020, 21:02:02,-11.736795,-1.1246266,2.5004997,-2.591198,-1.229659,-1.1551712,12.052786018428048,3.092052468428595,fall
10/07/2020, 21:02:02,-11.736795,-1.1246266,2.5004997,-2.4446645,-1.2516389,-1.27484,12.052786018428048,3.0279037863522014,fall
10/07/2020, 21:02:02,-11.617154,-2.0889342,3.347559,-2.4446645,-1.2516389,-1.27484,12.268988018346112,3.0279037863522014,fall
10/07/2020, 21:02:02,-11.617154,-2.0889342,3.347559,-2.1393867,-1.1820356,-1.3664234,12.268988018346112,2.8002314466053715,fall
10/07/2020, 21:02:02,-11.3683,-2.902494,4.173083,-2.1393867,-1.1820356,-1.3664234,12.453005512404339,2.8002314466053715,fall
10/07/2020, 21:02:02,-11.3683,-2.902494,4.173083,-1.7803801,-1.06603,-1.4213734,12.453005512404339,2.5152486300887875,fall
10/07/2020, 21:02:02,-11.172089,-3.3930225,4.900501,-1.7803801,-1.06603,-1.4213734,12.662664568688047,2.5152486300887875,fall
10/07/2020, 21:02:02,-11.172089,-3.3930225,4.900501,-1.4824289,-0.91461223,-1.4592278,12.662664568688047,2.2723240921132475,fall
10/07/2020, 21:02:02,-11.062019,-3.629912,5.345566,-1.4824289,-0.91461223,-1.4592278,12.810917458777839,2.2723240921132475,fall
10/07/2020, 21:02:02,-11.062019,-3.629912,5.345566,-1.3322322,-0.79128003,-1.4873134,12.810917458777839,2.147805377619375,fall
10/07/2020, 21:02:03,-1.174876,0.51206404,-0.3804588,2.042919,3.6975245,2.7987869,1.336896419544473,5.067387244673939,fall
10/07/2020, 21:02:03,-4.749753,-1.2658032,1.1557333,2.042919,3.6975245,2.7987869,5.049567397411052,5.067387244673939,fall
10/07/2020, 21:02:03,-4.749753,-1.2658032,1.1557333,2.4434435,4.7195945,3.4020157,5.049567397411052,6.310205946548426,fall
10/07/2020, 21:02:03,-10.389636,-2.778067,1.8831514,2.4434435,4.7195945,3.4020157,10.918262368953082,6.310205946548426,fall
10/07/2020, 21:02:03,-10.389636,-2.778067,1.8831514,2.8073347,5.0834856,3.6462379,10.918262368953082,6.856967568904609,fall
10/07/2020, 21:02:03,-16.043877,-3.8285162,1.8089739,2.8073347,5.0834856,3.6462379,16.593248661227978,6.856967568904609,fall
10/07/2020, 21:02:03,-16.043877,-3.8285162,1.8089739,3.3165379,5.4131856,3.624258,16.593248661227978,7.3100785228061635,fall
10/07/2020, 21:02:03,-19.195223,-5.386244,5.74756,3.3165379,5.4131856,3.624258,20.748557760994707,7.3100785228061635,fall
10/07/2020, 21:02:03,-19.195223,-5.386244,5.74756,3.8049824,6.8821826,4.0504255,20.748557760994707,8.845805533072674,fall
10/07/2020, 21:02:03,-22.741386,-8.693125,12.02872,3.8049824,6.8821826,4.0504255,27.15568406023728,8.845805533072674,fall
10/07/2020, 21:02:03,-22.741386,-8.693125,12.02872,4.5327644,7.7162013,3.5986147,27.15568406023728,9.64550380816066,fall
10/07/2020, 21:02:03,-26.041088,-13.950156,11.236695,4.5327644,7.7162013,3.5986147,31.607094915855445,9.64550380816066,fall
10/07/2020, 21:02:03,-26.041088,-13.950156,11.236695,6.1788225,6.172717,1.8768479,31.607094915855445,8.933243639956212,fall
10/07/2020, 21:02:03,-27.172894,-19.094725,5.1493545,6.1788225,6.172717,1.8768479,33.60789346960851,8.933243639956212,fall
10/07/2020, 21:02:03,-27.172894,-19.094725,5.1493545,6.786936,5.6390915,0.91461223,33.60789346960851,8.871209952885003,fall
10/07/2020, 21:02:03,-29.766714,-13.787444,-2.5674987,6.786936,5.6390915,0.91461223,32.905059379747,8.871209952885003,fall
10/07/2020, 21:02:03,-29.766714,-13.787444,-2.5674987,5.845459,0.5678167,0.98055226,32.905059379747,5.954266473802254,fall
10/07/2020, 21:02:03,-49.706104,3.0005996,8.796016,5.845459,0.5678167,0.98055226,50.567482570678976,5.954266473802254,fall
10/07/2020, 21:02:03,-49.706104,3.0005996,8.796016,2.6082935,-1.2662922,0.7204556,50.567482570678976,2.9875989324087846,fall
10/07/2020, 21:02:03,-36.497723,11.186446,10.258031,2.6082935,-1.2662922,0.7204556,39.527807085560475,2.9875989324087846,fall
10/07/2020, 21:02:04,-8.563912,-1.7036897,4.0366917,0.058613338,-0.26986557,-0.018316668,9.619669101919051,0.2767642513878497,fall
10/07/2020, 21:02:04,-8.563912,-1.7036897,4.0366917,0.06105556,-0.27719223,-0.023201112,9.619669101919051,0.2847834406890834,fall
10/07/2020, 21:02:04,-8.6141615,-1.7563318,4.065406,0.06105556,-0.27719223,-0.023201112,9.685866212490073,0.2847834406890834,fall
10/07/2020, 21:02:04,-8.6141615,-1.7563318,4.065406,0.068382226,-0.29306668,-0.019537779,9.685866212490073,0.301572433743198,fall
10/07/2020, 21:02:04,-8.626125,-1.7778672,4.0701914,0.068382226,-0.29306668,-0.019537779,9.70243824911934,0.301572433743198,fall
10/07/2020, 21:02:04,-8.626125,-1.7778672,4.0701914,0.06960334,-0.3162678,-0.026864445,9.70243824911934,0.32494866849952553,fall
10/07/2020, 21:02:04,-8.616554,-1.7300107,4.065406,0.06960334,-0.3162678,-0.026864445,9.683257158495955,0.32494866849952553,fall
10/07/2020, 21:02:04,-8.616554,-1.7300107,4.065406,0.07448778,-0.34069002,-0.029306669,9.683257158495955,0.3499671386925661,fall
10/07/2020, 21:02:04,-8.6548395,-1.7156538,4.005585,0.07448778,-0.34069002,-0.029306669,9.689913708010788,0.3499671386925661,fall
10/07/2020, 21:02:04,-8.6548395,-1.7156538,4.005585,0.085477784,-0.3492378,-0.024422223,9.689913708010788,0.3603747178552061,fall
10/07/2020, 21:02:04,-8.575876,-1.6821543,4.0534415,0.085477784,-0.3492378,-0.024422223,9.633570702954652,0.3603747178552061,fall
10/07/2020, 21:02:04,-8.575876,-1.6821543,4.0534415,0.09768889,-0.35656446,-0.037854444,9.633570702954652,0.37163731522164606,fall
10/07/2020, 21:02:04,-8.504091,-1.7228323,4.182654,0.09768889,-0.35656446,-0.037854444,9.632357608435868,0.37163731522164606,fall
10/07/2020, 21:02:04,-8.504091,-1.7228323,4.182654,0.117226675,-0.3712178,-0.039075557,9.632357608435868,0.3912437068067315,fall
10/07/2020, 21:02:04,-8.506484,-1.7515461,4.220939,0.117226675,-0.3712178,-0.039075557,9.656319788860651,0.3912437068067315,fall
10/07/2020, 21:02:04,-8.506484,-1.7515461,4.220939,0.123332225,-0.37854445,-0.039075557,9.656319788860651,0.40004204443510577,fall
10/07/2020, 21:02:04,-8.4705925,-1.7084754,4.2257247,0.123332225,-0.37854445,-0.039075557,9.619073475251225,0.40004204443510577,fall
10/07/2020, 21:02:04,-8.4705925,-1.7084754,4.2257247,0.12577444,-0.39686114,-0.051286668,9.619073475251225,0.4194619101381677,fall
10/07/2020, 21:02:04,-8.480164,-1.6749759,4.2855453,0.12577444,-0.39686114,-0.051286668,9.648036969083163,0.4194619101381677,fall
10/07/2020, 21:02:04,-8.480164,-1.6749759,4.2855453,0.12821667,-0.40907225,-0.058613338,9.648036969083163,0.43268365276092563,fall
10/07/2020, 21:02:05,-8.054241,0.014356935,7.159325,-0.23689556,-0.73999333,0.25765446,10.77622119893599,0.818593587130776,fall
10/07/2020, 21:02:05,-8.051848,-0.011964113,6.2261243,-0.23689556,-0.73999333,0.25765446,10.178262602997918,0.818593587130776,fall
10/07/2020, 21:02:05,-8.051848,-0.011964113,6.2261243,-0.42372558,-0.71801335,0.25399113,10.178262602997918,0.8715492074474593,fall
10/07/2020, 21:02:05,-8.020741,-0.10289137,5.386244,-0.42372558,-0.71801335,0.25399113,9.662013389366123,0.8715492074474593,fall
10/07/2020, 21:02:05,-8.020741,-0.10289137,5.386244,-0.6056711,-0.6740534,0.20392556,9.662013389366123,0.9288547107553676,fall
10/07/2020, 21:02:05,-7.91785,-0.19142582,4.790431,-0.6056711,-0.6740534,0.20392556,9.256199118743261,0.9288547107553676,fall
10/07/2020, 21:02:05,-7.91785,-0.19142582,4.790431,-0.77296335,-0.63986224,0.17950334,9.256199118743261,1.0193711129829623,fall
10/07/2020, 21:02:05,-7.877172,-0.33020952,4.706682,-0.77296335,-0.63986224,0.17950334,9.182142142302574,1.0193711129829623,fall
10/07/2020, 21:02:05,-7.877172,-0.33020952,4.706682,-0.9732256,-0.62643003,0.18194556,9.182142142302574,1.1716171865984986,fall
10/07/2020, 21:02:05,-7.879565,-0.46660042,5.0679984,-0.9732256,-0.62643003,0.18194556,9.380291289022441,1.1716171865984986,fall
10/07/2020, 21:02:05,-7.879565,-0.46660042,5.0679984,-1.1429601,-0.56293225,0.1856089,9.380291289022441,1.287517420434196,fall
10/07/2020, 21:02:05,-7.8436728,-0.57427746,5.278567,-1.1429601,-0.56293225,0.1856089,9.471867012586067,1.287517420434196,fall
10/07/2020, 21:02:05,-7.8436728,-0.57427746,5.278567,-1.1954678,-0.45791668,0.19049335,9.471867012586067,1.294263778956775,fall
10/07/2020, 21:02:05,-7.812566,-0.61734825,5.0775695,-1.1954678,-0.45791668,0.19049335,9.3380412920964,1.294263778956775,fall
10/07/2020, 21:02:05,-7.812566,-0.61734825,5.0775695,-1.0892311,-0.38220778,0.17217667,9.3380412920964,1.1671127011084599,fall
10/07/2020, 21:02:05,-7.688139,-0.6723832,4.8119664,-1.0892311,-0.38220778,0.17217667,9.094756767976003,1.1671127011084599,fall
10/07/2020, 21:02:05,-7.688139,-0.6723832,4.8119664,-0.9744467,-0.3284789,0.10013112,9.094756767976003,1.0331848954907665,fall
10/07/2020, 21:02:05,-7.5637126,-0.7106683,4.644469,-0.9744467,-0.3284789,0.10013112,8.904262350458948,1.0331848954907665,fall
10/07/2020, 21:02:05,-7.5637126,-0.7106683,4.644469,-0.9500245,-0.27108666,-0.0012211112,8.904262350458948,0.9879453391711612,fall
10/07/2020, 21:02:05,-7.513463,-0.7465607,4.6229334,-0.9500245,-0.27108666,-0.0012211112,8.85330404614199,0.9879453391711612,fall
10/07/2020, 21:02:06,-6.6089764,-2.306681,3.5820556,-0.2075889,1.0159645,0.45547447,7.863235182492604,1.1325784832379533,fall
10/07/2020, 21:02:06,-6.6089764,-2.306681,3.5820556,-0.16485001,1.0440501,0.47379112,7.863235182492604,1.1583152247978052,fall
10/07/2020, 21:02:06,-6.384051,-1.942972,4.2352962,-0.16485001,1.0440501,0.47379112,7.903731998492674,1.1583152247978052,fall
10/07/2020, 21:02:06,-6.384051,-1.942972,4.2352962,-0.20636779,1.0904523,0.47745445,7.903731998492674,1.2081542402575531,fall
10/07/2020, 21:02:06,-6.963114,-2.1942184,4.807181,-0.20636779,1.0904523,0.47745445,8.74119762857152,1.2081542402575531,fall
10/07/2020, 21:02:06,-6.963114,-2.1942184,4.807181,-0.26864445,1.1063267,0.4798967,8.74119762857152,1.2354875331006139,fall
10/07/2020, 21:02:06,-7.9657063,-2.7876384,4.855037,-0.26864445,1.1063267,0.4798967,9.736261703339139,1.2354875331006139,fall
10/07/2020, 21:02:06,-7.9657063,-2.7876384,4.855037,-0.29795113,1.0672512,0.48478112,9.736261703339139,1.2094679587684598,fall
10/07/2020, 21:02:06,-8.865408,-2.833102,4.395615,-0.29795113,1.0672512,0.48478112,10.292878946003508,1.2094679587684598,fall
10/07/2020, 21:02:06,-8.865408,-2.833102,4.395615,-0.3309211,0.9854367,0.44692668,10.292878946003508,1.131520079235999,fall
10/07/2020, 21:02:06,-9.188439,-2.6153553,3.900301,-0.3309211,0.9854367,0.44692668,10.318907348824212,1.131520079235999,fall
10/07/2020, 21:02:06,-9.188439,-2.6153553,3.900301,-0.3382478,0.87065226,0.36633334,10.318907348824212,1.003318018377724,fall
10/07/2020, 21:02:06,-9.138189,-2.4358935,3.6466618,-0.3382478,0.87065226,0.36633334,10.135986546385906,1.003318018377724,fall
10/07/2020, 21:02:06,-9.138189,-2.4358935,3.6466618,-0.26620224,0.71801335,0.24178001,10.135986546385906,0.8030344781743562,fall
10/07/2020, 21:02:06,-9.12144,-2.0937197,3.1513474,-0.26620224,0.71801335,0.24178001,9.874984514549567,0.8030344781743562,fall
10/07/2020, 21:02:06,-9.12144,-2.0937197,3.1513474,-0.19293556,0.5775856,0.16607112,9.874984514549567,0.6311963597687348,fall
10/07/2020, 21:02:06,-8.836694,-1.308874,2.6464617,-0.19293556,0.5775856,0.16607112,9.31687004921208,0.6311963597687348,fall
10/07/2020, 21:02:06,-8.836694,-1.308874,2.6464617,-0.15752333,0.5018767,0.035412222,9.31687004921208,0.5272076062927289,fall
10/07/2020, 21:02:06,-8.456235,-0.85184485,3.048456,-0.15752333,0.5018767,0.035412222,9.029209963722892,0.5272076062927289,fall
10/07/2020, 21:02:06,-8.456235,-0.85184485,3.048456,-0.13676445,0.48844448,-0.070824444,9.029209963722892,0.5121509783517225,fall
10/07/2020, 21:02:07,-7.867601,-1.7491534,5.4460645,0.34557447,-0.63131446,0.02075889,9.727193838349617,0.7200073524827462,fall
10/07/2020, 21:02:07,-7.9130645,-1.8113668,5.493921,0.34557447,-0.63131446,0.02075889,9.802081662777503,0.7200073524827462,fall
10/07/2020, 21:02:07,-7.9130645,-1.8113668,5.493921,0.3724389,-0.6105556,0.025643334,9.802081662777503,0.7156440791216345,fall
10/07/2020, 21:02:07,-7.9968133,-1.8089739,5.5800624,0.3724389,-0.6105556,0.025643334,9.917585683122981,0.7156440791216345,fall
10/07/2020, 21:02:07,-7.9968133,-1.8089739,5.5800624,0.40296668,-0.59468114,0.04029667,9.917585683122981,0.7194801095616362,fall
10/07/2020, 21:02:07,-7.9633136,-1.7850457,5.7451673,0.40296668,-0.59468114,0.04029667,9.98036563776571,0.7194801095616362,fall
10/07/2020, 21:02:07,-7.9633136,-1.7850457,5.7451673,0.40663,-0.5775856,0.064718895,9.98036563776571,0.7093247491480973,fall
10/07/2020, 21:02:07,-7.946564,-1.820938,5.9653068,0.40663,-0.5775856,0.064718895,10.101909841250864,0.7093247491480973,fall
10/07/2020, 21:02:07,-7.946564,-1.820938,5.9653068,0.43960002,-0.5128667,0.085477784,10.101909841250864,0.6808721296681749,fall
10/07/2020, 21:02:07,-7.944171,-1.942972,6.128019,0.43960002,-0.5128667,0.085477784,10.219471962411365,0.6808721296681749,fall
10/07/2020, 21:02:07,-7.944171,-1.942972,6.128019,0.46035892,-0.4908867,0.091583334,10.219471962411365,0.6791815522022171,fall
10/07/2020, 21:02:07,-7.9657063,-1.9764715,6.1998034,0.46035892,-0.4908867,0.091583334,10.28574153858886,0.6791815522022171,fall
10/07/2020, 21:02:07,-7.9657063,-1.9764715,6.1998034,0.5104245,-0.44326335,0.09280445,10.28574153858886,0.6823695694679227,fall
10/07/2020, 21:02:07,-8.013563,-1.9262222,6.2309103,0.5104245,-0.44326335,0.09280445,10.332074797571712,0.6823695694679227,fall
10/07/2020, 21:02:07,-8.013563,-1.9262222,6.2309103,0.57636446,-0.41273558,0.09646778,10.332074797571712,0.7154388026615923,fall
10/07/2020, 21:02:07,-8.063812,-1.7635103,6.195018,0.57636446,-0.41273558,0.09646778,10.320527242506198,0.7154388026615923,fall
10/07/2020, 21:02:07,-8.063812,-1.7635103,6.195018,0.61788225,-0.3834289,0.10135223,10.320527242506198,0.7342128260508652,fall
10/07/2020, 21:02:07,-8.037491,-1.564906,6.3050876,0.61788225,-0.3834289,0.10135223,10.334617510628044,0.7342128260508652,fall
10/07/2020, 21:02:07,-8.037491,-1.564906,6.3050876,0.64841,-0.35290113,0.102573335,10.334617510628044,0.7453160767449738,fall
10/07/2020, 21:02:07,-8.023134,-1.6630118,6.573084,0.64841,-0.35290113,0.102573335,10.504366842920941,0.7453160767449738,fall
10/07/2020, 21:02:08,-1.7850457,-4.0295134,8.626125,-0.081814446,-0.40663,-0.029306669,9.686764399043405,0.4158129975024748,fall
10/07/2020, 21:02:08,-1.7850457,-4.0295134,8.626125,-0.18072446,-0.4163989,-0.070824444,9.686764399043405,0.45941863883055184,fall
10/07/2020, 21:02:08,-1.6151553,-3.9888353,8.5112705,-0.18072446,-0.4163989,-0.070824444,9.537361271061991,0.45941863883055184,fall
10/07/2020, 21:02:08,-1.6151553,-3.9888353,8.5112705,-0.19904111,-0.38953447,-0.10379445,9.537361271061991,0.4495862077515985,fall
10/07/2020, 21:02:08,-1.5481563,-4.089334,8.58784,-0.19904111,-0.38953447,-0.10379445,9.636930927849804,0.4495862077515985,fall
10/07/2020, 21:02:08,-1.5481563,-4.089334,8.58784,-0.14164889,-0.3492378,-0.11478445,9.636930927849804,0.39396309236875293,fall
10/07/2020, 21:02:08,-1.5170496,-4.278367,8.671589,-0.14164889,-0.3492378,-0.11478445,9.787865850211032,0.39396309236875293,fall
10/07/2020, 21:02:08,-1.5170496,-4.278367,8.671589,-0.054950003,-0.30649891,-0.11234222,9.787865850211032,0.33103151336396563,fall
10/07/2020, 21:02:08,-1.4859428,-4.3669014,8.740981,-0.054950003,-0.30649891,-0.11234222,9.883451045463827,0.33103151336396563,fall
10/07/2020, 21:02:08,-1.4859428,-4.3669014,8.740981,0.014653334,-0.27719223,-0.10135223,9.883451045463827,0.29550385753378655,fall
10/07/2020, 21:02:08,-1.3399807,-4.371687,8.819944,0.014653334,-0.27719223,-0.10135223,9.934717605035942,0.29550385753378655,fall
10/07/2020, 21:02:08,-1.3399807,-4.371687,8.819944,0.070824444,-0.25277,-0.09646778,9.934717605035942,0.27966910874054224,fall
10/07/2020, 21:02:08,-1.2203395,-4.278367,8.953942,0.070824444,-0.25277,-0.09646778,9.99833665302855,0.27966910874054224,fall
10/07/2020, 21:02:08,-1.2203395,-4.278367,8.953942,0.12211112,-0.23689556,-0.11966889,9.99833665302855,0.29214940777671006,fall
10/07/2020, 21:02:08,-1.2346965,-4.2448673,9.109476,0.12211112,-0.23689556,-0.11966889,10.125508811693548,0.29214940777671006,fall
10/07/2020, 21:02:08,-1.2346965,-4.2448673,9.109476,0.14653334,-0.23811668,-0.16607112,10.125508811693548,0.32519408007512074,fall
10/07/2020, 21:02:08,-1.3926228,-4.316652,9.162118,0.14653334,-0.23811668,-0.16607112,10.223369638475473,0.32519408007512074,fall
10/07/2020, 21:02:08,-1.3926228,-4.316652,9.162118,0.13920668,-0.25521225,-0.1965989,10.223369638475473,0.35094574897129444,fall
10/07/2020, 21:02:08,-1.5672989,-4.3908296,9.044869,0.13920668,-0.25521225,-0.1965989,10.175729602247387,0.35094574897129444,fall
10/07/2020, 21:02:08,-1.5672989,-4.3908296,9.044869,0.091583334,-0.27475002,-0.19171445,10.175729602247387,0.34731759730224443,fall
10/07/2020, 21:02:09,-12.57189,-2.4215364,6.8195443,2.2248645,5.00045,3.0588834,14.505944936947738,6.269871716564528,fall
10/07/2020, 21:02:09,-12.57189,-2.4215364,6.8195443,2.5728812,5.2141447,3.1602356,14.505944936947738,6.617712000816842,fall
10/07/2020, 21:02:09,-13.768302,-2.7589245,6.5682983,2.5728812,5.2141447,3.1602356,15.50226907125382,6.617712000816842,fall
10/07/2020, 21:02:09,-13.768302,-2.7589245,6.5682983,3.0698736,4.7061625,2.9624157,15.50226907125382,6.352007204549409,fall
10/07/2020, 21:02:09,-17.694923,-6.6352973,8.087741,3.0698736,4.7061625,2.9624157,20.55599759770528,6.352007204549409,fall
10/07/2020, 21:02:09,-17.694923,-6.6352973,8.087741,1.72543,2.9038024,1.3102523,20.55599759770528,3.622973666301632,fall
10/07/2020, 21:02:09,-29.632715,-12.861422,12.655639,1.72543,2.9038024,1.3102523,34.69407971946504,3.622973666301632,fall
10/07/2020, 21:02:09,-29.632715,-12.861422,12.655639,-1.9537779,-1.0855678,-0.9292656,34.69407971946504,2.42058675243089,fall
10/07/2020, 21:02:09,-41.678185,-15.433706,20.994625,-1.9537779,-1.0855678,-0.9292656,49.15327696473257,2.42058675243089,fall
10/07/2020, 21:02:09,-41.678185,-15.433706,20.994625,-2.5325844,-0.45059,1.10999,49.15327696473257,2.8016232886977446,fall
10/07/2020, 21:02:09,-29.833714,-19.271793,17.594425,-2.5325844,-0.45059,1.10999,39.636047744057194,2.8016232886977446,fall
10/07/2020, 21:02:09,-29.833714,-19.271793,17.594425,-0.46524334,0.45303226,2.0795524,39.636047744057194,2.178583903273982,fall
10/07/2020, 21:02:09,-24.949963,-13.227524,8.879765,-0.46524334,0.45303226,2.0795524,29.60267283712042,2.178583903273982,fall
10/07/2020, 21:02:09,-24.949963,-13.227524,8.879765,1.4262578,0.14287001,1.7034501,29.60267283712042,2.2262896213916274,fall
10/07/2020, 21:02:09,-29.319256,-1.8903298,7.446464,1.4262578,0.14287001,1.7034501,30.309106490894862,2.2262896213916274,fall
10/07/2020, 21:02:09,-29.319256,-1.8903298,7.446464,1.4812078,-0.09280445,1.4225945,30.309106490894862,2.0558123939342834,fall
10/07/2020, 21:02:09,-23.150558,11.523834,7.7216387,1.4812078,-0.09280445,1.4225945,26.988345943643655,2.0558123939342834,fall
10/07/2020, 21:02:09,-23.150558,11.523834,7.7216387,-1.1283067,-0.5287411,-0.29795113,26.988345943643655,1.2811784280884737,fall
10/07/2020, 21:02:09,-15.393028,13.186846,10.080962,-1.1283067,-0.5287411,-0.29795113,22.637668146204533,1.2811784280884737,fall
10/07/2020, 21:02:09,-15.393028,13.186846,10.080962,-3.085748,-0.10867889,-0.7717422,22.637668146204533,3.1826463231944317,fall
10/07/2020, 21:02:10,-7.932207,-2.7565317,7.618747,1.174709,-0.12699556,0.28085557,11.338592774933327,1.2144747295392841,fall
10/07/2020, 21:02:10,-7.920243,-2.5938199,8.147561,1.174709,-0.12699556,0.28085557,11.655080380999719,1.2144747295392841,fall
10/07/2020, 21:02:10,-7.920243,-2.5938199,8.147561,1.3639811,-0.039075557,0.22468445,11.655080380999719,1.3829152239888851,fall
10/07/2020, 21:02:10,-8.274381,-2.6201408,8.516056,1.3639811,-0.039075557,0.22468445,12.159511680037124,1.3829152239888851,fall
10/07/2020, 21:02:10,-8.274381,-2.6201408,8.516056,1.5373789,-0.0048844446,0.19537778,12.159511680037124,1.5497516703680196,fall
10/07/2020, 21:02:10,-8.860622,-2.6703901,8.097312,1.5373789,-0.0048844446,0.19537778,12.296669226286435,1.5497516703680196,fall
10/07/2020, 21:02:10,-8.860622,-2.6703901,8.097312,1.6680379,-0.08792,0.2295689,12.296669226286435,1.6860552224675698,fall
10/07/2020, 21:02:10,-9.554541,-2.6273193,7.719246,1.6680379,-0.08792,0.2295689,12.561003584575463,1.6860552224675698,fall
10/07/2020, 21:02:10,-9.554541,-2.6273193,7.719246,1.7266512,-0.1856089,0.27475002,12.561003584575463,1.7581986733490116,fall
10/07/2020, 21:02:10,-10.162318,-2.4478576,7.475178,1.7266512,-0.1856089,0.27475002,12.850797692655533,1.7581986733490116,fall
10/07/2020, 21:02:10,-10.162318,-2.4478576,7.475178,1.6973445,-0.2845189,0.30649891,12.850797692655533,1.7481049970330673,fall
10/07/2020, 21:02:10,-10.614561,-2.1894326,7.2119675,1.6973445,-0.2845189,0.30649891,13.018256292838274,1.7481049970330673,fall
10/07/2020, 21:02:10,-10.614561,-2.1894326,7.2119675,1.6106457,-0.4163989,0.31504667,13.018256292838274,1.6931691803362177,fall
10/07/2020, 21:02:10,-10.786844,-1.8687944,6.9894347,1.6106457,-0.4163989,0.31504667,12.988479483990295,1.6931691803362177,fall
10/07/2020, 21:02:10,-10.786844,-1.8687944,6.9894347,1.5581379,-0.5030978,0.3394689,12.988479483990295,1.67216631831895,fall
10/07/2020, 21:02:10,-10.636097,-1.4452649,7.30768,1.5581379,-0.5030978,0.3394689,12.985281592575381,1.67216631831895,fall
10/07/2020, 21:02:10,-10.636097,-1.4452649,7.30768,1.5630223,-0.5910178,0.3370267,12.985281592575381,1.7046781451663326,fall
10/07/2020, 21:02:10,-10.246066,-1.2442678,8.3581295,1.5630223,-0.5910178,0.3370267,13.281129528907112,1.7046781451663326,fall
10/07/2020, 21:02:10,-10.246066,-1.2442678,8.3581295,1.5105145,-0.68260115,0.33214223,13.281129528907112,1.6905374431458133,fall
10/07/2020, 21:02:10,-9.853643,-1.4763715,9.047262,1.5105145,-0.68260115,0.33214223,13.458339966282246,1.6905374431458133,fall
10/07/2020, 21:02:11,5.611169,-2.416751,4.4315076,-0.4921078,-0.80471224,-0.14775445,7.547460529166344,0.9547582176355471,fall
10/07/2020, 21:02:11,5.611169,-2.416751,4.4315076,-0.39075556,-0.6935911,-0.1526389,7.547460529166344,0.8105906380649637,fall
10/07/2020, 21:02:11,5.7858453,-2.5411777,4.347759,-0.39075556,-0.6935911,-0.1526389,7.670501696616916,0.8105906380649637,fall
10/07/2020, 21:02:11,5.7858453,-2.5411777,4.347759,-0.29306668,-0.56293225,-0.18072446,7.670501696616916,0.6598803905558187,fall
