DATE,TIME,ax,ay,az,gx,gy,gz,ma,mg,label
10/07/2020, 21:36:46,-0.16271193,2.9383862,8.662018,0.1306589,-0.015874445,0.08792,9.148286254689646,0.1582835167239302,fall
10/07/2020, 21:36:46,-0.13399807,3.1130621,8.611769,0.1306589,-0.015874445,0.08792,9.158147843334266,0.1582835167239302,fall
10/07/2020, 21:36:46,-0.13399807,3.1130621,8.611769,0.048844445,-0.04029667,0.07326667,9.158147843334266,0.09683804222336098,fall
10/07/2020, 21:36:47,-0.023928227,3.199204,8.817552,0.048844445,-0.04029667,0.07326667,9.380015726775817,0.09683804222336098,fall
10/07/2020, 21:36:47,-0.023928227,3.199204,8.817552,-0.05617111,-0.04396,0.03174889,9.380015726775817,0.07807475638493101,fall
10/07/2020, 21:36:47,0.02871387,3.3236306,9.030513,-0.05617111,-0.04396,0.03174889,9.622759805191592,0.07807475638493101,fall
10/07/2020, 21:36:47,0.02871387,3.3236306,9.030513,-0.13188,-0.06227667,-0.05250778,9.622759805191592,0.15500898347026767,fall
10/07/2020, 21:36:47,0.07178468,3.4217365,9.162118,-0.13188,-0.06227667,-0.05250778,9.780482557042273,0.15500898347026767,fall
10/07/2020, 21:36:47,0.07178468,3.4217365,9.162118,-0.15630223,-0.06349778,-0.10867889,9.780482557042273,0.20068247697619412,fall
10/07/2020, 21:36:47,0.1363909,3.3906298,9.353543,-0.15630223,-0.06349778,-0.10867889,9.950062543634452,0.20068247697619412,fall
10/07/2020, 21:36:47,0.1363909,3.3906298,9.353543,-0.12455334,-0.037854444,-0.11112112,9.950062543634452,0.17115605674278705,fall
10/07/2020, 21:36:47,0.17706887,3.251846,9.480363,-0.12455334,-0.037854444,-0.11112112,10.024127735068323,0.17115605674278705,fall
10/07/2020, 21:36:47,0.17706887,3.251846,9.480363,-0.059834447,0.0012211112,-0.06227667,10.024127735068323,0.0863714976941845,fall
10/07/2020, 21:36:47,0.16510476,3.1465619,9.537791,-0.059834447,0.0012211112,-0.06227667,10.044778399596934,0.0863714976941845,fall
10/07/2020, 21:36:47,0.16510476,3.1465619,9.537791,-0.0048844446,0.028085556,-0.024422223,10.044778399596934,0.037537996917797606,fall
10/07/2020, 21:36:47,0.11964113,3.1489546,9.506684,-0.0048844446,0.028085556,-0.024422223,10.015352001007226,0.037537996917797606,fall
10/07/2020, 21:36:47,0.11964113,3.1489546,9.506684,0.013432222,0.042738892,-0.026864445,10.015352001007226,0.05223730368886299,fall
10/07/2020, 21:36:47,0.083748795,3.2063823,9.444471,0.013432222,0.042738892,-0.026864445,9.974263903039406,0.05223730368886299,fall
10/07/2020, 21:36:47,0.083748795,3.2063823,9.444471,-0.0036633336,0.046402223,-0.047623336,9.974263903039406,0.06659255598088276,fall
10/07/2020, 21:36:47,0.014356935,3.2470603,9.375079,-0.0036633336,0.046402223,-0.047623336,9.921477504300192,0.06659255598088276,fall
10/07/2020, 21:36:47,0.014356935,3.2470603,9.375079,-0.04396,0.035412222,-0.08059334,9.921477504300192,0.09839610592752716,fall
10/07/2020, 21:36:47,-0.069391854,3.2231321,9.29133,-0.04396,0.035412222,-0.08059334,9.834745315477894,0.09839610592752716,fall
10/07/2020, 21:36:47,-0.069391854,3.2231321,9.29133,-0.07448778,0.019537779,-0.09646778,9.834745315477894,0.12343494974654765,fall
10/07/2020, 21:36:48,3.3906298,6.6185474,10.975878,1.8988279,-1.07702,-0.16362889,13.257881922801499,2.1891308854340776,fall
10/07/2020, 21:36:48,3.694518,6.7525454,11.066805,1.8988279,-1.07702,-0.16362889,13.480374738444231,2.1891308854340776,fall
10/07/2020, 21:36:48,3.694518,6.7525454,11.066805,1.8072445,-0.88896894,-0.37610224,13.480374738444231,2.0488659065840507,fall
10/07/2020, 21:36:48,3.897908,7.0133634,10.863415,1.8072445,-0.88896894,-0.37610224,13.505359400724002,2.0488659065840507,fall
10/07/2020, 21:36:48,3.897908,7.0133634,10.863415,1.6069822,-0.65085226,-0.6117767,13.505359400724002,1.8385514139599428,fall
10/07/2020, 21:36:48,3.8285162,7.2215385,10.657632,1.6069822,-0.65085226,-0.6117767,13.43105627785978,1.8385514139599428,fall
10/07/2020, 21:36:48,3.8285162,7.2215385,10.657632,1.3542123,-0.48722336,-0.87065226,13.43105627785978,1.682056142046108,fall
10/07/2020, 21:36:48,3.5533416,7.1449685,10.492527,1.3542123,-0.48722336,-0.87065226,13.18218247249153,1.682056142046108,fall
10/07/2020, 21:36:48,3.5533416,7.1449685,10.492527,1.1429601,-0.38953447,-1.0880101,13.18218247249153,1.6253801861365422,fall
10/07/2020, 21:36:48,3.2973096,6.786045,10.2317095,1.1429601,-0.38953447,-1.0880101,12.71261332237876,1.6253801861365422,fall
10/07/2020, 21:36:48,3.2973096,6.786045,10.2317095,1.1612767,-0.32237336,-1.16494,12.71261332237876,1.6761781992658265,fall
10/07/2020, 21:36:48,3.1369905,6.463014,9.949356,1.1612767,-0.32237336,-1.16494,12.27195777667334,1.6761781992658265,fall
10/07/2020, 21:36:48,3.1369905,6.463014,9.949356,1.460449,-0.27963445,-1.0501556,12.27195777667334,1.82042124657275,fall
10/07/2020, 21:36:48,2.8713872,6.0011992,9.659825,1.460449,-0.27963445,-1.0501556,11.729087023046173,1.82042124657275,fall
10/07/2020, 21:36:48,2.8713872,6.0011992,9.659825,1.9330189,-0.34191114,-0.8584412,11.729087023046173,2.142518758581017,fall
10/07/2020, 21:36:48,2.8235307,5.790631,9.360723,1.9330189,-0.34191114,-0.8584412,11.363399897707536,2.142518758581017,fall
10/07/2020, 21:36:48,2.8235307,5.790631,9.360723,2.3884935,-0.48356003,-0.72900337,11.363399897707536,2.543654377513291,fall
10/07/2020, 21:36:48,2.9958138,5.8600225,8.930014,2.3884935,-0.48356003,-0.72900337,11.093237072065058,2.543654377513291,fall
10/07/2020, 21:36:48,2.9958138,5.8600225,8.930014,2.6302733,-0.70580226,-0.6764956,11.093237072065058,2.806089984256075,fall
10/07/2020, 21:36:48,3.1633115,6.195018,8.549556,2.6302733,-0.70580226,-0.6764956,11.021782490243503,2.806089984256075,fall
10/07/2020, 21:36:49,-1.0767702,7.448857,4.4602213,0.6142189,-0.46280113,-0.085477784,8.74862709675755,0.7737933715884802,fall
10/07/2020, 21:36:49,-1.1246266,7.4010005,4.613362,0.6142189,-0.46280113,-0.085477784,8.793332752348938,0.7737933715884802,fall
10/07/2020, 21:36:49,-1.1246266,7.4010005,4.613362,0.88286334,-0.5519422,-0.064718895,8.793332752348938,1.0432048896413033,fall
10/07/2020, 21:36:49,-1.0073783,7.503892,4.76411,0.88286334,-0.5519422,-0.064718895,8.945387100279637,1.0432048896413033,fall
10/07/2020, 21:36:49,-1.0073783,7.503892,4.76411,1.0819045,-0.5360678,0.057392225,8.945387100279637,1.2087927653186135,fall
10/07/2020, 21:36:49,-1.2011969,7.3842506,4.833502,1.0819045,-0.5360678,0.057392225,8.906894596016702,1.2087927653186135,fall
10/07/2020, 21:36:49,-1.2011969,7.3842506,4.833502,1.1893623,-0.62765115,0.12577444,8.906894596016702,1.3506842095375753,fall
10/07/2020, 21:36:49,-1.0887343,7.446464,4.685147,1.1893623,-0.62765115,0.12577444,8.864861530216265,1.3506842095375753,fall
10/07/2020, 21:36:49,-1.0887343,7.446464,4.685147,1.2821667,-0.65085226,0.12699556,8.864861530216265,1.4434985409758847,fall
10/07/2020, 21:36:49,-0.77766734,7.8029947,4.5248275,1.2821667,-0.65085226,0.12699556,9.053483139130865,1.4434985409758847,fall
10/07/2020, 21:36:49,-0.77766734,7.8029947,4.5248275,1.2052367,-0.68260115,0.1306589,9.053483139130865,1.3912625635812275,fall
10/07/2020, 21:36:49,-0.63888365,8.200203,4.2568316,1.2052367,-0.68260115,0.1306589,9.261323678015689,1.3912625635812275,fall
10/07/2020, 21:36:49,-0.63888365,8.200203,4.2568316,1.0611455,-0.7021389,0.12821667,9.261323678015689,1.2788543372166254,fall
10/07/2020, 21:36:49,-0.5383851,8.551949,4.1276193,1.0611455,-0.7021389,0.12821667,9.51119988616613,1.2788543372166254,fall
10/07/2020, 21:36:49,-0.5383851,8.551949,4.1276193,1.0880101,-0.73633003,0.12821667,9.51119988616613,1.3199952079659105,fall
10/07/2020, 21:36:49,-0.44027936,8.62134,4.0438704,1.0880101,-0.73633003,0.12821667,9.532797807560735,1.3199952079659105,fall
10/07/2020, 21:36:49,-0.44027936,8.62134,4.0438704,1.2662922,-0.78273225,0.16362889,9.532797807560735,1.4976448707148526,fall
10/07/2020, 21:36:49,-0.33499518,8.578269,3.859623,1.2662922,-0.78273225,0.16362889,9.41252411668659,1.4976448707148526,fall
10/07/2020, 21:36:49,-0.33499518,8.578269,3.859623,1.6887968,-0.8950745,0.1965989,9.41252411668659,1.9214171741803394,fall
10/07/2020, 21:36:49,-0.56470615,8.523234,3.5294135,1.6887968,-0.8950745,0.1965989,9.242357734733709,1.9214171741803394,fall
10/07/2020, 21:36:50,-71.12904,30.872198,-51.90511,1.5288311,-0.48356003,-2.8476312,93.30902335091768,3.268051169689813,fall
10/07/2020, 21:36:50,-71.12904,30.872198,-51.90511,-0.9463611,-0.9976478,1.7693901,93.30902335091768,2.240902028752073,fall
10/07/2020, 21:36:50,-70.79644,54.63771,-57.810596,-0.9463611,-0.9976478,1.7693901,106.48699645749085,2.240902028752073,fall
10/07/2020, 21:36:50,-70.79644,54.63771,-57.810596,-0.3931978,-0.13432223,2.4910667,106.48699645749085,2.525482181539319,fall
10/07/2020, 21:36:50,-57.56892,34.626537,-52.802418,-0.3931978,-0.13432223,2.4910667,85.44748664141781,2.525482181539319,fall
10/07/2020, 21:36:50,-57.56892,34.626537,-52.802418,-1.1368545,-4.7391324,-1.4360267,85.44748664141781,5.080746680162021,fall
10/07/2020, 21:36:50,-38.244484,23.471197,-38.840298,-1.1368545,-4.7391324,-1.4360267,59.347336691803655,5.080746680162021,fall
10/07/2020, 21:36:50,-38.244484,23.471197,-38.840298,-2.6314945,-5.138436,0.8205867,59.347336691803655,5.831093277377849,fall
10/07/2020, 21:36:50,-22.229322,28.055845,-17.81935,-2.6314945,-5.138436,0.8205867,39.9850276756234,5.831093277377849,fall
10/07/2020, 21:36:50,-22.229322,28.055845,-17.81935,-4.6206846,-5.241009,-2.8537369,39.9850276756234,7.547364994678318,fall
10/07/2020, 21:36:50,-20.2696,19.94657,-8.382058,-4.6206846,-5.241009,-2.8537369,29.647617306510835,7.547364994678318,fall
10/07/2020, 21:36:50,-20.2696,19.94657,-8.382058,-4.134682,-7.8602924,-2.5985246,29.647617306510835,9.25376268440986,fall
10/07/2020, 21:36:50,-14.790037,12.916456,-3.0604203,-4.134682,-7.8602924,-2.5985246,19.87325370082629,9.25376268440986,fall
10/07/2020, 21:36:50,-14.790037,12.916456,-3.0604203,-2.922119,-6.0151935,-3.6877558,19.87325370082629,7.636810478168337,fall
10/07/2020, 21:36:50,-11.416157,6.2380886,-0.930808,-2.922119,-6.0151935,-3.6877558,13.042575987727162,7.636810478168337,fall
10/07/2020, 21:36:50,-11.416157,6.2380886,-0.930808,-1.0867889,-7.060465,-4.19818,13.042575987727162,8.285891086853251,fall
10/07/2020, 21:36:50,-6.1591253,5.407779,-5.682954,-1.0867889,-7.060465,-4.19818,9.973708695842806,8.285891086853251,fall
10/07/2020, 21:36:50,-6.1591253,5.407779,-5.682954,-2.24196,-6.018857,-3.8501635,9.973708695842806,7.488443305554193,fall
10/07/2020, 21:36:50,-5.8241305,-0.4953143,3.2279177,-2.24196,-6.018857,-3.8501635,6.677221371056729,7.488443305554193,fall
10/07/2020, 21:36:50,-5.8241305,-0.4953143,3.2279177,-2.394599,-3.4081213,-3.5448856,6.677221371056729,5.469516383567721,fall
10/07/2020, 21:36:51,-11.478371,-3.1609187,0.8566305,0.3260367,0.037854444,-3.4203324,11.936423923689683,3.4360452306739413,fall
10/07/2020, 21:36:51,-11.478371,-3.1609187,0.8566305,0.8743156,0.16607112,-2.2444024,11.936423923689683,2.4144046036346563,fall
10/07/2020, 21:36:51,-11.511869,-4.1922255,0.3469593,0.8743156,0.16607112,-2.2444024,12.2563564248392,2.4144046036346563,fall
10/07/2020, 21:36:51,-11.511869,-4.1922255,0.3469593,1.0403867,0.23567446,-1.2675134,12.2563564248392,1.656664447378718,fall
10/07/2020, 21:36:51,-11.82533,-4.24726,0.3278167,1.0403867,0.23567446,-1.2675134,12.569212644727852,1.656664447378718,fall
10/07/2020, 21:36:51,-11.82533,-4.24726,0.3278167,0.80593336,0.3394689,-0.7863956,12.569212644727852,1.176089180648647,fall
10/07/2020, 21:36:51,-12.100504,-3.8213377,0.28953153,0.80593336,0.3394689,-0.7863956,12.692858049994383,1.176089180648647,fall
10/07/2020, 21:36:51,-12.100504,-3.8213377,0.28953153,0.67039,0.34679556,-0.70458114,12.692858049994383,1.032533055140596,fall
10/07/2020, 21:36:51,-12.035898,-3.1130621,0.13399807,0.67039,0.34679556,-0.70458114,12.432697095890658,1.032533055140596,fall
10/07/2020, 21:36:51,-12.035898,-3.1130621,0.13399807,0.6227667,0.33214223,-0.82425004,12.432697095890658,1.0851474211686192,fall
10/07/2020, 21:36:51,-11.619547,-2.4047868,0.06460621,0.6227667,0.33214223,-0.82425004,11.865961552782881,1.0851474211686192,fall
10/07/2020, 21:36:51,-11.619547,-2.4047868,0.06460621,0.54950005,0.33336335,-0.97811,11.865961552782881,1.1703762775563737,fall
10/07/2020, 21:36:51,-10.84188,-1.6079768,0.06699903,0.54950005,0.33336335,-0.97811,10.960676840753202,1.1703762775563737,fall
10/07/2020, 21:36:51,-10.84188,-1.6079768,0.06699903,0.5006556,0.40540892,-1.1160955,10.960676840753202,1.2886743862108139,fall
10/07/2020, 21:36:51,-9.997213,-0.930808,-0.050249275,0.5006556,0.40540892,-1.1160955,10.040577850658877,1.2886743862108139,fall
10/07/2020, 21:36:51,-9.997213,-0.930808,-0.050249275,0.36633334,0.44570556,-1.2626289,10.040577850658877,1.388194991092125,fall
10/07/2020, 21:36:51,-9.212367,-0.83988076,0.009571291,0.36633334,0.44570556,-1.2626289,9.250578258454885,1.388194991092125,fall
10/07/2020, 21:36:51,-9.212367,-0.83988076,0.009571291,0.11844778,0.58491224,-1.1686034,9.250578258454885,1.3121684951490606,fall
10/07/2020, 21:36:51,-8.695518,-1.3639089,-0.009571291,0.11844778,0.58491224,-1.1686034,8.801838691401898,1.3121684951490606,fall
10/07/2020, 21:36:51,-8.695518,-1.3639089,-0.009571291,-0.17584,0.6105556,-1.009859,8.801838691401898,1.1931106260167696,fall
10/07/2020, 21:36:52,-2.0315065,-0.11724831,9.068798,1.6619323,-3.0772002,-1.1124322,9.294292029478154,3.669970781632431,fall
10/07/2020, 21:36:52,-2.0315065,-0.11724831,9.068798,1.6130879,-2.966079,-0.9512456,9.294292029478154,3.5077835403973974,fall
10/07/2020, 21:36:52,-1.6917256,0.17228323,9.434899,1.6130879,-2.966079,-0.9512456,9.586915167414311,3.5077835403973974,fall
10/07/2020, 21:36:52,-1.6917256,0.17228323,9.434899,1.4396901,-2.86839,-0.81081784,9.586915167414311,3.3102560108955377,fall
10/07/2020, 21:36:52,-1.3232309,0.4426722,10.006784,1.4396901,-2.86839,-0.81081784,10.103595072875569,3.3102560108955377,fall
10/07/2020, 21:36:52,-1.3232309,0.4426722,10.006784,1.3420012,-2.6388211,-0.65940005,10.103595072875569,3.033010479780615,fall
10/07/2020, 21:36:52,-0.9834501,0.7920243,10.585847,1.3420012,-2.6388211,-0.65940005,10.660892610513566,3.033010479780615,fall
10/07/2020, 21:36:52,-0.9834501,0.7920243,10.585847,1.3737501,-2.3262167,-0.6337567,10.660892610513566,2.774909185408394,fall
10/07/2020, 21:36:52,-0.7752745,0.9451649,11.351551,1.3737501,-2.3262167,-0.6337567,11.417184358354433,2.774909185408394,fall
10/07/2020, 21:36:52,-0.7752745,0.9451649,11.351551,1.6338468,-2.0685623,-0.5788067,11.417184358354433,2.6987816306848003,fall
10/07/2020, 21:36:52,-0.71306115,0.863809,11.794223,1.6338468,-2.0685623,-0.5788067,11.847291436610211,2.6987816306848003,fall
10/07/2020, 21:36:52,-0.71306115,0.863809,11.794223,2.1161857,-1.8316667,-0.62765115,11.847291436610211,2.8683079804719536,fall
10/07/2020, 21:36:52,-0.42831525,1.1126626,12.169896,2.1161857,-1.8316667,-0.62765115,12.228157818181566,2.8683079804719536,fall
10/07/2020, 21:36:52,-0.42831525,1.1126626,12.169896,2.7694802,-1.636289,-0.80227005,12.228157818181566,3.315282743550252,fall
10/07/2020, 21:36:52,-0.5024927,1.160519,12.131611,2.7694802,-1.636289,-0.80227005,12.197347482454514,3.315282743550252,fall
10/07/2020, 21:36:52,-0.5024927,1.160519,12.131611,3.2921157,-1.6387311,-1.0159645,12.197347482454514,3.8151866634814082,fall
10/07/2020, 21:36:52,-0.67477596,1.1270195,12.090933,3.2921157,-1.6387311,-1.0159645,12.162078469180644,3.8151866634814082,fall
10/07/2020, 21:36:52,-0.67477596,1.1270195,12.090933,3.5876245,-1.7559578,-1.0501556,12.162078469180644,4.130044154814876,fall
10/07/2020, 21:36:52,-0.7848458,0.8446664,12.155539,3.5876245,-1.7559578,-1.0501556,12.210100818467478,4.130044154814876,fall
10/07/2020, 21:36:52,-0.7848458,0.8446664,12.155539,3.624258,-1.8377723,-1.0184067,12.210100818467478,4.189248799006764,fall
10/07/2020, 21:36:53,-2.9599216,-7.8149586,4.800002,0.87920004,-0.41029334,-0.05372889,9.637153806940129,0.9717099009508658,fall
10/07/2020, 21:36:53,-2.536392,-7.6666036,5.1876397,0.87920004,-0.41029334,-0.05372889,9.598005014807612,0.9717099009508658,fall
10/07/2020, 21:36:53,-2.536392,-7.6666036,5.1876397,1.34078,-0.29062447,-0.081814446,9.598005014807612,1.3743533923894864,fall
10/07/2020, 21:36:53,-2.5220351,-7.3579297,5.345566,1.34078,-0.29062447,-0.081814446,9.437948103340176,1.3743533923894864,fall
10/07/2020, 21:36:53,-2.5220351,-7.3579297,5.345566,1.5508112,-0.24788557,-0.051286668,9.437948103340176,1.5713347408490097,fall
10/07/2020, 21:36:53,-2.3353949,-6.6257257,5.723632,1.5508112,-0.24788557,-0.051286668,9.061692582930235,1.5713347408490097,fall
10/07/2020, 21:36:53,-2.3353949,-6.6257257,5.723632,1.5984346,-0.14164889,-0.048844445,9.061692582930235,1.6054417628546611,fall
10/07/2020, 21:36:53,-2.2229323,-6.2237315,6.06102,1.5984346,-0.14164889,-0.048844445,8.967286344567956,1.6054417628546611,fall
10/07/2020, 21:36:53,-2.2229323,-6.2237315,6.06102,1.5141778,-0.04151778,0.0012211112,8.967286344567956,1.5147473798525506,fall
10/07/2020, 21:36:53,-2.1296122,-5.8839507,6.4295144,1.5141778,-0.04151778,0.0012211112,8.971888298417218,1.5147473798525506,fall
10/07/2020, 21:36:53,-2.1296122,-5.8839507,6.4295144,1.4152678,0.085477784,-0.11356334,8.971888298417218,1.422387464731397,fall
10/07/2020, 21:36:53,-1.9477576,-5.4125648,6.613762,1.4152678,0.085477784,-0.11356334,8.765355862203652,1.422387464731397,fall
10/07/2020, 21:36:53,-1.9477576,-5.4125648,6.613762,1.13197,0.24178001,-0.20881,8.765355862203652,1.1761867967472266,fall
10/07/2020, 21:36:53,-1.9884356,-5.2307105,6.5228343,1.13197,0.24178001,-0.20881,8.594275767001777,1.1761867967472266,fall
10/07/2020, 21:36:53,-1.9884356,-5.2307105,6.5228343,0.6655056,0.30039334,-0.23567446,8.594275767001777,0.7672524339045277,fall
10/07/2020, 21:36:53,-2.0338993,-5.072784,6.4008007,0.6655056,0.30039334,-0.23567446,8.416658067751783,0.7672524339045277,fall
10/07/2020, 21:36:53,-2.0338993,-5.072784,6.4008007,0.29306668,0.23079,-0.18316667,8.416658067751783,0.4155744619045289,fall
10/07/2020, 21:36:53,-1.9262222,-5.089534,6.1974106,0.29306668,0.23079,-0.18316667,8.247519886908421,0.4155744619045289,fall
10/07/2020, 21:36:53,-1.9262222,-5.089534,6.1974106,0.13188,0.15752333,-0.085477784,8.247519886908421,0.2225137901999251,fall
10/07/2020, 21:36:53,-1.7898313,-5.211568,6.276374,0.13188,0.15752333,-0.085477784,8.35205391738192,0.2225137901999251,fall
10/07/2020, 21:36:54,0.18424734,-0.03589234,0.31106696,-2.9465413,-0.8621045,-0.26009667,0.363315283054413,3.081068011541919,fall
10/07/2020, 21:36:54,0.18903299,-0.040677983,0.30149564,-2.9465413,-0.8621045,-0.26009667,0.35817284966244534,3.081068011541919,fall
10/07/2020, 21:36:54,0.18903299,-0.040677983,0.30149564,-3.2396078,-0.8767578,-0.09036223,0.35817284966244534,3.357369259127123,fall
10/07/2020, 21:36:54,-0.062213387,-0.69152576,0.2847459,-3.2396078,-0.8767578,-0.09036223,0.7504389430169387,3.357369259127123,fall
10/07/2020, 21:36:54,-0.062213387,-0.69152576,0.2847459,-3.28601,-0.8987378,0.16851334,0.7504389430169387,3.4108632713312,fall
10/07/2020, 21:36:54,0.148355,-0.031106694,0.4331009,-3.28601,-0.8987378,0.16851334,0.4588607979725408,3.4108632713312,fall
10/07/2020, 21:36:54,0.148355,-0.031106694,0.4331009,-3.0552201,-0.85966223,-0.14775445,0.4588607979725408,3.177297681867423,fall
10/07/2020, 21:36:54,0.15553348,0.011964113,0.1698904,-3.0552201,-0.85966223,-0.14775445,0.23064377722029675,3.177297681867423,fall
10/07/2020, 21:36:54,0.15553348,0.011964113,0.1698904,-2.6974347,-0.8401245,-0.05250778,0.23064377722029675,2.8257246835926084,fall
10/07/2020, 21:36:54,0.0071784677,-0.43070808,0.27996024,-2.6974347,-0.8401245,-0.05250778,0.5137496664267543,2.8257246835926084,fall
10/07/2020, 21:36:54,0.0071784677,-0.43070808,0.27996024,-2.3249958,-0.8071545,0.058613338,0.5137496664267543,2.4618162276291593,fall
10/07/2020, 21:36:54,0.15074782,0.09092726,0.19860429,-2.3249958,-0.8071545,0.058613338,0.26539844391641726,2.4618162276291593,fall
10/07/2020, 21:36:54,0.15074782,0.09092726,0.19860429,-1.9904112,-0.8645467,-0.081814446,0.26539844391641726,2.171605678600322,fall
10/07/2020, 21:36:54,0.05742774,-0.1794617,0.20817557,-1.9904112,-0.8645467,-0.081814446,0.2807873146913366,2.171605678600322,fall
10/07/2020, 21:36:54,0.05742774,-0.1794617,0.20817557,-1.74741,-0.81081784,0.07937223,0.2807873146913366,1.9279957029553403,fall
10/07/2020, 21:36:54,0.038285162,-0.27756742,0.19142582,-1.74741,-0.81081784,0.07937223,0.33934240384913106,1.9279957029553403,fall
10/07/2020, 21:36:54,0.038285162,-0.27756742,0.19142582,-1.5935501,-0.79128003,0.03297,0.33934240384913106,1.7794979587921125,fall
10/07/2020, 21:36:54,0.11485548,0.02632105,0.0,-1.5935501,-0.79128003,0.03297,0.11783284634052778,1.7794979587921125,fall
10/07/2020, 21:36:54,0.11485548,0.02632105,0.0,-1.5190623,-0.8315767,-0.04029667,0.11783284634052778,1.73225109334334,fall
10/07/2020, 21:36:54,0.02871387,-0.24885355,0.040677983,-1.5190623,-0.8315767,-0.04029667,0.25378588166426785,1.73225109334334,fall
10/07/2020, 21:36:55,-3.1106694,-8.16431,-4.4482574,-0.0061055557,0.018316668,-0.012211111,9.804041180890199,0.022844897910355867,fall
10/07/2020, 21:36:55,-3.1106694,-8.16431,-4.4482574,-0.008547778,0.02075889,-0.015874445,9.804041180890199,0.027495345586286475,fall
10/07/2020, 21:36:55,-3.101098,-8.169097,-4.4243293,-0.008547778,0.02075889,-0.015874445,9.79416375663443,0.027495345586286475,fall
10/07/2020, 21:36:55,-3.101098,-8.169097,-4.4243293,-0.0036633336,0.02075889,-0.01099,9.79416375663443,0.023772497100126737,fall
10/07/2020, 21:36:55,-3.0795627,-8.16431,-4.398008,-0.0036633336,0.02075889,-0.01099,9.77149654017783,0.023772497100126737,fall
10/07/2020, 21:36:55,-3.0795627,-8.16431,-4.398008,0.0,0.017095556,-0.013432222,9.77149654017783,0.02174126607518428,fall
10/07/2020, 21:36:55,-3.0819557,-8.176275,-4.412365,0.0,0.017095556,-0.013432222,9.788712495283432,0.02174126607518428,fall
10/07/2020, 21:36:55,-3.0819557,-8.176275,-4.412365,-0.007326667,0.012211111,-0.01099,9.788712495283432,0.017988090517363706,fall
10/07/2020, 21:36:55,-3.1058838,-8.209774,-4.4147577,-0.007326667,0.012211111,-0.01099,9.825323894156412,0.017988090517363706,fall
10/07/2020, 21:36:55,-3.1058838,-8.209774,-4.4147577,-0.017095556,0.017095556,-0.0036633336,9.825323894156412,0.024452732280025105,fall
10/07/2020, 21:36:55,-3.1561332,-8.216953,-4.429115,-0.017095556,0.017095556,-0.0036633336,9.853758463644516,0.024452732280025105,fall
10/07/2020, 21:36:55,-3.1561332,-8.216953,-4.429115,-0.017095556,0.017095556,-0.008547778,9.853758463644516,0.025643334724009037,fall
10/07/2020, 21:36:55,-3.2159536,-8.2145605,-4.4434714,-0.017095556,0.017095556,-0.008547778,9.877540189716681,0.025643334724009037,fall
10/07/2020, 21:36:55,-3.2159536,-8.2145605,-4.4434714,-0.018316668,0.018316668,-0.0061055557,9.877540189716681,0.02661350087520777,fall
10/07/2020, 21:36:55,-3.2159536,-8.2049885,-4.4554358,-0.018316668,0.018316668,-0.0061055557,9.874973477525755,0.02661350087520777,fall
10/07/2020, 21:36:55,-3.2159536,-8.2049885,-4.4554358,-0.01099,0.023201112,-0.013432222,9.874973477525755,0.02897406237754394,fall
10/07/2020, 21:36:55,-3.1920254,-8.176275,-4.4578285,-0.01099,0.023201112,-0.013432222,9.844426770929438,0.02897406237754394,fall
10/07/2020, 21:36:55,-3.1920254,-8.176275,-4.4578285,-0.013432222,0.019537779,-0.009768889,9.844426770929438,0.02564333419182471,fall
10/07/2020, 21:36:55,-3.1800613,-8.159525,-4.453043,-0.013432222,0.019537779,-0.009768889,9.824470918409855,0.02564333419182471,fall
10/07/2020, 21:36:55,-3.1800613,-8.159525,-4.453043,-0.008547778,0.009768889,-0.009768889,9.824470918409855,0.01624582742160654,fall
10/07/2020, 21:36:56,0.29192436,-9.456435,-4.15394,1.4323634,0.19415668,-1.4274789,10.332695959008149,2.0315161175197485,fall
10/07/2020, 21:36:56,0.29192436,-9.456435,-4.15394,1.4677756,0.37366003,-1.4140468,10.332695959008149,2.072079928762878,fall
10/07/2020, 21:36:56,1.3423735,-9.74836,-3.1752756,1.4677756,0.37366003,-1.4140468,10.339964117451904,2.072079928762878,fall
10/07/2020, 21:36:56,1.3423735,-9.74836,-3.1752756,1.5398211,0.6887067,-1.4677756,10.339964117451904,2.236007880928513,fall
10/07/2020, 21:36:56,1.8592232,-9.8727865,-3.1441689,1.5398211,0.6887067,-1.4677756,10.526842953554281,2.236007880928513,fall
10/07/2020, 21:36:56,1.8592232,-9.8727865,-3.1441689,1.5495901,0.9512456,-1.5483689,10.526842953554281,2.388209383653905,fall
10/07/2020, 21:36:56,1.6366907,-9.894321,-2.955136,1.5495901,0.9512456,-1.5483689,10.455103179440567,2.388209383653905,fall
10/07/2020, 21:36:56,1.6366907,-9.894321,-2.955136,1.6485001,1.1979101,-1.6485001,10.455103179440567,2.621086338999737,fall
10/07/2020, 21:36:56,1.7012969,-9.812965,-2.5794628,1.6485001,1.1979101,-1.6485001,10.287970120432254,2.621086338999737,fall
10/07/2020, 21:36:56,1.7012969,-9.812965,-2.5794628,1.7547368,1.4396901,-1.6839123,10.287970120432254,2.826193438188372,fall
10/07/2020, 21:36:56,1.7060826,-9.961321,-2.4622145,1.7547368,1.4396901,-1.6839123,10.401977287521206,2.826193438188372,fall
10/07/2020, 21:36:56,1.7060826,-9.961321,-2.4622145,1.801139,1.5850023,-1.6472789,10.401977287521206,2.910302695301494,fall
10/07/2020, 21:36:56,1.4189439,-10.066605,-2.9623144,1.801139,1.5850023,-1.6472789,10.588920464840013,2.910302695301494,fall
10/07/2020, 21:36:56,1.4189439,-10.066605,-2.9623144,1.8096868,1.6411734,-1.669259,10.588920464840013,2.958858174611041,fall
10/07/2020, 21:36:56,1.1724831,-10.222138,-3.682554,1.8096868,1.6411734,-1.669259,10.92831341825053,2.958858174611041,fall
10/07/2020, 21:36:56,1.1724831,-10.222138,-3.682554,1.6887968,1.6338468,-1.6643745,10.92831341825053,2.879519422626397,fall
10/07/2020, 21:36:56,1.0671989,-10.676775,-4.101298,1.6887968,1.6338468,-1.6643745,11.487083244957885,2.879519422626397,fall
10/07/2020, 21:36:56,1.0671989,-10.676775,-4.101298,1.5227256,1.5483689,-1.6314045,11.487083244957885,2.7161775069475507,fall
10/07/2020, 21:36:56,1.0959128,-11.066805,-4.0845485,1.5227256,1.5483689,-1.6314045,11.847309040841232,2.7161775069475507,fall
10/07/2020, 21:36:56,1.0959128,-11.066805,-4.0845485,1.405499,1.4531223,-1.6668167,11.847309040841232,2.6201659553651218,fall
10/07/2020, 21:36:57,6.5682983,-4.3788652,-0.5455636,-0.37976557,0.35412225,0.3382478,7.912941520517473,0.6197064105520161,fall
10/07/2020, 21:36:57,6.759724,-4.3932223,-0.58624154,-0.37976557,0.35412225,0.3382478,8.083189473013247,0.6197064105520161,fall
10/07/2020, 21:36:57,6.759724,-4.3932223,-0.58624154,-0.40540892,0.50676113,0.34191114,8.083189473013247,0.7335301382795137,fall
10/07/2020, 21:36:57,6.9942207,-4.4315076,-0.4546363,-0.40540892,0.50676113,0.34191114,8.292410827903646,0.7335301382795137,fall
10/07/2020, 21:36:57,6.9942207,-4.4315076,-0.4546363,-0.37854445,0.6581789,0.29673,8.292410827903646,0.8151957423309849,fall
10/07/2020, 21:36:57,7.1018977,-4.4243293,-0.25124636,-0.37854445,0.6581789,0.29673,8.37106716591391,0.8151957423309849,fall
10/07/2020, 21:36:57,7.1018977,-4.4243293,-0.25124636,-0.30039334,0.77418447,0.25399113,8.37106716591391,0.8683946335527829,fall
10/07/2020, 21:36:57,7.1545396,-4.4554358,-0.0023928226,-0.30039334,0.77418447,0.25399113,8.428425128604802,0.8683946335527829,fall
10/07/2020, 21:36:57,7.1545396,-4.4554358,-0.0023928226,-0.17828223,0.85599893,0.19904111,8.428425128604802,0.89673635619782,fall
10/07/2020, 21:36:57,7.068398,-4.4075794,0.23688944,-0.17828223,0.85599893,0.19904111,8.333374060731792,0.89673635619782,fall
10/07/2020, 21:36:57,7.068398,-4.4075794,0.23688944,-0.04151778,0.8816423,0.14897557,8.333374060731792,0.895103658071154,fall
10/07/2020, 21:36:57,6.9248285,-4.4434714,0.31585258,-0.04151778,0.8816423,0.14897557,8.233920778066336,0.895103658071154,fall
10/07/2020, 21:36:57,6.9248285,-4.4434714,0.31585258,0.06349778,0.8413456,0.10745778,8.233920778066336,0.8505536873856483,fall
10/07/2020, 21:36:57,6.7645097,-4.479364,0.30388847,0.06349778,0.8413456,0.10745778,8.11884477601298,0.8505536873856483,fall
10/07/2020, 21:36:57,6.7645097,-4.479364,0.30388847,0.13676445,0.7619734,0.06594,8.11884477601298,0.776953043835765,fall
10/07/2020, 21:36:57,6.6735826,-4.496114,0.2416751,0.13676445,0.7619734,0.06594,8.0504751444467,0.776953043835765,fall
10/07/2020, 21:36:57,6.6735826,-4.496114,0.2416751,0.16851334,0.6752745,0.04151778,8.0504751444467,0.697220274581288,fall
10/07/2020, 21:36:57,6.63769,-4.3812585,0.15074782,0.16851334,0.6752745,0.04151778,7.954689200146609,0.697220274581288,fall
10/07/2020, 21:36:57,6.63769,-4.3812585,0.15074782,0.18438779,0.58247,0.009768889,7.954689200146609,0.6110364868664522,fall
10/07/2020, 21:36:57,6.6568327,-4.173083,0.08135597,0.18438779,0.58247,0.009768889,7.857140740519244,0.6110364868664522,fall
10/07/2020, 21:36:58,0.39481574,-0.25603202,-0.6628119,-10.5272,1.0574822,5.5182014,0.8128661932833786,11.932759501484522,fall
10/07/2020, 21:36:58,0.38763726,-0.4019942,0.62452674,-10.5272,1.0574822,5.5182014,0.8377921144376862,11.932759501484522,fall
10/07/2020, 21:36:58,0.38763726,-0.4019942,0.62452674,-10.101031,0.9133912,5.382658,0.8377921144376862,11.482078384304119,fall
10/07/2020, 21:36:58,0.2536392,-0.31585258,0.5407779,-10.101031,0.9133912,5.382658,0.6756748136675669,11.482078384304119,fall
10/07/2020, 21:36:58,0.2536392,-0.31585258,0.5407779,-9.431863,0.99886894,5.4962215,0.6756748136675669,10.962035708365482,fall
10/07/2020, 21:36:58,0.22492532,-0.5455636,0.7800602,-9.431863,0.99886894,5.4962215,0.978123147609159,10.962035708365482,fall
10/07/2020, 21:36:58,0.22492532,-0.5455636,0.7800602,-8.144812,0.9817734,5.7148004,0.978123147609159,9.998038736907283,fall
10/07/2020, 21:36:58,0.3397808,-0.06460621,1.4739788,-8.144812,0.9817734,5.7148004,1.514013982233561,9.998038736907283,fall
10/07/2020, 21:36:58,0.3397808,-0.06460621,1.4739788,-6.458457,1.3175789,5.65985,1.514013982233561,8.68801382984391,fall
10/07/2020, 21:36:58,0.47856453,0.47856453,1.4404793,-6.458457,1.3175789,5.65985,1.5915491107381807,8.68801382984391,fall
10/07/2020, 21:36:58,0.47856453,0.47856453,1.4404793,-4.9455004,1.8060234,5.6085634,1.5915491107381807,7.692572911163018,fall
10/07/2020, 21:36:58,0.47138608,0.41156548,1.2921243,-4.9455004,1.8060234,5.6085634,1.4356796686330586,7.692572911163018,fall
10/07/2020, 21:36:58,0.47138608,0.41156548,1.2921243,-4.111481,2.2028844,5.7245693,1.4356796686330586,7.384285430397891,fall
10/07/2020, 21:36:58,0.485743,0.2847459,0.6125626,-4.111481,2.2028844,5.7245693,0.8320212811253853,7.384285430397891,fall
10/07/2020, 21:36:58,0.485743,0.2847459,0.6125626,-3.9515157,2.6376002,5.92361,0.8320212811253853,7.593455654670401,fall
10/07/2020, 21:36:58,0.47856453,0.06699903,0.21774685,-3.9515157,2.6376002,5.92361,0.5300250680360322,7.593455654670401,fall
10/07/2020, 21:36:58,0.47856453,0.06699903,0.21774685,-4.173758,3.140698,6.142189,0.5300250680360322,8.062922905091852,fall
10/07/2020, 21:36:58,0.6029913,0.16031912,0.18903299,-4.173758,3.140698,6.142189,0.6519464529574097,8.062922905091852,fall
10/07/2020, 21:36:58,0.6029913,0.16031912,0.18903299,-4.5864935,3.7011878,6.142189,0.6519464529574097,8.512414468108478,fall
10/07/2020, 21:36:58,0.6987042,0.39960137,-0.11246266,-4.5864935,3.7011878,6.142189,0.8127217487225986,8.512414468108478,fall
10/07/2020, 21:36:59,-5.759524,2.6751757,-7.1712894,0.012211111,0.026864445,-0.014653334,9.578938998135467,0.032947379960433336,fall
10/07/2020, 21:36:59,-5.759524,2.6751757,-7.1712894,0.014653334,0.037854444,-0.0036633336,9.578938998135467,0.04075658437973775,fall
10/07/2020, 21:36:59,-5.716453,2.6703901,-7.1473613,0.014653334,0.037854444,-0.0036633336,9.533813111802454,0.04075658437973775,fall
10/07/2020, 21:36:59,-5.716453,2.6703901,-7.1473613,0.018316668,0.04396,0.0048844446,9.533813111802454,0.04787316393121778,fall
10/07/2020, 21:36:59,-5.6470613,2.6871397,-7.1688967,0.018316668,0.04396,0.0048844446,9.513311801866324,0.04787316393121778,fall
10/07/2020, 21:36:59,-5.6470613,2.6871397,-7.1688967,0.03052778,0.039075557,-0.0048844446,9.513311801866324,0.049826722819845265,fall
10/07/2020, 21:36:59,-5.615955,2.6368906,-7.149754,0.03052778,0.039075557,-0.0048844446,9.466315249655764,0.049826722819845265,fall
10/07/2020, 21:36:59,-5.615955,2.6368906,-7.149754,0.03052778,0.034191113,-0.014653334,9.466315249655764,0.04812169735342635,fall
10/07/2020, 21:36:59,-5.5944195,2.6368906,-7.173682,0.03052778,0.034191113,-0.014653334,9.471665012066387,0.04812169735342635,fall
10/07/2020, 21:36:59,-5.5944195,2.6368906,-7.173682,0.03052778,0.023201112,-0.024422223,9.471665012066387,0.04546077308823029,fall
10/07/2020, 21:36:59,-5.5968122,2.5962126,-7.21436,0.03052778,0.023201112,-0.024422223,9.492714099230108,0.04546077308823029,fall
10/07/2020, 21:36:59,-5.5968122,2.5962126,-7.21436,0.023201112,0.012211111,-0.026864445,9.492714099230108,0.03753799703898131,fall
10/07/2020, 21:36:59,-5.6374903,2.5531418,-7.271788,0.023201112,0.012211111,-0.026864445,9.548755534360518,0.03753799703898131,fall
10/07/2020, 21:36:59,-5.6374903,2.5531418,-7.271788,0.013432222,-0.0012211112,-0.023201112,9.548755534360518,0.02683667818253856,fall
10/07/2020, 21:36:59,-5.6733823,2.5842485,-7.3363943,0.013432222,-0.0012211112,-0.023201112,9.627475708786953,0.02683667818253856,fall
10/07/2020, 21:36:59,-5.6733823,2.5842485,-7.3363943,-0.0061055557,-0.0048844446,-0.023201112,9.627475708786953,0.024483202282863478,fall
10/07/2020, 21:36:59,-5.7140603,2.565106,-7.3435726,-0.0061055557,-0.0048844446,-0.023201112,9.651855382119356,0.024483202282863478,fall
10/07/2020, 21:36:59,-5.7140603,2.565106,-7.3435726,-0.023201112,-0.012211111,-0.008547778,9.651855382119356,0.027576572270004946,fall
10/07/2020, 21:36:59,-5.7260246,2.5603201,-7.32443,-0.023201112,-0.012211111,-0.008547778,9.643125629815575,0.027576572270004946,fall
10/07/2020, 21:36:59,-5.7260246,2.5603201,-7.32443,-0.045181114,-0.007326667,0.0,9.643125629815575,0.04577131345036483,fall
10/07/2020, 21:37:00,-3.1322048,-13.603197,-4.895715,3.0222502,0.32359445,-2.2810357,14.792758555700294,3.800241200474838,fall
10/07/2020, 21:37:00,-3.101098,-13.787444,-4.3094735,3.0222502,0.32359445,-2.2810357,14.774369237626933,3.800241200474838,fall
10/07/2020, 21:37:00,-3.101098,-13.787444,-4.3094735,2.8097768,0.50798225,-1.9085968,14.774369237626933,3.4344771232746196,fall
10/07/2020, 21:37:00,-2.861816,-13.749159,-4.2041893,2.8097768,0.50798225,-1.9085968,14.659623713641668,3.4344771232746196,fall
10/07/2020, 21:37:00,-2.861816,-13.749159,-4.2041893,2.4788556,0.45791668,-1.7437468,14.659623713641668,3.065137121254493,fall
10/07/2020, 21:37:00,-2.3138595,-13.122239,-4.4602213,2.4788556,0.45791668,-1.7437468,14.051358614355967,3.065137121254493,fall
10/07/2020, 21:37:00,-2.3138595,-13.122239,-4.4602213,2.1149645,0.40785113,-1.7632846,14.051358614355967,2.7836288853372313,fall
10/07/2020, 21:37:00,-1.8855443,-13.057633,-4.065406,2.1149645,0.40785113,-1.7632846,13.80523784674432,2.7836288853372313,fall
10/07/2020, 21:37:00,-1.8855443,-13.057633,-4.065406,1.746189,0.60933447,-1.6643745,13.80523784674432,2.488093023016804,fall
10/07/2020, 21:37:00,-1.5098711,-13.124632,-3.7016966,1.746189,0.60933447,-1.6643745,13.719993834459626,2.488093023016804,fall
10/07/2020, 21:37:00,-1.5098711,-13.124632,-3.7016966,1.2931567,0.85722005,-1.5349368,13.719993834459626,2.182455387539961,fall
10/07/2020, 21:37:00,-1.2897314,-13.088739,-3.7567315,1.2931567,0.85722005,-1.5349368,13.678140869084089,2.182455387539961,fall
10/07/2020, 21:37:00,-1.2897314,-13.088739,-3.7567315,0.75953114,0.9634567,-1.5031879,13.678140869084089,1.9402861114716747,fall
10/07/2020, 21:37:00,-1.0169497,-12.780066,-3.7040894,0.75953114,0.9634567,-1.5031879,13.344831959292911,1.9402861114716747,fall
10/07/2020, 21:37:00,-1.0169497,-12.780066,-3.7040894,0.25643334,0.99032116,-1.5251678,13.344831959292911,1.8364724183340913,fall
10/07/2020, 21:37:00,-0.849452,-12.440285,-3.4504502,0.25643334,0.99032116,-1.5251678,12.93784600808885,1.8364724183340913,fall
10/07/2020, 21:37:00,-0.849452,-12.440285,-3.4504502,-0.19904111,0.94758224,-1.6521634,12.93784600808885,1.914986509285136,fall
10/07/2020, 21:37:00,-0.8063812,-11.980863,-3.0029924,-0.19904111,0.94758224,-1.6521634,12.377773751532873,1.914986509285136,fall
10/07/2020, 21:37:00,-0.8063812,-11.980863,-3.0029924,-0.57270116,0.8950745,-1.7828223,12.377773751532873,2.075475880573922,fall
10/07/2020, 21:37:00,-0.8805587,-11.815758,-2.4335005,-0.57270116,0.8950745,-1.7828223,12.095843903516267,2.075475880573922,fall
10/07/2020, 21:37:01,8.788837,-3.8500516,2.6799614,-0.017095556,0.52019334,-0.24910668,9.96236690746183,0.5770160336448183,fall
10/07/2020, 21:37:01,8.803194,-3.885944,2.926422,-0.017095556,0.52019334,-0.24910668,10.057869145328214,0.5770160336448183,fall
10/07/2020, 21:37:01,8.803194,-3.885944,2.926422,0.1965989,0.42983112,-0.3309211,10.057869145328214,0.5769876092563894,fall
10/07/2020, 21:37:01,8.85823,-3.7136607,3.089134,0.1965989,0.42983112,-0.3309211,10.08971044970237,0.5769876092563894,fall
10/07/2020, 21:37:01,8.85823,-3.7136607,3.089134,0.42372558,0.32359445,-0.43349445,10.08971044970237,0.687149306040943,fall
10/07/2020, 21:37:01,8.743374,-3.6610186,3.0675986,0.42372558,0.32359445,-0.43349445,9.962921507484975,0.687149306040943,fall
10/07/2020, 21:37:01,8.743374,-3.6610186,3.0675986,0.5739222,0.19415668,-0.4908867,9.962921507484975,0.7797777034307929,fall
10/07/2020, 21:37:01,8.568698,-3.562913,2.9383862,0.5739222,0.19415668,-0.4908867,9.734014911703655,0.7797777034307929,fall
10/07/2020, 21:37:01,8.568698,-3.562913,2.9383862,0.6435256,0.068382226,-0.52141446,9.734014911703655,0.8310682072078349,fall
10/07/2020, 21:37:01,8.508878,-3.4695928,2.7613173,0.6435256,0.068382226,-0.52141446,9.594995980896273,0.8310682072078349,fall
10/07/2020, 21:37:01,8.508878,-3.4695928,2.7613173,0.7021389,0.04396,-0.4591378,9.594995980896273,0.8400827546335188,fall
10/07/2020, 21:37:01,8.539984,-3.359523,2.6536403,0.7021389,0.04396,-0.4591378,9.552985098934098,0.8400827546335188,fall
10/07/2020, 21:37:01,8.539984,-3.359523,2.6536403,0.84623003,0.11356334,-0.30283555,9.552985098934098,0.905931160659094,fall
10/07/2020, 21:37:01,8.705089,-3.103491,2.7206392,0.84623003,0.11356334,-0.30283555,9.633903799816565,0.905931160659094,fall
10/07/2020, 21:37:01,8.705089,-3.103491,2.7206392,1.0330601,0.2735289,-0.10745778,9.633903799816565,1.0740476487113462,fall
10/07/2020, 21:37:01,8.729017,-2.7326035,2.751746,1.0330601,0.2735289,-0.10745778,9.551699857119754,1.0740476487113462,fall
10/07/2020, 21:37:01,8.729017,-2.7326035,2.751746,1.1698245,0.46402225,0.15386,9.551699857119754,1.2678638982047907,fall
10/07/2020, 21:37:01,8.700303,-2.4335005,2.78046,1.1698245,0.46402225,0.15386,9.452415332289696,1.2678638982047907,fall
10/07/2020, 21:37:01,8.700303,-2.4335005,2.78046,1.21989,0.7106867,0.47257003,9.452415332289696,1.4888013989920486,fall
10/07/2020, 21:37:01,8.702696,-2.1535404,2.9096723,1.21989,0.7106867,0.47257003,9.42554209568067,1.4888013989920486,fall
10/07/2020, 21:37:02,1.1964114,0.46181476,0.17228323,-7.3889437,4.5913777,7.8077846,1.2939685293465997,11.689257366969397,fall
10/07/2020, 21:37:02,1.1581261,0.53599226,0.19621146,-7.3889437,4.5913777,7.8077846,1.2911400946148317,11.689257366969397,fall
10/07/2020, 21:37:02,1.1581261,0.53599226,0.19621146,-7.337657,4.5999255,7.481748,1.2911400946148317,11.44452180496566,fall
10/07/2020, 21:37:02,1.1270195,0.7752745,0.086141616,-7.337657,4.5999255,7.481748,1.3706363342043464,11.44452180496566,fall
10/07/2020, 21:37:02,1.1270195,0.7752745,0.086141616,-6.8516545,4.614579,7.1202993,1.3706363342043464,10.905877941445144,fall
10/07/2020, 21:37:02,1.0289137,0.9284152,0.24646074,-6.8516545,4.614579,7.1202993,1.4076082964350625,10.905877941445144,fall
10/07/2020, 21:37:02,1.0289137,0.9284152,0.24646074,-5.9272738,4.680519,6.8467703,1.4076082964350625,10.19402258928849,fall
10/07/2020, 21:37:02,1.0289137,1.0504491,0.58624154,-5.9272738,4.680519,6.8467703,1.5829674680073476,10.19402258928849,fall
10/07/2020, 21:37:02,1.0289137,1.0504491,0.58624154,-4.803851,4.7977457,6.543935,1.5829674680073476,9.429657070039156,fall
10/07/2020, 21:37:02,0.91405827,1.0624132,0.79920274,-4.803851,4.7977457,6.543935,1.6133658537725362,9.429657070039156,fall
10/07/2020, 21:37:02,0.91405827,1.0624132,0.79920274,-3.6511223,5.172627,6.327798,1.6133658537725362,8.951412749224327,fall
10/07/2020, 21:37:02,1.1724831,1.2418749,0.36610186,-3.6511223,5.172627,6.327798,1.7467113415715665,8.951412749224327,fall
10/07/2020, 21:37:02,1.1724831,1.2418749,0.36610186,-2.746279,5.4339447,6.1153245,1.7467113415715665,8.629426231504107,fall
10/07/2020, 21:37:02,1.1653047,1.0695918,0.44745782,-2.746279,5.4339447,6.1153245,1.643830887814253,8.629426231504107,fall
10/07/2020, 21:37:02,1.1653047,1.0695918,0.44745782,-1.9843056,5.7196846,5.917505,1.643830887814253,8.465761846209677,fall
10/07/2020, 21:37:02,1.1174482,0.90448695,0.19621146,-1.9843056,5.7196846,5.917505,1.4509604026058518,8.465761846209677,fall
10/07/2020, 21:37:02,1.1174482,0.90448695,0.19621146,-1.3615389,6.046942,5.84668,1.4509604026058518,8.520737495471868,fall
10/07/2020, 21:37:02,1.1700903,0.74177504,0.0,-1.3615389,6.046942,5.84668,1.3854030299731606,8.520737495471868,fall
10/07/2020, 21:37:02,1.1700903,0.74177504,0.0,-1.0501556,6.3558836,5.7612023,1.3854030299731606,8.642426484032498,fall
10/07/2020, 21:37:02,1.2299109,0.7322037,-0.25124636,-1.0501556,6.3558836,5.7612023,1.4532473036728981,8.642426484032498,fall
10/07/2020, 21:37:03,-3.926622,4.84068,-7.3028946,-0.013432222,0.04029667,0.0012211112,9.601188110228154,0.0424939681441854,fall
10/07/2020, 21:37:03,-3.926622,4.84068,-7.3028946,-0.046402223,0.014653334,-0.01099,9.601188110228154,0.049886537796716854,fall
10/07/2020, 21:37:03,-3.8763726,4.8287163,-7.300502,-0.046402223,0.014653334,-0.01099,9.572883166219944,0.049886537796716854,fall
10/07/2020, 21:37:03,-3.8763726,4.8287163,-7.300502,-0.057392225,-0.012211111,-0.008547778,9.572883166219944,0.05929623264901012,fall
10/07/2020, 21:37:03,-3.8787656,4.867001,-7.2382884,-0.057392225,-0.012211111,-0.008547778,9.545959392978647,0.05929623264901012,fall
10/07/2020, 21:37:03,-3.8787656,4.867001,-7.2382884,-0.07448778,-0.02198,-0.015874445,9.545959392978647,0.07926883539852343,fall
10/07/2020, 21:37:03,-3.9026937,4.8502517,-7.1808605,-0.07448778,-0.02198,-0.015874445,9.503721250176373,0.07926883539852343,fall
10/07/2020, 21:37:03,-3.9026937,4.8502517,-7.1808605,-0.085477784,-0.02198,-0.02198,9.503721250176373,0.09095434273715323,fall
10/07/2020, 21:37:03,-3.9098723,4.8909297,-7.183254,-0.085477784,-0.02198,-0.02198,9.529293222752043,0.09095434273715323,fall
10/07/2020, 21:37:03,-3.9098723,4.8909297,-7.183254,-0.07937223,-0.019537779,-0.017095556,9.529293222752043,0.08351007898665848,fall
10/07/2020, 21:37:03,-3.9338005,4.9052863,-7.1545396,-0.07937223,-0.019537779,-0.017095556,9.524917665217352,0.08351007898665848,fall
10/07/2020, 21:37:03,-3.9338005,4.9052863,-7.1545396,-0.07326667,-0.007326667,-0.018316668,9.524917665217352,0.07587611818089264,fall
10/07/2020, 21:37:03,-3.9840498,4.912465,-7.1306114,-0.07326667,-0.007326667,-0.018316668,9.531557339626078,0.07587611818089264,fall
10/07/2020, 21:37:03,-3.9840498,4.912465,-7.1306114,-0.06349778,0.0012211112,-0.0048844446,9.531557339626078,0.06369707371265725,fall
10/07/2020, 21:37:03,-4.0151563,4.938786,-7.1042905,-0.06349778,0.0012211112,-0.0048844446,9.538554954188445,0.06369707371265725,fall
10/07/2020, 21:37:03,-4.0151563,4.938786,-7.1042905,-0.059834447,0.013432222,0.0048844446,9.538554954188445,0.061517830077207285,fall
10/07/2020, 21:37:03,-3.9888353,4.9316072,-7.123433,-0.059834447,0.013432222,0.0048844446,9.538074054938434,0.061517830077207285,fall
10/07/2020, 21:37:03,-3.9888353,4.9316072,-7.123433,-0.05250778,0.024422223,0.0012211112,9.538074054938434,0.05792238849242463,fall
10/07/2020, 21:37:03,-3.993621,4.938786,-7.149754,-0.05250778,0.024422223,0.0012211112,9.56345125799685,0.05792238849242463,fall
10/07/2020, 21:37:03,-3.993621,4.938786,-7.149754,-0.046402223,0.026864445,0.0036633336,9.56345125799685,0.05374276459840401,fall
10/07/2020, 21:37:04,-6.013163,2.792424,-7.0325055,0.5690378,-0.23689556,-1.00009,9.664982965106553,1.1747780783055168,fall
10/07/2020, 21:37:04,-6.013163,2.792424,-7.0325055,0.5140878,-0.05372889,-0.69114894,9.664982965106553,0.8630526684783009,fall
10/07/2020, 21:37:04,-6.283552,2.3856442,-6.9798636,0.5140878,-0.05372889,-0.69114894,9.689830885592587,0.8630526684783009,fall
10/07/2020, 21:37:04,-6.283552,2.3856442,-6.9798636,0.43227336,0.20148334,-0.34679556,9.689830885592587,0.5896803810075956,fall
10/07/2020, 21:37:04,-6.5611196,1.9334008,-6.9678993,0.43227336,0.20148334,-0.34679556,9.76411538558824,0.5896803810075956,fall
10/07/2020, 21:37:04,-6.5611196,1.9334008,-6.9678993,0.36389112,0.4041878,-0.0036633336,9.76411538558824,0.5438730983632618,fall
10/07/2020, 21:37:04,-6.5252275,2.0865414,-7.3603225,0.36389112,0.4041878,-0.0036633336,10.055177599222292,0.5438730983632618,fall
10/07/2020, 21:37:04,-6.5252275,2.0865414,-7.3603225,0.3382478,0.34313223,0.08303556,10.055177599222292,0.48892351935542405,fall
10/07/2020, 21:37:04,-6.1232333,2.696711,-7.798209,0.3382478,0.34313223,0.08303556,10.27513033527195,0.48892351935542405,fall
10/07/2020, 21:37:04,-6.1232333,2.696711,-7.798209,0.33214223,0.19537778,-0.008547778,10.27513033527195,0.3854400157132319,fall
10/07/2020, 21:37:04,-5.7451673,2.9862428,-7.91785,0.33214223,0.19537778,-0.008547778,10.228242350529014,0.3854400157132319,fall
10/07/2020, 21:37:04,-5.7451673,2.9862428,-7.91785,0.3052778,0.106236674,-0.08059334,10.228242350529014,0.33313067889851156,fall
10/07/2020, 21:37:04,-5.7260246,3.0388846,-7.752745,0.3052778,0.106236674,-0.08059334,10.105802059951621,0.33313067889851156,fall
10/07/2020, 21:37:04,-5.7260246,3.0388846,-7.752745,0.2625389,0.05372889,-0.11234222,10.105802059951621,0.290575718169956,fall
10/07/2020, 21:37:04,-5.771488,3.2183464,-7.4656067,0.2625389,0.05372889,-0.11234222,9.970110954310481,0.290575718169956,fall
10/07/2020, 21:37:04,-5.771488,3.2183464,-7.4656067,0.24178001,-0.0012211112,-0.14775445,9.970110954310481,0.2833556809737997,fall
10/07/2020, 21:37:04,-5.7284174,3.1369905,-7.1066833,0.24178001,-0.0012211112,-0.14775445,9.65196469317334,0.2833556809737997,fall
10/07/2020, 21:37:04,-5.7284174,3.1369905,-7.1066833,0.26620224,0.015874445,-0.16118668,9.65196469317334,0.3116035575882132,fall
10/07/2020, 21:37:04,-5.8600225,3.0699914,-6.9152575,0.26620224,0.015874445,-0.16118668,9.570031179175697,0.3116035575882132,fall
10/07/2020, 21:37:04,-5.8600225,3.0699914,-6.9152575,0.28085557,0.09280445,-0.17217667,9.570031179175697,0.34225330023611555,fall
10/07/2020, 21:37:05,-10.516456,-2.4909284,0.33499518,-0.30161446,0.15508112,-2.052688,10.812621586246152,2.0805165189920203,fall
10/07/2020, 21:37:05,-10.516456,-2.4909284,0.33499518,-0.25765446,0.14897557,-2.196779,10.812621586246152,2.2168485671554548,fall
10/07/2020, 21:37:05,-10.3441725,-2.6871397,0.07178468,-0.25765446,0.14897557,-2.196779,10.687739579677483,2.2168485671554548,fall
10/07/2020, 21:37:05,-10.3441725,-2.6871397,0.07178468,-0.15508112,0.14653334,-2.2895834,10.687739579677483,2.299503103782641,fall
10/07/2020, 21:37:05,-10.064212,-2.8378878,-0.1268196,-0.15508112,0.14653334,-2.2895834,10.45743994674754,2.299503103782641,fall
10/07/2020, 21:37:05,-10.064212,-2.8378878,-0.1268196,-0.045181114,0.12577444,-2.35186,10.45743994674754,2.3556540963015937,fall
10/07/2020, 21:37:05,-9.638289,-2.9048867,-0.21774685,-0.045181114,0.12577444,-2.35186,10.068882962677227,2.3556540963015937,fall
10/07/2020, 21:37:05,-9.638289,-2.9048867,-0.21774685,0.08303556,0.078151114,-2.383609,10.068882962677227,2.3863349795726823,fall
10/07/2020, 21:37:05,-9.241081,-2.9838498,-0.1698904,0.08303556,0.078151114,-2.383609,9.712353196116954,2.3863349795726823,fall
10/07/2020, 21:37:05,-9.241081,-2.9838498,-0.1698904,0.22590557,-0.009768889,-2.3042367,9.712353196116954,2.3153045799502565,fall
10/07/2020, 21:37:05,-8.941978,-3.1489546,-0.076570325,0.22590557,-0.009768889,-2.3042367,9.480546237328035,2.3153045799502565,fall
10/07/2020, 21:37:05,-8.941978,-3.1489546,-0.076570325,0.37732336,-0.15141778,-2.1015322,9.480546237328035,2.1404994594349285,fall
10/07/2020, 21:37:05,-8.7266245,-3.2853456,0.040677983,0.37732336,-0.15141778,-2.1015322,9.324651472247261,2.1404994594349285,fall
10/07/2020, 21:37:05,-8.7266245,-3.2853456,0.040677983,0.49943447,-0.33336335,-1.8353301,9.324651472247261,1.931062556750476,fall
10/07/2020, 21:37:05,-8.539984,-3.2709885,0.17228323,0.49943447,-0.33336335,-1.8353301,9.1466042598271,1.931062556750476,fall
10/07/2020, 21:37:05,-8.539984,-3.2709885,0.17228323,0.52752,-0.5043189,-1.5886656,9.1466042598271,1.7482772378515505,fall
10/07/2020, 21:37:05,-8.444271,-3.2303107,0.27756742,0.52752,-0.5043189,-1.5886656,9.045311766425792,1.7482772378515505,fall
10/07/2020, 21:37:05,-8.444271,-3.2303107,0.27756742,0.49577114,-0.6435256,-1.4360267,9.045311766425792,1.649874808217027,fall
10/07/2020, 21:37:05,-8.370093,-3.1058838,0.47377887,0.49577114,-0.6435256,-1.4360267,8.940326808527237,1.649874808217027,fall
10/07/2020, 21:37:05,-8.370093,-3.1058838,0.47377887,0.4371578,-0.74732006,-1.3700867,8.940326808527237,1.6207195006390849,fall
10/07/2020, 21:37:06,-5.3096733,-7.6019974,0.7537391,-0.2942878,-0.7778478,-0.30039334,9.303285301847582,0.884244712370923,fall
10/07/2020, 21:37:06,-5.0368915,-7.776674,0.8039884,-0.2942878,-0.7778478,-0.30039334,9.300178934934921,0.884244712370923,fall
10/07/2020, 21:37:06,-5.0368915,-7.776674,0.8039884,-0.29917222,-0.6655056,-0.35168,9.300178934934921,0.8099879853068456,fall
10/07/2020, 21:37:06,-4.8215375,-7.9680996,0.90448695,-0.29917222,-0.6655056,-0.35168,9.357132659340769,0.8099879853068456,fall
10/07/2020, 21:37:06,-4.8215375,-7.9680996,0.90448695,-0.2515489,-0.56049,-0.30039334,9.357132659340769,0.6838582136972435,fall
10/07/2020, 21:37:06,-4.668397,-8.133204,0.91405827,-0.2515489,-0.56049,-0.30039334,9.422231550356756,0.6838582136972435,fall
10/07/2020, 21:37:06,-4.668397,-8.133204,0.91405827,-0.15874445,-0.4823389,-0.16607112,9.422231550356756,0.5342567147667528,fall
10/07/2020, 21:37:06,-4.644469,-8.353344,1.0073783,-0.15874445,-0.4823389,-0.16607112,9.610632486088893,0.5342567147667528,fall
10/07/2020, 21:37:06,-4.644469,-8.353344,1.0073783,-0.018316668,-0.43960002,0.01099,9.610632486088893,0.44011868691232653,fall
10/07/2020, 21:37:06,-4.733003,-8.46102,1.1030912,-0.018316668,-0.43960002,0.01099,9.757407257575403,0.44011868691232653,fall
10/07/2020, 21:37:06,-4.733003,-8.46102,1.1030912,0.117226675,-0.4493689,0.15508112,9.757407257575403,0.4896168411098496,fall
10/07/2020, 21:37:06,-4.8239303,-8.422736,1.18684,0.117226675,-0.4493689,0.15508112,9.778618361673763,0.4896168411098496,fall
10/07/2020, 21:37:06,-4.8239303,-8.422736,1.18684,0.19782001,-0.47379112,0.22712667,9.778618361673763,0.561424357070766,fall
10/07/2020, 21:37:06,-4.883751,-8.283952,1.2993027,0.19782001,-0.47379112,0.22712667,9.703765622420155,0.561424357070766,fall
10/07/2020, 21:37:06,-4.883751,-8.283952,1.2993027,0.24544334,-0.4921078,0.26009667,9.703765622420155,0.6083278785108848,fall
10/07/2020, 21:37:06,-4.955536,-8.13799,1.4907285,0.24544334,-0.4921078,0.26009667,9.643987173494155,0.6083278785108848,fall
10/07/2020, 21:37:06,-4.955536,-8.13799,1.4907285,0.2625389,-0.50798225,0.2613178,9.643987173494155,0.6286967764854785,fall
10/07/2020, 21:37:06,-4.979464,-8.070991,1.727618,0.2625389,-0.50798225,0.2613178,9.63953395173568,0.6286967764854785,fall
10/07/2020, 21:37:06,-4.979464,-8.070991,1.727618,0.2515489,-0.5238567,0.2759711,9.63953395173568,0.6433216457477757,fall
10/07/2020, 21:37:06,-5.020142,-7.9513497,1.9286151,0.2515489,-0.5238567,0.2759711,9.599236702862237,0.6433216457477757,fall
10/07/2020, 21:37:07,2.8570302,0.28235307,-0.8566305,-5.1653004,-3.3580556,-6.510965,2.9960240945898957,8.963789868417285,fall
10/07/2020, 21:37:07,0.31106696,-5.4221363,-6.9248285,-5.1653004,-3.3580556,-6.510965,8.80054401391303,8.963789868417285,fall
10/07/2020, 21:37:07,0.31106696,-5.4221363,-6.9248285,-4.5742826,-3.3434024,-4.636559,8.80054401391303,7.321207597724333,fall
10/07/2020, 21:37:07,0.83988076,-3.7088752,2.7038896,-4.5742826,-3.3434024,-4.636559,4.666066202748585,7.321207597724333,fall
10/07/2020, 21:37:07,0.83988076,-3.7088752,2.7038896,-4.54986,-3.6633334,-3.525348,4.666066202748585,6.822705907249638,fall
10/07/2020, 21:37:07,0.6436693,-4.8215375,-0.30149564,-4.54986,-3.6633334,-3.525348,4.873646849260259,6.822705907249638,fall
10/07/2020, 21:37:07,0.6436693,-4.8215375,-0.30149564,-4.875897,-1.40672,-2.8818223,4.873646849260259,5.835934560918909,fall
10/07/2020, 21:37:07,1.1437693,-5.111069,2.28036,-4.875897,-1.40672,-2.8818223,5.71237937954305,5.835934560918909,fall
10/07/2020, 21:37:07,1.1437693,-5.111069,2.28036,-5.821037,-1.0831256,-2.13206,5.71237937954305,6.293116137214887,fall
10/07/2020, 21:37:07,1.6917256,-6.192625,3.3690944,-5.821037,-1.0831256,-2.13206,7.2499198194792935,6.293116137214887,fall
10/07/2020, 21:37:07,1.6917256,-6.192625,3.3690944,-6.2887225,0.57514334,-2.856179,7.2499198194792935,6.930842604215822,fall
10/07/2020, 21:37:07,2.8354948,-5.407779,1.5026926,-6.2887225,0.57514334,-2.856179,6.288258229685941,6.930842604215822,fall
10/07/2020, 21:37:07,2.8354948,-5.407779,1.5026926,-6.6318545,0.20270446,-4.01135,6.288258229685941,7.75329050952024,fall
10/07/2020, 21:37:07,2.321038,-7.9011,1.457229,-6.6318545,0.20270446,-4.01135,8.362901264665672,7.75329050952024,fall
10/07/2020, 21:37:07,2.321038,-7.9011,1.457229,-7.08855,0.41273558,-4.034551,8.362901264665672,8.166731046170502,fall
10/07/2020, 21:37:07,1.9884356,-9.968499,0.148355,-7.08855,0.41273558,-4.034551,10.165965838106294,8.166731046170502,fall
10/07/2020, 21:37:07,1.9884356,-9.968499,0.148355,-7.7601614,1.4433534,-3.7536957,10.165965838106294,8.74034356516904,fall
10/07/2020, 21:37:07,1.7108682,-10.863415,-0.85902333,-7.7601614,1.4433534,-3.7536957,11.030810104521718,8.74034356516904,fall
10/07/2020, 21:37:07,1.7108682,-10.863415,-0.85902333,-8.084977,1.7608423,-3.778118,11.030810104521718,9.09624076376828,fall
10/07/2020, 21:37:07,1.2514462,-11.392229,-2.37368,-8.084977,1.7608423,-3.778118,11.703988995734862,9.09624076376828,fall
10/07/2020, 21:37:08,2.629712,-7.051648,-5.9007006,-0.3162678,-0.05372889,-0.015874445,9.56344051325827,0.32119169601570063,fall
10/07/2020, 21:37:08,2.629712,-7.051648,-5.9007006,-0.2845189,-0.045181114,0.06227667,9.56344051325827,0.29473839183081685,fall
10/07/2020, 21:37:08,2.6919255,-7.2693954,-6.0418773,-0.2845189,-0.045181114,0.06227667,9.828268044446494,0.29473839183081685,fall
10/07/2020, 21:37:08,2.6919255,-7.2693954,-6.0418773,-0.27719223,-0.03174889,0.13554333,9.828268044446494,0.3101862697275244,fall
10/07/2020, 21:37:08,2.629712,-7.432107,-6.111269,-0.27719223,-0.03174889,0.13554333,9.974928999725243,0.3101862697275244,fall
10/07/2020, 21:37:08,2.629712,-7.432107,-6.111269,-0.31871,-0.036633335,0.15630223,9.974928999725243,0.356859148070375,fall
10/07/2020, 21:37:08,2.5555346,-7.4033933,-6.0394845,-0.31871,-0.036633335,0.15630223,9.89021546902556,0.356859148070375,fall
10/07/2020, 21:37:08,2.5555346,-7.4033933,-6.0394845,-0.4151778,-0.051286668,0.13188,9.89021546902556,0.43862883621763754,fall
10/07/2020, 21:37:08,2.5627131,-7.2789664,-6.017949,-0.4151778,-0.051286668,0.13188,9.786039154581939,0.43862883621763754,fall
10/07/2020, 21:37:08,2.5627131,-7.2789664,-6.017949,-0.5458367,-0.08059334,0.15019667,9.786039154581939,0.5718321568126008,fall
10/07/2020, 21:37:08,2.6009982,-7.216753,-6.0083776,-0.5458367,-0.08059334,0.15019667,9.74409134820691,0.5718321568126008,fall
10/07/2020, 21:37:08,2.6009982,-7.216753,-6.0083776,-0.67283225,-0.12699556,0.21369445,9.74409134820691,0.7172840650235038,fall
10/07/2020, 21:37:08,2.6368906,-7.1784678,-5.994021,-0.67283225,-0.12699556,0.21369445,9.71657751269999,0.7172840650235038,fall
10/07/2020, 21:37:08,2.6368906,-7.1784678,-5.994021,-0.76441556,-0.15752333,0.2869611,9.71657751269999,0.8315596371787631,fall
10/07/2020, 21:37:08,2.6344976,-7.056434,-5.9676995,-0.76441556,-0.15752333,0.2869611,9.60974913609946,0.8315596371787631,fall
10/07/2020, 21:37:08,2.6344976,-7.056434,-5.9676995,-0.81448114,-0.16362889,0.28818223,9.60974913609946,0.8793195875727812,fall
10/07/2020, 21:37:08,2.5172493,-6.9248285,-6.096912,-0.81448114,-0.16362889,0.28818223,9.563583493332667,0.8793195875727812,fall
10/07/2020, 21:37:08,2.5172493,-6.9248285,-6.096912,-0.77052116,-0.16240779,0.23201112,9.563583493332667,0.8209191889638537,fall
10/07/2020, 21:37:08,2.3712873,-6.8099732,-6.4008007,-0.77052116,-0.16240779,0.23201112,9.642042774716478,0.8209191889638537,fall
10/07/2020, 21:37:08,2.3712873,-6.8099732,-6.4008007,-0.40174556,-0.117226675,0.068382226,9.642042774716478,0.42404918982426953,fall
10/07/2020, 21:37:09,2.28036,-8.831908,-4.7712884,0.53484666,2.5069413,-0.29795113,10.294068074108868,2.5806182602214096,fall
10/07/2020, 21:37:09,2.1367905,-9.15494,-4.776074,0.53484666,2.5069413,-0.29795113,10.544651532090318,2.5806182602214096,fall
10/07/2020, 21:37:09,2.1367905,-9.15494,-4.776074,0.51164556,2.591198,-0.23323223,10.544651532090318,2.6515062425861884,fall
10/07/2020, 21:37:09,2.1798615,-9.413364,-4.7856455,0.51164556,2.591198,-0.23323223,10.782654060489579,2.6515062425861884,fall
10/07/2020, 21:37:09,2.1798615,-9.413364,-4.7856455,0.5592689,2.734068,-0.24422224,10.782654060489579,2.8013485269174296,fall
10/07/2020, 21:37:09,2.388037,-9.348758,-4.503292,0.5592689,2.734068,-0.24422224,10.648081118066765,2.8013485269174296,fall
10/07/2020, 21:37:09,2.388037,-9.348758,-4.503292,0.71801335,2.9270034,-0.36755446,10.648081118066765,3.036114004983347,fall
10/07/2020, 21:37:09,2.4430718,-9.353543,-4.3812585,0.71801335,2.9270034,-0.36755446,10.613802234925094,3.036114004983347,fall
10/07/2020, 21:37:09,2.4430718,-9.353543,-4.3812585,0.9402556,3.0967379,-0.3944189,10.613802234925094,3.260281001494625,fall
10/07/2020, 21:37:09,2.184647,-9.590433,-4.362116,0.9402556,3.0967379,-0.3944189,10.759978861390858,3.260281001494625,fall
10/07/2020, 21:37:09,2.184647,-9.590433,-4.362116,1.1283067,3.06621,-0.38831335,10.759978861390858,3.290213873238879,fall
10/07/2020, 21:37:09,1.8927227,-9.688539,-4.610969,1.1283067,3.06621,-0.38831335,10.895467604052705,3.290213873238879,fall
10/07/2020, 21:37:09,1.8927227,-9.688539,-4.610969,1.2565234,2.9831746,-0.34679556,10.895467604052705,3.2555258578284976,fall
10/07/2020, 21:37:09,1.7443677,-9.573684,-4.8526444,1.2565234,2.9831746,-0.34679556,10.87411592553573,3.2555258578284976,fall
10/07/2020, 21:37:09,1.7443677,-9.573684,-4.8526444,1.3249056,2.911129,-0.32359445,10.87411592553573,3.2147722080022842,fall
10/07/2020, 21:37:09,1.7994026,-9.458828,-4.8358946,1.3249056,2.911129,-0.32359445,10.774653253953039,3.2147722080022842,fall
10/07/2020, 21:37:09,1.7994026,-9.458828,-4.8358946,1.3102523,2.878159,-0.29795113,10.774653253953039,3.1763714337272235,fall
10/07/2020, 21:37:09,1.9453648,-9.269794,-4.871787,1.3102523,2.878159,-0.29795113,10.651189746091864,3.1763714337272235,fall
10/07/2020, 21:37:09,1.9453648,-9.269794,-4.871787,1.2101212,2.8048923,-0.2845189,10.651189746091864,3.068022984864952,fall
10/07/2020, 21:37:09,2.1511476,-9.128618,-4.8095737,1.2101212,2.8048923,-0.2845189,10.53997655075915,3.068022984864952,fall
10/07/2020, 21:37:10,7.207182,-1.9740787,-0.63170516,0.03174889,-0.61666113,0.6984756,7.4993005895476585,0.9322805939368596,fall
10/07/2020, 21:37:10,7.460821,-2.1224337,-0.66999036,0.03174889,-0.61666113,0.6984756,7.785721802953352,0.9322805939368596,fall
10/07/2020, 21:37:10,7.460821,-2.1224337,-0.66999036,-0.091583334,-0.54095227,0.79250115,7.785721802953352,0.9638853332058761,fall
10/07/2020, 21:37:10,7.8029947,-2.4191437,-0.6771688,-0.091583334,-0.54095227,0.79250115,8.197410592425944,0.9638853332058761,fall
10/07/2020, 21:37:10,7.8029947,-2.4191437,-0.6771688,-0.14409111,-0.44448447,0.80227005,8.197410592425944,0.9284212062417253,fall
10/07/2020, 21:37:10,8.248059,-2.4933212,-0.74177504,-0.14409111,-0.44448447,0.80227005,8.648546842055929,0.9284212062417253,fall
10/07/2020, 21:37:10,8.248059,-2.4933212,-0.74177504,-0.117226675,-0.35778558,0.69237006,8.648546842055929,0.7881173214817603,fall
10/07/2020, 21:37:10,8.547162,-2.6368906,-0.8350951,-0.117226675,-0.35778558,0.69237006,8.98357141390006,0.7881173214817603,fall
10/07/2020, 21:37:10,8.547162,-2.6368906,-0.8350951,-0.09036223,-0.31382558,0.5556056,8.98357141390006,0.6444760642906538,fall
10/07/2020, 21:37:10,8.664411,-2.7732813,-1.0097711,-0.09036223,-0.31382558,0.5556056,9.15329109944029,0.6444760642906538,fall
10/07/2020, 21:37:10,8.664411,-2.7732813,-1.0097711,-0.05250778,-0.3052778,0.41884112,9.15329109944029,0.5209409618088415,fall
10/07/2020, 21:37:10,8.678768,-2.7637103,-1.1365907,-0.05250778,-0.3052778,0.41884112,9.178831603533125,0.5209409618088415,fall
10/07/2020, 21:37:10,8.678768,-2.7637103,-1.1365907,-0.017095556,-0.29306668,0.29673,9.178831603533125,0.41740751918830443,fall
10/07/2020, 21:37:10,8.666803,-2.8307092,-1.3567305,-0.017095556,-0.29306668,0.29673,9.217760720869139,0.41740751918830443,fall
10/07/2020, 21:37:10,8.666803,-2.8307092,-1.3567305,0.008547778,-0.2845189,0.19904111,9.217760720869139,0.34733475543521747,fall
10/07/2020, 21:37:10,8.611769,-2.9503503,-1.5696917,0.008547778,-0.2845189,0.19904111,9.237481216943056,0.34733475543521747,fall
10/07/2020, 21:37:10,8.611769,-2.9503503,-1.5696917,-0.026864445,-0.31382558,0.13798556,9.237481216943056,0.34387236806162935,fall
10/07/2020, 21:37:10,8.516056,-2.969493,-2.1942184,-0.026864445,-0.31382558,0.13798556,9.282009123085395,0.34387236806162935,fall
10/07/2020, 21:37:10,8.516056,-2.969493,-2.1942184,-0.10867889,-0.38953447,0.08792,9.282009123085395,0.41385762584226404,fall
10/07/2020, 21:37:10,8.487342,-3.0556345,-2.1224337,-0.10867889,-0.38953447,0.08792,9.266962773310096,0.41385762584226404,fall
10/07/2020, 21:37:11,9.652647,-1.2083755,-1.457229,-0.0036633336,0.13920668,0.18316667,9.836527950027882,0.2300911717610187,fall
10/07/2020, 21:37:11,9.652647,-1.2083755,-1.457229,-0.07448778,0.091583334,0.15630223,9.836527950027882,0.1958732333025134,fall
10/07/2020, 21:37:11,9.619147,-1.1892328,-1.5170496,-0.07448778,0.091583334,0.15630223,9.810387803148403,0.1958732333025134,fall
10/07/2020, 21:37:11,9.619147,-1.1892328,-1.5170496,-0.15874445,0.02198,0.12455334,9.810387803148403,0.20296910148382685,fall
10/07/2020, 21:37:11,9.619147,-1.105484,-1.4715859,-0.15874445,0.02198,0.12455334,9.793653795126941,0.20296910148382685,fall
10/07/2020, 21:37:11,9.619147,-1.105484,-1.4715859,-0.21003112,-0.042738892,0.07326667,9.793653795126941,0.22651200861218346,fall
10/07/2020, 21:37:11,9.726824,-1.1126626,-1.2658032,-0.21003112,-0.042738892,0.07326667,9.87174640642785,0.22651200861218346,fall
10/07/2020, 21:37:11,9.726824,-1.1126626,-1.2658032,-0.23079,-0.064718895,-0.0036633336,9.87174640642785,0.2397206318767357,fall
10/07/2020, 21:37:11,9.817751,-1.1940185,-1.1437693,-0.23079,-0.064718895,-0.0036633336,9.956009321352676,0.2397206318767357,fall
10/07/2020, 21:37:11,9.817751,-1.1940185,-1.1437693,-0.21980001,-0.051286668,-0.081814446,9.956009321352676,0.24007492645368123,fall
10/07/2020, 21:37:11,9.937392,-1.3686945,-1.026521,-0.21980001,-0.051286668,-0.081814446,10.083592340000887,0.24007492645368123,fall
10/07/2020, 21:37:11,9.937392,-1.3686945,-1.026521,-0.21369445,-0.0012211112,-0.16485001,10.083592340000887,0.26989319505824566,fall
10/07/2020, 21:37:11,9.992428,-1.5672989,-0.94755775,-0.21369445,-0.0012211112,-0.16485001,10.158883075856673,0.26989319505824566,fall
10/07/2020, 21:37:11,9.992428,-1.5672989,-0.94755775,-0.22346334,0.036633335,-0.2295689,10.158883075856673,0.32245890515469455,fall
10/07/2020, 21:37:11,9.851251,-1.8281165,-0.86859465,-0.22346334,0.036633335,-0.2295689,10.057017752251472,0.32245890515469455,fall
10/07/2020, 21:37:11,9.851251,-1.8281165,-0.86859465,-0.20148334,0.059834447,-0.2185789,10.057017752251472,0.30323659837671635,fall
10/07/2020, 21:37:11,9.521041,-2.0195422,-0.89730847,-0.20148334,0.059834447,-0.2185789,9.774146171818119,0.30323659837671635,fall
10/07/2020, 21:37:11,9.521041,-2.0195422,-0.89730847,-0.16973445,-0.019537779,-0.17706113,9.774146171818119,0.2460531444767875,fall
10/07/2020, 21:37:11,9.363115,-1.9046868,-0.6867401,-0.16973445,-0.019537779,-0.17706113,9.57952880496532,0.2460531444767875,fall
10/07/2020, 21:37:11,9.363115,-1.9046868,-0.6867401,-0.070824444,-0.042738892,-0.06349778,9.57952880496532,0.10428174863491048,fall
10/07/2020, 21:37:12,-3.4743786,0.4331009,-9.367901,-0.18927222,0.12577444,0.05372889,10.000822429189814,0.23351655028059806,fall
10/07/2020, 21:37:12,-3.3834512,0.48095736,-9.092726,-0.18927222,0.12577444,0.05372889,9.713738919475139,0.23351655028059806,fall
10/07/2020, 21:37:12,-3.3834512,0.48095736,-9.092726,-0.23445335,0.14531223,0.019537779,9.713738919475139,0.2765244000657995,fall
10/07/2020, 21:37:12,-3.2805598,0.5072784,-9.312865,-0.23445335,0.14531223,0.019537779,9.886802471780546,0.2765244000657995,fall
10/07/2020, 21:37:12,-3.2805598,0.5072784,-9.312865,-0.19782001,0.09280445,-0.0012211112,9.886802471780546,0.2185106678123127,fall
10/07/2020, 21:37:12,-3.3427732,0.2416751,-9.119047,-0.19782001,0.09280445,-0.0012211112,9.715429002747456,0.2185106678123127,fall
10/07/2020, 21:37:12,-3.3427732,0.2416751,-9.119047,-0.14897557,0.059834447,0.0048844446,9.715429002747456,0.16061674287611752,fall
10/07/2020, 21:37:12,-3.3020952,0.5288138,-9.001799,-0.14897557,0.059834447,0.0048844446,9.602908680569902,0.16061674287611752,fall
10/07/2020, 21:37:12,-3.3020952,0.5288138,-9.001799,-0.106236674,0.08425667,-0.0024422223,9.602908680569902,0.1356148295711127,fall
10/07/2020, 21:37:12,-3.2925239,0.5814559,-8.930014,-0.106236674,0.08425667,-0.0024422223,9.535404985103776,0.1356148295711127,fall
10/07/2020, 21:37:12,-3.2925239,0.5814559,-8.930014,-0.07570889,0.06105556,-0.007326667,9.535404985103776,0.09753613285214792,fall
10/07/2020, 21:37:12,-3.1896327,0.5814559,-9.040084,-0.07570889,0.06105556,-0.007326667,9.603903584886028,0.09753613285214792,fall
10/07/2020, 21:37:12,-3.1896327,0.5814559,-9.040084,-0.05250778,-0.007326667,-0.0012211112,9.603903584886028,0.05303054003978525,fall
10/07/2020, 21:37:12,-3.1106694,0.60059845,-9.080762,-0.05250778,-0.007326667,-0.0012211112,9.617547468950168,0.05303054003978525,fall
10/07/2020, 21:37:12,-3.1106694,0.60059845,-9.080762,-0.009768889,-0.04029667,-0.0061055557,9.617547468950168,0.04191098454099592,fall
10/07/2020, 21:37:12,-3.141776,0.61734825,-9.0233345,-0.009768889,-0.04029667,-0.0061055557,9.574572647914682,0.04191098454099592,fall
10/07/2020, 21:37:12,-3.141776,0.61734825,-9.0233345,0.0048844446,-0.03052778,-0.013432222,9.574572647914682,0.03370797739510511,fall
10/07/2020, 21:37:12,-3.17049,0.58624154,-9.018549,0.0048844446,-0.03052778,-0.013432222,9.577573366847519,0.03370797739510511,fall
10/07/2020, 21:37:12,-3.17049,0.58624154,-9.018549,-0.0024422223,-0.024422223,-0.013432222,9.577573366847519,0.027979171055256217,fall
10/07/2020, 21:37:12,-3.158526,0.5240282,-9.068798,-0.0024422223,-0.024422223,-0.013432222,9.617379581780833,0.027979171055256217,fall
10/07/2020, 21:37:13,-3.2614172,0.27756742,-9.202796,-0.09280445,0.025643334,-0.02198,9.76756568409852,0.09875913297470382,fall
10/07/2020, 21:37:13,-3.586841,0.0023928226,-9.085547,-0.09280445,0.025643334,-0.02198,9.767937718048419,0.09875913297470382,fall
10/07/2020, 21:37:13,-3.586841,0.0023928226,-9.085547,0.035412222,-0.042738892,-0.0024422223,9.767937718048419,0.05555720320929376,fall
10/07/2020, 21:37:13,-3.8141594,-0.33738798,-9.126225,0.035412222,-0.042738892,-0.0024422223,9.896950736593896,0.05555720320929376,fall
10/07/2020, 21:37:13,-3.8141594,-0.33738798,-9.126225,0.0036633336,-0.064718895,-0.0024422223,9.896950736593896,0.06486848070515167,fall
10/07/2020, 21:37:13,-3.6083765,-0.3684947,-9.710074,0.0036633336,-0.064718895,-0.0024422223,10.365409526765449,0.06486848070515167,fall
10/07/2020, 21:37:13,-3.6083765,-0.3684947,-9.710074,-0.014653334,-0.51164556,-0.09768889,10.365409526765449,0.5210940549377387,fall
10/07/2020, 21:37:13,-3.2853456,-0.33499518,-9.992428,-0.014653334,-0.51164556,-0.09768889,10.523988361773501,0.5210940549377387,fall
10/07/2020, 21:37:13,-3.2853456,-0.33499518,-9.992428,0.16729222,-0.93537116,-0.117226675,10.523988361773501,0.9574173535846413,fall
10/07/2020, 21:37:13,-3.4456646,-0.41635114,-9.492328,0.16729222,-0.93537116,-0.117226675,10.106940095235554,0.9574173535846413,fall
10/07/2020, 21:37:13,-3.4456646,-0.41635114,-9.492328,0.15996556,-0.9133912,0.0024422223,10.106940095235554,0.927296273847106,fall
10/07/2020, 21:37:13,-3.6921253,-0.46660042,-9.152547,0.15996556,-0.9133912,0.0024422223,9.88021354884021,0.927296273847106,fall
10/07/2020, 21:37:13,-3.6921253,-0.46660042,-9.152547,0.01099,-0.8498934,0.013432222,9.88021354884021,0.8500705741271162,fall
10/07/2020, 21:37:13,-4.0127635,-0.52163535,-9.253045,0.01099,-0.8498934,0.013432222,10.099169156023084,0.8500705741271162,fall
10/07/2020, 21:37:13,-4.0127635,-0.52163535,-9.253045,-0.14775445,-0.96956223,0.047623336,10.099169156023084,0.9819115444158262,fall
10/07/2020, 21:37:13,-3.9840498,-0.76331043,-9.286545,-0.14775445,-0.96956223,0.047623336,10.13386451066329,0.9819115444158262,fall
10/07/2020, 21:37:13,-3.9840498,-0.76331043,-9.286545,-0.18072446,-1.0843467,0.1746189,10.13386451066329,1.1130861382974502,fall
10/07/2020, 21:37:13,-4.0510488,-0.6867401,-8.987442,-0.18072446,-1.0843467,0.1746189,9.882141568904448,1.1130861382974502,fall
10/07/2020, 21:37:13,-4.0510488,-0.6867401,-8.987442,-0.16485001,-1.0281756,0.2185789,9.882141568904448,1.0640006169111176,fall
10/07/2020, 21:37:13,-4.1443686,-0.3278167,-8.738588,-0.16485001,-1.0281756,0.2185789,9.677095707717708,1.0640006169111176,fall
10/07/2020, 21:37:14,-10.4016,7.635497,-1.6821543,-0.45547447,-2.2688246,-0.38709223,13.012445546072387,2.3462443070957804,fall
10/07/2020, 21:37:14,-10.4016,7.635497,-1.6821543,-0.6899278,-2.504499,-0.10379445,13.012445546072387,2.5998632104109625,fall
10/07/2020, 21:37:14,-10.205389,7.1856465,-1.9286151,-0.6899278,-2.504499,-0.10379445,12.629451191408856,2.5998632104109625,fall
10/07/2020, 21:37:14,-10.205389,7.1856465,-1.9286151,-0.5324045,-2.5765445,0.32970002,12.629451191408856,2.6515539440485596,fall
10/07/2020, 21:37:14,-10.037891,6.800402,-1.9118652,-0.5324045,-2.5765445,0.32970002,12.274361970744653,2.6515539440485596,fall
10/07/2020, 21:37:14,-10.037891,6.800402,-1.9118652,-0.078151114,-2.8537369,0.89385337,12.274361970744653,2.991470475019414,fall
10/07/2020, 21:37:14,-9.88475,6.5347986,-1.605584,-0.078151114,-2.8537369,0.89385337,11.957833536919724,2.991470475019414,fall
10/07/2020, 21:37:14,-9.88475,6.5347986,-1.605584,0.5287411,-2.9086869,1.2894934,11.957833536919724,3.2253402694242834,fall
10/07/2020, 21:37:14,-9.473185,7.1545396,-0.47138608,0.5287411,-2.9086869,1.2894934,11.880693064757816,3.2253402694242834,fall
10/07/2020, 21:37:14,-9.473185,7.1545396,-0.47138608,1.0635878,-2.2712667,0.78273225,11.880693064757816,2.627268765408611,fall
10/07/2020, 21:37:14,-9.377472,8.200203,0.8135597,1.0635878,-2.2712667,0.78273225,12.483676837124928,2.627268765408611,fall
10/07/2020, 21:37:14,-9.377472,8.200203,0.8135597,1.2662922,-1.4311423,-0.43227336,12.483676837124928,1.9592153014832623,fall
10/07/2020, 21:37:14,-9.626326,8.740981,1.538585,1.2662922,-1.4311423,-0.43227336,13.093438775357535,1.9592153014832623,fall
10/07/2020, 21:37:14,-9.626326,8.740981,1.538585,1.0342811,-1.0391656,-1.3908457,13.093438775357535,2.0209043230355395,fall
10/07/2020, 21:37:14,-9.667004,8.499306,2.2564318,1.0342811,-1.0391656,-1.3908457,13.068306759913757,2.0209043230355395,fall
10/07/2020, 21:37:14,-9.667004,8.499306,2.2564318,0.4493689,-0.80471224,-1.7681689,13.068306759913757,1.9939697934907694,fall
10/07/2020, 21:37:14,-9.518648,8.748159,2.8761728,0.4493689,-0.80471224,-1.7681689,13.24414306255172,1.9939697934907694,fall
10/07/2020, 21:37:14,-9.518648,8.748159,2.8761728,-0.1526389,-0.5128667,-2.0368135,13.24414306255172,2.10592974335443,fall
10/07/2020, 21:37:14,-9.52822,8.738588,3.1561332,-0.1526389,-0.5128667,-2.0368135,13.308308773439467,2.10592974335443,fall
10/07/2020, 21:37:14,-9.52822,8.738588,3.1561332,-0.54095227,-0.10867889,-2.4361167,13.308308773439467,2.497820051272878,fall
10/07/2020, 21:37:15,-6.4127645,-4.9435716,0.39960137,-0.53484666,-0.2503278,-1.3822979,8.10691866633147,1.5031541404083462,fall
10/07/2020, 21:37:15,-6.3385873,-5.1996036,0.2440679,-0.53484666,-0.2503278,-1.3822979,8.202020181483451,1.5031541404083462,fall
10/07/2020, 21:37:15,-6.3385873,-5.1996036,0.2440679,-0.6020078,-0.25887558,-1.2223322,8.202020181483451,1.3869124222288,fall
10/07/2020, 21:37:15,-6.3625154,-5.615955,0.050249275,-0.6020078,-0.25887558,-1.2223322,8.486641090779834,1.3869124222288,fall
10/07/2020, 21:37:15,-6.3625154,-5.615955,0.050249275,-0.5104245,-0.3931978,-0.93537116,8.486641090779834,1.135806711705456,fall
10/07/2020, 21:37:15,-6.4175506,-5.881558,-0.10049855,-0.5104245,-0.3931978,-0.93537116,8.705617669990149,1.135806711705456,fall
10/07/2020, 21:37:15,-6.4175506,-5.881558,-0.10049855,-0.3260367,-0.55438447,-0.6239878,8.705617669990149,0.8961042527731199,fall
10/07/2020, 21:37:15,-6.3314085,-6.0370917,-0.069391854,-0.3260367,-0.55438447,-0.6239878,8.748601340367314,0.8961042527731199,fall
10/07/2020, 21:37:15,-6.3314085,-6.0370917,-0.069391854,-0.11478445,-0.62643003,-0.37366003,8.748601340367314,0.7383846386650601,fall
10/07/2020, 21:37:15,-6.1328044,-6.084948,0.02871387,-0.11478445,-0.62643003,-0.37366003,8.639369603550394,0.7383846386650601,fall
10/07/2020, 21:37:15,-6.1328044,-6.084948,0.02871387,0.10135223,-0.60445005,-0.21369445,8.639369603550394,0.6490743047996903,fall
10/07/2020, 21:37:15,-5.960521,-6.0921264,0.11246266,0.10135223,-0.60445005,-0.21369445,8.523758841025373,0.6490743047996903,fall
10/07/2020, 21:37:15,-5.960521,-6.0921264,0.11246266,0.28818223,-0.55438447,-0.064718895,8.523758841025373,0.6281557711952663,fall
10/07/2020, 21:37:15,-5.898308,-6.1710896,0.19381863,0.28818223,-0.55438447,-0.064718895,8.538732225941445,0.6281557711952663,fall
10/07/2020, 21:37:15,-5.898308,-6.1710896,0.19381863,0.4151778,-0.5043189,0.08059334,8.538732225941445,0.6581834330096988,fall
10/07/2020, 21:37:15,-5.8935223,-6.1160545,0.30867413,0.4151778,-0.5043189,0.08059334,8.499118039541534,0.6581834330096988,fall
10/07/2020, 21:37:15,-5.8935223,-6.1160545,0.30867413,0.4689067,-0.48722336,0.21735778,8.499118039541534,0.7102848019875322,fall
10/07/2020, 21:37:15,-5.907879,-6.0825553,0.48095736,0.4689067,-0.48722336,0.21735778,8.493046078798242,0.7102848019875322,fall
10/07/2020, 21:37:15,-5.907879,-6.0825553,0.48095736,0.44570556,-0.46158,0.34313223,8.493046078798242,0.7276326534928047,fall
10/07/2020, 21:37:15,-5.9318075,-6.0011992,0.61734825,0.44570556,-0.46158,0.34313223,8.460605869597577,0.7276326534928047,fall
10/07/2020, 21:37:16,5.1828537,-17.178074,-3.1106694,-3.3140957,0.10867889,-7.2448525,18.210558990636095,7.967617587086251,fall
10/07/2020, 21:37:16,6.558727,-17.833708,-3.2422748,-3.3140957,0.10867889,-7.2448525,19.27616084529905,7.967617587086251,fall
10/07/2020, 21:37:16,6.558727,-17.833708,-3.2422748,-1.9745368,-0.109900005,-6.7747245,19.27616084529905,7.057461676853284,fall
10/07/2020, 21:37:16,8.374879,-15.912271,-3.3882368,-1.9745368,-0.109900005,-6.7747245,18.298062700406618,7.057461676853284,fall
10/07/2020, 21:37:16,8.374879,-15.912271,-3.3882368,-0.72411895,-0.17217667,-6.5500402,18.298062700406618,6.592193888968644,fall
10/07/2020, 21:37:16,9.52822,-13.229917,-3.3379877,-0.72411895,-0.17217667,-6.5500402,16.64211025922488,6.592193888968644,fall
10/07/2020, 21:37:16,9.52822,-13.229917,-3.3379877,0.19782001,-0.039075557,-6.1336412,16.64211025922488,6.136954827294184,fall
10/07/2020, 21:37:16,9.91825,-10.451849,-2.184647,0.19782001,-0.039075557,-6.1336412,14.573452397601677,6.136954827294184,fall
10/07/2020, 21:37:16,9.91825,-10.451849,-2.184647,0.7314456,0.50676113,-5.8906403,14.573452397601677,5.957471123406264,fall
10/07/2020, 21:37:16,9.554541,-8.236095,-0.71306115,0.7314456,0.50676113,-5.8906403,12.634515061755279,5.957471123406264,fall
10/07/2020, 21:37:16,9.554541,-8.236095,-0.71306115,0.88042116,1.0880101,-5.602458,12.634515061755279,5.774637909342369,fall
10/07/2020, 21:37:16,8.872586,-6.707082,0.44985065,0.88042116,1.0880101,-5.602458,11.131491300652575,5.774637909342369,fall
10/07/2020, 21:37:16,8.872586,-6.707082,0.44985065,1.0269545,1.1466234,-5.2043757,11.131491300652575,5.42723757108896,fall
10/07/2020, 21:37:16,8.178668,-5.5369916,0.6795616,1.0269545,1.1466234,-5.2043757,9.90003487578875,5.42723757108896,fall
10/07/2020, 21:37:16,8.178668,-5.5369916,0.6795616,1.39573,0.7900589,-4.690288,9.90003487578875,4.956920164541719,fall
10/07/2020, 21:37:16,7.6666036,-4.718646,0.64606214,1.39573,0.7900589,-4.690288,9.025509794456024,4.956920164541719,fall
10/07/2020, 21:37:16,7.6666036,-4.718646,0.64606214,1.5764545,0.20514667,-3.9307568,9.025509794456024,4.24006404303536,fall
10/07/2020, 21:37:16,7.4679995,-4.4817567,0.9834501,1.5764545,0.20514667,-3.9307568,8.764949117961931,4.24006404303536,fall
10/07/2020, 21:37:16,7.4679995,-4.4817567,0.9834501,1.3676445,-0.12699556,-3.0039334,8.764949117961931,3.3030585120673104,fall
10/07/2020, 21:37:16,7.7790666,-4.2831526,1.8879371,1.3676445,-0.12699556,-3.0039334,9.078743249384948,3.3030585120673104,fall
10/07/2020, 21:37:17,10.492527,-5.7451673,-0.23449662,-1.6949023,0.72411895,2.2895834,11.964742307031337,2.939257458945602,fall
10/07/2020, 21:37:17,10.480563,-5.905486,-0.58624154,-1.6949023,0.72411895,2.2895834,12.044112650380447,2.939257458945602,fall
10/07/2020, 21:37:17,10.480563,-5.905486,-0.58624154,-1.9244711,1.0330601,1.8646368,12.044112650380447,2.87187614661521,fall
10/07/2020, 21:37:17,10.451849,-5.948557,-0.8279166,-1.9244711,1.0330601,1.8646368,12.054539489565833,2.87187614661521,fall
10/07/2020, 21:37:17,10.451849,-5.948557,-0.8279166,-2.2444024,1.2577446,1.3896245,12.054539489565833,2.9240929725400266,fall
10/07/2020, 21:37:17,10.396814,-5.936593,-1.0815558,-2.2444024,1.2577446,1.3896245,12.021091826588997,2.9240929725400266,fall
10/07/2020, 21:37:17,10.396814,-5.936593,-1.0815558,-2.6852233,1.4677756,0.9097278,12.021091826588997,3.192552935412306,fall
10/07/2020, 21:37:17,10.470992,-5.797809,-1.2442678,-2.6852233,1.4677756,0.9097278,12.033472830526662,3.192552935412306,fall
10/07/2020, 21:37:17,10.470992,-5.797809,-1.2442678,-3.1577935,1.5996556,0.53484666,12.033472830526662,3.580030587733921,fall
10/07/2020, 21:37:17,10.710274,-5.802595,-1.1509477,-3.1577935,1.5996556,0.53484666,12.235389432711639,3.580030587733921,fall
10/07/2020, 21:37:17,10.710274,-5.802595,-1.1509477,-3.5229056,1.7034501,0.27475002,12.235389432711639,3.9227660580920958,fall
10/07/2020, 21:37:17,11.009377,-5.905486,-1.0815558,-3.5229056,1.7034501,0.27475002,12.539972116768439,3.9227660580920958,fall
10/07/2020, 21:37:17,11.009377,-5.905486,-1.0815558,-3.7732334,1.8170134,0.09402556,12.539972116768439,4.188993773425261,fall
10/07/2020, 21:37:17,11.301301,-6.300302,-0.9834501,-3.7732334,1.8170134,0.09402556,12.976146736593504,4.188993773425261,fall
10/07/2020, 21:37:17,11.301301,-6.300302,-0.9834501,-3.834289,2.0270445,-0.09036223,12.976146736593504,4.3380695684240935,fall
10/07/2020, 21:37:17,11.4903345,-6.884151,-0.72263247,-3.834289,2.0270445,-0.09036223,13.414228251943321,4.3380695684240935,fall
10/07/2020, 21:37:17,11.4903345,-6.884151,-0.72263247,-3.7170625,2.1955578,-0.26864445,13.414228251943321,4.325412982461216,fall
10/07/2020, 21:37:17,11.408978,-7.331609,-0.9523434,-3.7170625,2.1955578,-0.26864445,13.595007712422388,4.325412982461216,fall
10/07/2020, 21:37:17,11.408978,-7.331609,-0.9523434,-3.515579,2.3103423,-0.44570556,13.595007712422388,4.2303227593156665,fall
10/07/2020, 21:37:17,11.303694,-7.690532,-0.94277215,-3.515579,2.3103423,-0.44570556,13.704254734864323,4.2303227593156665,fall
10/07/2020, 21:37:18,7.2119675,5.704489,1.6917256,-0.5885756,-0.19293556,-0.8071545,9.34963142034742,1.017420127957342,fall
10/07/2020, 21:37:18,7.2789664,5.761917,1.8735801,-0.5885756,-0.19293556,-0.8071545,9.470656970821462,1.017420127957342,fall
10/07/2020, 21:37:18,7.2789664,5.761917,1.8735801,-0.6325356,-0.14531223,-0.8364611,9.470656970821462,1.0587181485971795,fall
10/07/2020, 21:37:18,7.3052874,5.7284174,1.969293,-0.6325356,-0.14531223,-0.8364611,9.490000221873412,1.0587181485971795,fall
10/07/2020, 21:37:18,7.3052874,5.7284174,1.969293,-0.60933447,-0.059834447,-0.77052116,9.490000221873412,0.9841603121531428,fall
10/07/2020, 21:37:18,7.240681,5.6709895,2.050649,-0.60933447,-0.059834447,-0.77052116,9.422990338093724,0.9841603121531428,fall
10/07/2020, 21:37:18,7.240681,5.6709895,2.050649,-0.52141446,0.007326667,-0.64108336,9.422990338093724,0.8263864664642412,fall
10/07/2020, 21:37:18,7.1162543,5.625526,2.050649,-0.52141446,0.007326667,-0.64108336,9.300149404125255,0.8263864664642412,fall
10/07/2020, 21:37:18,7.1162543,5.625526,2.050649,-0.40785113,0.04029667,-0.5226356,9.300149404125255,0.6641643728948172,fall
10/07/2020, 21:37:18,6.9583282,5.7116675,2.0937197,-0.40785113,0.04029667,-0.5226356,9.242572170370408,0.6641643728948172,fall
10/07/2020, 21:37:18,6.9583282,5.7116675,2.0937197,-0.32237336,0.037854444,-0.45303226,9.242572170370408,0.5573111937400103,fall
10/07/2020, 21:37:18,6.771688,5.831309,2.120041,-0.32237336,0.037854444,-0.45303226,9.184470281767126,0.5573111937400103,fall
10/07/2020, 21:37:18,6.771688,5.831309,2.120041,-0.27719223,-0.013432222,-0.4371578,9.184470281767126,0.5178058616424046,fall
10/07/2020, 21:37:18,6.640083,5.9294147,2.160719,-0.27719223,-0.013432222,-0.4371578,9.160642203485166,0.5178058616424046,fall
10/07/2020, 21:37:18,6.640083,5.9294147,2.160719,-0.2515489,-0.07570889,-0.3834289,9.160642203485166,0.4647864030355336,fall
10/07/2020, 21:37:18,6.5898337,5.994021,2.210968,-0.2515489,-0.07570889,-0.3834289,9.17837541529326,0.4647864030355336,fall
10/07/2020, 21:37:18,6.5898337,5.994021,2.210968,-0.21613668,-0.08669889,-0.27719223,9.17837541529326,0.3620321762681048,fall
10/07/2020, 21:37:18,6.678368,6.0825553,2.3665016,-0.21613668,-0.08669889,-0.27719223,9.338008832257154,0.3620321762681048,fall
10/07/2020, 21:37:18,6.678368,6.0825553,2.3665016,-0.16973445,-0.047623336,-0.15752333,9.338008832257154,0.23641354831830574,fall
10/07/2020, 21:37:18,6.8051877,6.135197,2.416751,-0.16973445,-0.047623336,-0.15752333,9.475859266421914,0.23641354831830574,fall
10/07/2020, 21:37:19,0.29192436,0.04546363,-0.18424734,2.7853546,-0.6618422,1.0990001,0.3481865248118517,3.066600181356829,fall
10/07/2020, 21:37:19,0.29192436,0.04546363,-0.18424734,2.7975657,-0.6764956,1.0489345,0.3481865248118517,3.063377817285779,fall
10/07/2020, 21:37:19,0.31585258,0.1363909,-0.28235307,2.7975657,-0.6764956,1.0489345,0.44507144148115685,3.063377817285779,fall
10/07/2020, 21:37:19,0.31585258,0.1363909,-0.28235307,2.8549578,-0.77906895,0.9915423,0.44507144148115685,3.1210396768679995,fall
10/07/2020, 21:37:19,0.2943172,0.14117654,-0.22731815,2.8549578,-0.77906895,0.9915423,0.39777752952883483,3.1210396768679995,fall
10/07/2020, 21:37:19,0.2943172,0.14117654,-0.22731815,2.9392145,-0.88042116,0.9402556,0.39777752952883483,3.209081437250505,fall
10/07/2020, 21:37:19,0.30388847,0.13160525,-0.28953153,2.9392145,-0.88042116,0.9402556,0.439882542200975,3.209081437250505,fall
10/07/2020, 21:37:19,0.30388847,0.13160525,-0.28953153,3.0222502,-0.9268234,0.91217005,0.439882542200975,3.2901446626520565,fall
10/07/2020, 21:37:19,0.31585258,0.15792629,-0.3278167,3.0222502,-0.9268234,0.91217005,0.48183747551262585,3.2901446626520565,fall
10/07/2020, 21:37:19,0.31585258,0.15792629,-0.3278167,4.378905,-0.73755115,-1.07702,0.48183747551262585,4.569328321225225,fall
10/07/2020, 21:37:19,36.75615,27.854849,-12.696317,4.378905,-0.73755115,-1.07702,47.83412562296516,4.569328321225225,fall
10/07/2020, 21:37:19,36.75615,27.854849,-12.696317,1.5837811,-11.439369,-12.159825,47.83412562296516,16.769880211640785,fall
10/07/2020, 21:37:19,57.604813,53.127842,-38.084164,1.5837811,-11.439369,-12.159825,87.12798373400024,16.769880211640785,fall
10/07/2020, 21:37:19,57.604813,53.127842,-38.084164,-4.427749,-11.573691,-17.707333,87.12798373400024,21.612610269945396,fall
10/07/2020, 21:37:19,68.03034,61.51229,-43.389053,-4.427749,-11.573691,-17.707333,101.46181220122034,21.612610269945396,fall
10/07/2020, 21:37:19,68.03034,61.51229,-43.389053,-5.1811748,-0.59956557,-13.167242,101.46181220122034,14.162637957600763,fall
10/07/2020, 21:37:19,56.446686,35.48556,-29.388647,-5.1811748,-0.59956557,-13.167242,72.86388666380273,14.162637957600763,fall
10/07/2020, 21:37:19,56.446686,35.48556,-29.388647,-3.823299,5.272758,-4.8270526,72.86388666380273,8.106789034842501,fall
10/07/2020, 21:37:19,32.26243,26.574688,-14.696716,-3.823299,5.272758,-4.8270526,44.306565981444855,8.106789034842501,fall
10/07/2020, 21:37:19,32.26243,26.574688,-14.696716,-3.2164068,5.8405747,-1.74741,44.306565981444855,6.892824389869919,fall
10/07/2020, 21:37:20,6.5754766,10.054641,-2.9240294,-0.18927222,0.21369445,-1.8133501,12.364572042002653,1.8356818385377307,fall
10/07/2020, 21:37:20,6.5778694,9.755538,-3.1513474,-0.18927222,0.21369445,-1.8133501,12.180717461759123,1.8356818385377307,fall
10/07/2020, 21:37:20,6.5778694,9.755538,-3.1513474,-0.3309211,0.36511225,-2.0331502,12.180717461759123,2.0920122979239877,fall
10/07/2020, 21:37:20,6.15434,9.640682,-3.8476589,-0.3309211,0.36511225,-2.0331502,12.067440935460155,2.0920122979239877,fall
10/07/2020, 21:37:20,6.15434,9.640682,-3.8476589,-0.5006556,0.23445335,-2.27493,12.067440935460155,2.3411388043100074,fall
10/07/2020, 21:37:20,5.5704913,9.796216,-3.330809,-0.5006556,0.23445335,-2.27493,11.751191896287324,2.3411388043100074,fall
10/07/2020, 21:37:20,5.5704913,9.796216,-3.330809,-0.6459678,-0.06349778,-2.4666445,11.751191896287324,2.550615917459384,fall
10/07/2020, 21:37:20,5.032106,9.894321,-3.778267,-0.6459678,-0.06349778,-2.4666445,11.725825669287362,2.550615917459384,fall
10/07/2020, 21:37:20,5.032106,9.894321,-3.778267,-0.94514006,-0.19049335,-2.5631123,11.725825669287362,2.7384524656269655,fall
10/07/2020, 21:37:20,4.65404,10.085748,-3.586841,-0.94514006,-0.19049335,-2.5631123,11.672524285111296,2.7384524656269655,fall
10/07/2020, 21:37:20,4.65404,10.085748,-3.586841,-1.0635878,-0.11112112,-2.5875347,11.672524285111296,2.799804015794002,fall
10/07/2020, 21:37:20,4.4482574,10.183853,-3.1920254,-1.0635878,-0.11112112,-2.5875347,11.562304509858485,2.799804015794002,fall
10/07/2020, 21:37:20,4.4482574,10.183853,-3.1920254,-1.0342811,-0.06960334,-2.6302733,11.562304509858485,2.8271752588955685,fall
10/07/2020, 21:37:20,3.9314077,9.793823,-2.4430718,-1.0342811,-0.06960334,-2.6302733,10.83252233557363,2.8271752588955685,fall
10/07/2020, 21:37:20,3.9314077,9.793823,-2.4430718,-1.0184067,0.05372889,-2.5521224,10.83252233557363,2.7483390642178605,fall
10/07/2020, 21:37:20,3.5964124,9.738789,-1.9740787,-1.0184067,0.05372889,-2.5521224,10.56764743552322,2.7483390642178605,fall
10/07/2020, 21:37:20,3.5964124,9.738789,-1.9740787,-0.79616445,0.3712178,-2.438559,10.56764743552322,2.5919588631331445,fall
10/07/2020, 21:37:20,3.4073794,9.389436,-1.3160524,-0.79616445,0.3712178,-2.438559,10.074906071996665,2.5919588631331445,fall
10/07/2020, 21:37:20,3.4073794,9.389436,-1.3160524,-0.59346,0.6874856,-2.2798145,10.074906071996665,2.4540548663935517,fall
10/07/2020, 21:37:20,3.4097722,8.092526,-0.74416786,-0.59346,0.6874856,-2.2798145,8.813019692050506,2.4540548663935517,fall
10/07/2020, 21:37:21,-3.8356948,5.905486,-2.239682,0.90362227,0.081814446,-0.30039334,7.3894178361883815,0.9557525674437576,fall
10/07/2020, 21:37:21,-3.8356948,5.905486,-2.239682,0.96223557,0.17217667,-0.23079,7.3894178361883815,1.0043934115501658,fall
10/07/2020, 21:37:21,-3.9601214,5.6183476,-2.2085752,0.96223557,0.17217667,-0.23079,7.219847390080827,1.0043934115501658,fall
10/07/2020, 21:37:21,-3.9601214,5.6183476,-2.2085752,0.9378134,0.21369445,-0.22468445,7.219847390080827,0.9877461190020014,fall
10/07/2020, 21:37:21,-4.091727,5.2689953,-2.3258235,0.9378134,0.21369445,-0.22468445,7.064983688584802,0.9877461190020014,fall
10/07/2020, 21:37:21,-4.091727,5.2689953,-2.3258235,0.8169234,0.21735778,-0.27230778,7.064983688584802,0.8881214691653003,fall
10/07/2020, 21:37:21,-4.132405,5.123033,-2.5124638,0.8169234,0.21735778,-0.27230778,7.045190661056714,0.8881214691653003,fall
10/07/2020, 21:37:21,-4.132405,5.123033,-2.5124638,0.6471889,0.26498112,-0.40540892,7.045190661056714,0.8083469927122766,fall
10/07/2020, 21:37:21,-4.197011,5.1828537,-2.8354948,0.6471889,0.26498112,-0.40540892,7.2468547840500905,0.8083469927122766,fall
10/07/2020, 21:37:21,-4.197011,5.1828537,-2.8354948,0.5006556,0.32359445,-0.56049,7.2468547840500905,0.8182410669938257,fall
10/07/2020, 21:37:21,-4.2711883,5.2642097,-3.0987053,0.5006556,0.32359445,-0.56049,7.453651983673038,0.8182410669938257,fall
10/07/2020, 21:37:21,-4.2711883,5.2642097,-3.0987053,0.37366003,0.43105224,-0.72534,7.453651983673038,0.9227924882939634,fall
10/07/2020, 21:37:21,-4.347759,5.4460645,-3.2614172,0.37366003,0.43105224,-0.72534,7.69411894806142,0.9227924882939634,fall
10/07/2020, 21:37:21,-4.347759,5.4460645,-3.2614172,0.29184556,0.58613336,-0.91583335,7.69411894806142,1.1258227568952104,fall
10/07/2020, 21:37:21,-4.386044,5.584848,-3.3643086,0.29184556,0.58613336,-0.91583335,7.857892903858327,1.1258227568952104,fall
10/07/2020, 21:37:21,-4.386044,5.584848,-3.3643086,0.31993112,0.7326667,-1.1148745,7.857892903858327,1.3718970382280091,fall
10/07/2020, 21:37:21,-4.479364,5.5800624,-3.3882368,0.31993112,0.7326667,-1.1148745,7.917193046221273,1.3718970382280091,fall
10/07/2020, 21:37:21,-4.479364,5.5800624,-3.3882368,0.41884112,0.8779789,-1.2711767,7.917193046221273,1.6006764396394073,fall
10/07/2020, 21:37:21,-4.5559344,5.45085,-3.4241292,0.41884112,0.8779789,-1.2711767,7.8862516735282915,1.6006764396394073,fall
10/07/2020, 21:37:21,-4.5559344,5.45085,-3.4241292,0.51164556,1.01108,-1.4238156,7.8862516735282915,1.8197018657892023,fall
10/07/2020, 21:37:22,-5.2331033,2.4454648,-6.664011,-0.1306589,0.19537778,-0.13310112,8.818997156662466,0.2701113340481709,fall
10/07/2020, 21:37:22,-5.2331033,2.4454648,-6.664011,-0.08303556,0.17217667,-0.14653334,8.818997156662466,0.24085624516808646,fall
10/07/2020, 21:37:22,-5.302495,2.589034,-6.71426,-0.08303556,0.17217667,-0.14653334,8.938726946960982,0.24085624516808646,fall
10/07/2020, 21:37:22,-5.302495,2.589034,-6.71426,0.036633335,0.08669889,-0.10379445,8.938726946960982,0.14011418975159803,fall
10/07/2020, 21:37:22,-5.2977095,2.8354948,-6.678368,0.036633335,0.08669889,-0.10379445,8.98367165794575,0.14011418975159803,fall
10/07/2020, 21:37:22,-5.2977095,2.8354948,-6.678368,0.19537778,-0.059834447,0.009768889,8.98367165794575,0.2045680080338775,fall
10/07/2020, 21:37:22,-5.312066,3.0173492,-6.541977,0.19537778,-0.059834447,0.009768889,8.950972271771581,0.2045680080338775,fall
10/07/2020, 21:37:22,-5.312066,3.0173492,-6.541977,0.33580557,-0.11478445,0.10379445,8.950972271771581,0.3697487455374759,fall
10/07/2020, 21:37:22,-5.278567,3.1848469,-6.465407,0.33580557,-0.11478445,0.10379445,8.933532549132991,0.3697487455374759,fall
10/07/2020, 21:37:22,-5.278567,3.1848469,-6.465407,0.36755446,-0.08792,0.24300112,8.933532549132991,0.44930585182309346,fall
10/07/2020, 21:37:22,-5.2283173,3.3260236,-6.410372,0.36755446,-0.08792,0.24300112,8.91575014160672,0.44930585182309346,fall
10/07/2020, 21:37:22,-5.2283173,3.3260236,-6.410372,0.3260367,-0.106236674,0.41884112,8.91575014160672,0.5413077147005741,fall
10/07/2020, 21:37:22,-5.343173,3.2542388,-6.32423,0.3260367,-0.106236674,0.41884112,8.895811148962116,0.5413077147005741,fall
10/07/2020, 21:37:22,-5.343173,3.2542388,-6.32423,0.21735778,-0.12943779,0.5470578,8.895811148962116,0.6027194973437869,fall
10/07/2020, 21:37:22,-5.2546387,3.2087753,-6.0729837,0.21735778,-0.12943779,0.5470578,8.64804011955428,0.6027194973437869,fall
10/07/2020, 21:37:22,-5.2546387,3.2087753,-6.0729837,0.03174889,-0.10135223,0.5568267,8.64804011955428,0.5668652858396489,fall
10/07/2020, 21:37:22,-5.180461,3.1680973,-5.864808,0.03174889,-0.10135223,0.5568267,8.44215550230629,0.5668652858396489,fall
10/07/2020, 21:37:22,-5.180461,3.1680973,-5.864808,-0.12577444,-0.042738892,0.4933289,8.44215550230629,0.5109004073031356,fall
10/07/2020, 21:37:22,-5.1254263,3.2039895,-5.6853466,-0.12577444,-0.042738892,0.4933289,8.298114811980694,0.5109004073031356,fall
10/07/2020, 21:37:22,-5.1254263,3.2039895,-5.6853466,-0.22346334,0.019537779,0.41762,8.298114811980694,0.47405069024321583,fall
10/07/2020, 21:37:23,-2.8307092,-1.7180467,-9.145369,-0.06349778,0.035412222,-0.02198,9.726374731521885,0.07595468513537307,fall
10/07/2020, 21:37:23,-2.8307092,-1.7180467,-9.145369,0.02198,-0.014653334,-0.02075889,9.726374731521885,0.033597204287575344,fall
10/07/2020, 21:37:23,-2.7206392,-1.6366907,-9.083155,0.02198,-0.014653334,-0.02075889,9.622075310911018,0.033597204287575344,fall
10/07/2020, 21:37:23,-2.7206392,-1.6366907,-9.083155,0.037854444,-0.039075557,-0.014653334,9.622075310911018,0.056343396447543735,fall
10/07/2020, 21:37:23,-2.7302105,-1.7491534,-8.953942,0.037854444,-0.039075557,-0.014653334,9.522954889668101,0.056343396447543735,fall
10/07/2020, 21:37:23,-2.7302105,-1.7491534,-8.953942,0.0012211112,0.0024422223,-0.007326667,9.522954889668101,0.007818926687869385,fall
10/07/2020, 21:37:23,-2.8139594,-1.8233309,-8.855837,0.0012211112,0.0024422223,-0.007326667,9.469358447814926,0.007818926687869385,fall
10/07/2020, 21:37:23,-2.8139594,-1.8233309,-8.855837,-0.051286668,0.037854444,-0.015874445,9.469358447814926,0.0656907850339161,fall
10/07/2020, 21:37:23,-2.8474588,-1.8807586,-8.702696,-0.051286668,0.037854444,-0.015874445,9.347844131865221,0.0656907850339161,fall
10/07/2020, 21:37:23,-2.8474588,-1.8807586,-8.702696,-0.085477784,0.06960334,-0.0048844446,9.347844131865221,0.1103400842012983,fall
10/07/2020, 21:37:23,-2.7732813,-1.7898313,-8.944371,-0.085477784,0.06960334,-0.0048844446,9.533958357573418,0.1103400842012983,fall
10/07/2020, 21:37:23,-2.7732813,-1.7898313,-8.944371,-0.047623336,0.036633335,0.0,9.533958357573418,0.060083137392775876,fall
10/07/2020, 21:37:23,-2.725425,-1.7994026,-9.176475,-0.047623336,0.036633335,0.0,9.740301674557264,0.060083137392775876,fall
10/07/2020, 21:37:23,-2.725425,-1.7994026,-9.176475,-0.02075889,-0.024422223,0.0012211112,9.740301674557264,0.03207596568319024,fall
10/07/2020, 21:37:23,-2.7613173,-1.753939,-9.1669035,-0.02075889,-0.024422223,0.0012211112,9.733103040827103,0.03207596568319024,fall
10/07/2020, 21:37:23,-2.7613173,-1.753939,-9.1669035,-0.014653334,-0.039075557,-0.0036633336,9.733103040827103,0.04189319023320845,fall
10/07/2020, 21:37:23,-2.804388,-1.7467605,-9.126225,-0.014653334,-0.039075557,-0.0036633336,9.705861933466473,0.04189319023320845,fall
10/07/2020, 21:37:23,-2.804388,-1.7467605,-9.126225,-0.009768889,-0.023201112,-0.0024422223,9.705861933466473,0.02529203890651354,fall
10/07/2020, 21:37:23,-2.806781,-1.7324036,-9.157332,-0.009768889,-0.023201112,-0.0024422223,9.733240945196917,0.02529203890651354,fall
10/07/2020, 21:37:23,-2.806781,-1.7324036,-9.157332,-0.015874445,-0.02198,-0.009768889,9.733240945196917,0.028819258228776127,fall
10/07/2020, 21:37:24,-0.6795616,-11.648261,-9.47797,2.5643334,1.8109078,-0.0061055557,15.032488403697542,3.139304138045065,fall
10/07/2020, 21:37:24,-0.6795616,-11.648261,-9.47797,1.7022289,1.8035812,-0.06960334,15.032488403697542,2.480994386718297,fall
10/07/2020, 21:37:24,-0.6053841,-11.327622,-9.406186,1.7022289,1.8035812,-0.06960334,14.736276886919038,2.480994386718297,fall
10/07/2020, 21:37:24,-0.6053841,-11.327622,-9.406186,1.1551712,1.691239,-0.37732336,14.736276886919038,2.0825663662671605,fall
10/07/2020, 21:37:24,-0.6412765,-10.882557,-9.394221,1.1551712,1.691239,-0.37732336,14.390714870354127,2.0825663662671605,fall
10/07/2020, 21:37:24,-0.6412765,-10.882557,-9.394221,0.85111445,1.7010078,-0.69481224,14.390714870354127,2.0249907502481292,fall
10/07/2020, 21:37:24,-1.0743774,-11.507084,-8.248059,0.85111445,1.7010078,-0.69481224,14.19851218680623,2.0249907502481292,fall
10/07/2020, 21:37:24,-1.0743774,-11.507084,-8.248059,0.4261678,1.6765857,-0.76441556,14.19851218680623,1.8912666805106395,fall
10/07/2020, 21:37:24,-1.1844472,-11.794223,-8.319844,0.4261678,1.6765857,-0.76441556,14.481934110383635,1.8912666805106395,fall
10/07/2020, 21:37:24,-1.1844472,-11.794223,-8.319844,0.16607112,1.7620634,-0.7106867,14.481934110383635,1.9072290233823312,fall
10/07/2020, 21:37:24,-1.3351951,-11.897114,-8.10449,0.16607112,1.7620634,-0.7106867,14.457068351943443,1.9072290233823312,fall
10/07/2020, 21:37:24,-1.3351951,-11.897114,-8.10449,0.17217667,1.8524256,-0.62154555,14.457068351943443,1.9614902991471266,fall
10/07/2020, 21:37:24,-1.6414764,-12.263216,-8.118847,0.17217667,1.8524256,-0.62154555,14.79853326332346,1.9614902991471266,fall
10/07/2020, 21:37:24,-1.6414764,-12.263216,-8.118847,0.31993112,1.7339778,-0.45303226,14.79853326332346,1.8205145255933752,fall
10/07/2020, 21:37:24,-1.8927227,-12.803994,-7.649854,0.31993112,1.7339778,-0.45303226,15.034790828981345,1.8205145255933752,fall
10/07/2020, 21:37:24,-1.8927227,-12.803994,-7.649854,0.5910178,1.6851335,-0.15996556,15.034790828981345,1.792921015635923,fall
10/07/2020, 21:37:24,-2.0937197,-13.679767,-6.8913293,0.5910178,1.6851335,-0.15996556,15.459951402450034,1.792921015635923,fall
10/07/2020, 21:37:24,-2.0937197,-13.679767,-6.8913293,0.83401895,1.8133501,0.32115224,15.459951402450034,2.021624317456149,fall
10/07/2020, 21:37:24,-2.091327,-14.534005,-6.1806607,0.83401895,1.8133501,0.32115224,15.931463258355866,2.021624317456149,fall
10/07/2020, 21:37:24,-2.091327,-14.534005,-6.1806607,1.0403867,2.0184968,0.7815111,15.931463258355866,2.4015605795636574,fall
10/07/2020, 21:37:25,0.94277215,-0.56470615,-9.071191,0.04029667,-0.04151778,-0.0061055557,9.137516922375571,0.05817925248403256,fall
10/07/2020, 21:37:25,0.94277215,-0.56470615,-9.071191,0.102573335,-0.21247335,-0.0012211112,9.137516922375571,0.2359400426351371,fall
10/07/2020, 21:37:25,0.8327023,-0.8566305,-9.162118,0.102573335,-0.21247335,-0.0012211112,9.239676097341242,0.2359400426351371,fall
10/07/2020, 21:37:25,0.8327023,-0.8566305,-9.162118,0.14531223,-0.3394689,0.10135223,9.239676097341242,0.38291911894602604,fall
10/07/2020, 21:37:25,0.91166544,-1.1126626,-9.202796,0.14531223,-0.3394689,0.10135223,9.314537332864614,0.38291911894602604,fall
10/07/2020, 21:37:25,0.91166544,-1.1126626,-9.202796,0.12089001,-0.3492378,0.26376,9.314537332864614,0.45403829375942906,fall
10/07/2020, 21:37:25,1.1246266,-1.2729816,-9.135797,0.12089001,-0.3492378,0.26376,9.292364924155917,0.45403829375942906,fall
10/07/2020, 21:37:25,1.1246266,-1.2729816,-9.135797,0.08303556,-0.24788557,0.4249467,9.292364924155917,0.4989206889088608,fall
10/07/2020, 21:37:25,1.4261223,-1.3040884,-8.999406,0.08303556,-0.24788557,0.4249467,9.204551978303162,0.4989206889088608,fall
10/07/2020, 21:37:25,1.4261223,-1.3040884,-8.999406,0.09402556,-0.051286668,0.5372889,9.204551978303162,0.5478599225340964,fall
10/07/2020, 21:37:25,1.6701902,-1.1581261,-8.970692,0.09402556,-0.051286668,0.5372889,9.198048743546806,0.5478599225340964,fall
10/07/2020, 21:37:25,1.6701902,-1.1581261,-8.970692,0.14531223,0.17339778,0.57636446,9.198048743546806,0.6191755998801703,fall
10/07/2020, 21:37:25,1.7300107,-1.1030912,-9.037691,0.14531223,0.17339778,0.57636446,9.267664656521386,0.6191755998801703,fall
10/07/2020, 21:37:25,1.7300107,-1.1030912,-9.037691,0.20392556,0.3260367,0.58613336,9.267664656521386,0.701026302675047,fall
10/07/2020, 21:37:25,1.5984055,-1.1006985,-9.126225,0.20392556,0.3260367,0.58613336,9.330296273995357,0.701026302675047,fall
10/07/2020, 21:37:25,1.5984055,-1.1006985,-9.126225,0.25643334,0.38465002,0.58979666,9.330296273995357,0.7493822782537835,fall
10/07/2020, 21:37:25,1.4093726,-1.0743774,-9.200403,0.25643334,0.38465002,0.58979666,9.36952705114672,0.7493822782537835,fall
10/07/2020, 21:37:25,1.4093726,-1.0743774,-9.200403,0.29062447,0.38831335,0.62154555,9.36952705114672,0.7883962944870397,fall
10/07/2020, 21:37:25,1.2658032,-1.1676974,-9.284152,0.29062447,0.38831335,0.62154555,9.442523709651978,0.7883962944870397,fall
10/07/2020, 21:37:25,1.2658032,-1.1676974,-9.284152,0.27841336,0.3858711,0.66428447,9.442523709651978,0.8171195541686898,fall
10/07/2020, 21:37:26,0.3589234,0.26799613,-0.02871387,0.12211112,-0.48356003,-2.81344,0.44885679708963233,2.857304067253412,fall
10/07/2020, 21:37:26,0.29910284,0.031106694,-0.7848458,0.12211112,-0.48356003,-2.81344,0.8404838560503037,2.857304067253412,fall
10/07/2020, 21:37:26,0.29910284,0.031106694,-0.7848458,0.70458114,-2.3201113,-3.2017534,0.8404838560503037,4.016288785058113,fall
10/07/2020, 21:37:26,-8.664411,-1.052842,-37.514675,0.70458114,-2.3201113,-3.2017534,38.516637159818046,4.016288785058113,fall
10/07/2020, 21:37:26,-8.664411,-1.052842,-37.514675,7.338878,-9.671201,-4.8160625,38.516637159818046,13.060846606826653,fall
10/07/2020, 21:37:26,-25.031317,-5.0751767,-57.875202,7.338878,-9.671201,-4.8160625,63.26028188801746,13.060846606826653,fall
10/07/2020, 21:37:26,-25.031317,-5.0751767,-57.875202,-0.9964267,-7.9457703,-2.832978,63.26028188801746,8.494344922403105,fall
10/07/2020, 21:37:26,-43.88676,-41.659042,-68.05427,-0.9964267,-7.9457703,-2.832978,91.06539931891956,8.494344922403105,fall
10/07/2020, 21:37:26,-43.88676,-41.659042,-68.05427,-9.574733,-0.3284789,3.7280524,91.06539931891956,10.280164431441202,fall
10/07/2020, 21:37:26,-38.17988,-39.82614,-66.1424,-9.574733,-0.3284789,3.7280524,86.13153931994343,10.280164431441202,fall
10/07/2020, 21:37:26,-38.17988,-39.82614,-66.1424,-2.2150958,-1.2284378,9.170545,86.13153931994343,9.51391598178487,fall
10/07/2020, 21:37:26,-14.644074,-14.601004,-52.72824,-2.2150958,-1.2284378,9.170545,56.63837585199873,9.51391598178487,fall
10/07/2020, 21:37:26,-14.644074,-14.601004,-52.72824,-0.5140878,-4.5962625,6.601327,56.63837585199873,8.06023772716212,fall
10/07/2020, 21:37:26,-2.7014968,-3.5126636,-47.205605,-0.5140878,-4.5962625,6.601327,47.413141553748886,8.06023772716212,fall
10/07/2020, 21:37:26,-2.7014968,-3.5126636,-47.205605,1.1527289,-3.999139,5.4241757,47.413141553748886,6.836927651214563,fall
10/07/2020, 21:37:26,-2.5842485,-0.3589234,-32.54957,1.1527289,-3.999139,5.4241757,32.653966910675,6.836927651214563,fall
10/07/2020, 21:37:26,-2.5842485,-0.3589234,-32.54957,-0.8767578,-3.240829,6.4975324,32.653966910675,7.31365870537861,fall
10/07/2020, 21:37:26,-4.046263,-1.0025927,-33.56891,-0.8767578,-3.240829,6.4975324,33.82675078762949,7.31365870537861,fall
10/07/2020, 21:37:26,-4.046263,-1.0025927,-33.56891,-6.601327,-6.7271013,5.3789945,33.82675078762949,10.851957938745565,fall
10/07/2020, 21:37:26,-2.498107,2.4909284,-18.61616,-6.601327,-6.7271013,5.3789945,18.94747093885264,10.851957938745565,fall
10/07/2020, 21:37:27,-8.458628,4.1036906,-1.6223338,-0.0024422223,0.0048844446,-0.02075889,9.540473057739023,0.021465175224205976,fall
10/07/2020, 21:37:27,-8.4347,4.1587257,-1.564906,-0.0024422223,0.0048844446,-0.02075889,9.533524786585993,0.021465175224205976,fall
10/07/2020, 21:37:27,-8.4347,4.1587257,-1.564906,0.008547778,0.0012211112,-0.039075557,9.533524786585993,0.04001818075982884,fall
10/07/2020, 21:37:27,-8.420342,4.199404,-1.5266209,0.008547778,0.0012211112,-0.039075557,9.532456667909631,0.04001818075982884,fall
10/07/2020, 21:37:27,-8.420342,4.199404,-1.5266209,0.025643334,0.0036633336,-0.064718895,9.532456667909631,0.06971037158938831,fall
10/07/2020, 21:37:27,-8.420342,4.2448673,-1.4668003,0.025643334,0.0036633336,-0.064718895,9.543194890439985,0.06971037158938831,fall
10/07/2020, 21:37:27,-8.420342,4.2448673,-1.4668003,0.27475002,-0.39686114,-0.9634567,9.543194890439985,1.0776062040806629,fall
10/07/2020, 21:37:27,-6.71426,6.3361945,-0.63888365,0.27475002,-0.39686114,-0.9634567,9.254016531300817,1.0776062040806629,fall
10/07/2020, 21:37:27,-6.71426,6.3361945,-0.63888365,1.2723979,-1.1820356,-3.3189802,9.254016531300817,3.745908983520981,fall
10/07/2020, 21:37:27,-3.6658044,9.456435,1.0576276,1.2723979,-1.1820356,-3.3189802,10.19710079431191,3.745908983520981,fall
10/07/2020, 21:37:27,-3.6658044,9.456435,1.0576276,1.9293556,-0.9854367,-7.504949,10.19710079431191,7.811386525214219,fall
10/07/2020, 21:37:27,-4.4554358,6.448657,2.7756743,1.9293556,-0.9854367,-7.504949,8.315073864534448,7.811386525214219,fall
10/07/2020, 21:37:27,-4.4554358,6.448657,2.7756743,1.6533846,-0.8914111,-7.6612515,8.315073864534448,7.888160086743179,fall
10/07/2020, 21:37:27,-6.9559355,5.5106707,0.42831525,1.6533846,-0.8914111,-7.6612515,8.88459247666396,7.888160086743179,fall
10/07/2020, 21:37:27,-6.9559355,5.5106707,0.42831525,2.514268,-0.6191034,-7.6319447,8.88459247666396,8.059243848159038,fall
10/07/2020, 21:37:27,-6.6089764,6.7764735,1.2227324,2.514268,-0.6191034,-7.6319447,9.544330073980962,8.059243848159038,fall
10/07/2020, 21:37:27,-6.6089764,6.7764735,1.2227324,3.3482869,-0.40052447,-8.481838,9.544330073980962,9.127596862863678,fall
10/07/2020, 21:37:27,-8.427522,4.9722853,-0.37567315,3.3482869,-0.40052447,-8.481838,9.792235353782486,9.127596862863678,fall
10/07/2020, 21:37:27,-8.427522,4.9722853,-0.37567315,2.9099078,-0.67161113,-7.9054737,9.792235353782486,8.450747871281093,fall
10/07/2020, 21:37:27,-10.432707,2.605784,-2.5866413,2.9099078,-0.67161113,-7.9054737,11.059936486015042,8.450747871281093,fall
10/07/2020, 21:37:28,-6.843473,-0.782453,3.3140593,-0.5140878,0.5873545,-1.3200212,7.643843508463975,1.5335342812798793,fall
10/07/2020, 21:37:28,-6.843473,-0.782453,3.3140593,-0.45425335,0.64841,-1.4763234,7.643843508463975,1.6752051637205057,fall
10/07/2020, 21:37:28,-6.8051877,-0.8997013,3.4097722,-0.45425335,0.64841,-1.4763234,7.66463229734055,1.6752051637205057,fall
10/07/2020, 21:37:28,-6.8051877,-0.8997013,3.4097722,-0.40296668,0.7326667,-1.5874445,7.66463229734055,1.7942025456047752,fall
10/07/2020, 21:37:28,-6.8315086,-1.0576276,3.4624143,-0.40296668,0.7326667,-1.5874445,7.73151982752541,1.7942025456047752,fall
10/07/2020, 21:37:28,-6.8315086,-1.0576276,3.4624143,-0.39930335,0.8181445,-1.6423945,7.73151982752541,1.877834769087323,fall
10/07/2020, 21:37:28,-6.9152575,-1.1557333,3.4887354,-0.39930335,0.8181445,-1.6423945,7.831205537803541,1.877834769087323,fall
10/07/2020, 21:37:28,-6.9152575,-1.1557333,3.4887354,-0.40174556,0.88042116,-1.6472789,7.831205537803541,1.910515298463079,fall
10/07/2020, 21:37:28,-7.04447,-1.2011969,3.5006995,-0.40174556,0.88042116,-1.6472789,7.957532681522307,1.910515298463079,fall
10/07/2020, 21:37:28,-7.04447,-1.2011969,3.5006995,-0.36267,0.9072856,-1.6094245,7.957532681522307,1.8828021059574083,fall
10/07/2020, 21:37:28,-7.204789,-1.2873386,3.4719856,-0.36267,0.9072856,-1.6094245,8.100673517069472,1.8828021059574083,fall
10/07/2020, 21:37:28,-7.204789,-1.2873386,3.4719856,-0.3162678,0.86943114,-1.5373789,8.100673517069472,1.794288082246491,fall
10/07/2020, 21:37:28,-7.3435726,-1.4237294,3.3690944,-0.3162678,0.86943114,-1.5373789,8.204014939134966,1.794288082246491,fall
10/07/2020, 21:37:28,-7.3435726,-1.4237294,3.3690944,-0.2942878,0.79128003,-1.471439,8.204014939134966,1.6964262848130454,fall
10/07/2020, 21:37:28,-7.408179,-1.4811572,3.2949169,-0.2942878,0.79128003,-1.471439,8.242051746820621,1.6964262848130454,fall
10/07/2020, 21:37:28,-7.408179,-1.4811572,3.2949169,-0.28818223,0.70580226,-1.40672,8.242051746820621,1.6000209708030722,fall
10/07/2020, 21:37:28,-7.446464,-1.5337993,3.17049,-0.28818223,0.70580226,-1.40672,8.237376663400354,1.6000209708030722,fall
10/07/2020, 21:37:28,-7.446464,-1.5337993,3.17049,-0.2613178,0.5922389,-1.3224634,8.237376663400354,1.472393742109269,fall
10/07/2020, 21:37:28,-7.4177504,-1.605584,3.0652058,-0.2613178,0.5922389,-1.3224634,8.185133298701055,1.472393742109269,fall
10/07/2020, 21:37:28,-7.4177504,-1.605584,3.0652058,-0.21125223,0.47623336,-1.1979101,8.185133298701055,1.306297920301071,fall
10/07/2020, 21:37:29,-0.12921242,-1.0600204,-0.6221339,1.3798556,-3.2493768,-1.3126945,1.2358761268554364,3.766379955089432,fall
10/07/2020, 21:37:29,-0.12921242,-1.0600204,-0.6221339,0.24666445,-3.5338957,-0.7070234,1.2358761268554364,3.6123599559050175,fall
10/07/2020, 21:37:29,0.2847459,-0.05742774,0.124426775,0.24666445,-3.5338957,-0.7070234,0.31600663975024446,3.6123599559050175,fall
10/07/2020, 21:37:29,0.2847459,-0.05742774,0.124426775,-0.9646778,-3.1590145,-1.2553023,0.31600663975024446,3.5335194279909397,fall
10/07/2020, 21:37:29,0.45224348,0.26799613,0.50009996,-0.9646778,-3.1590145,-1.2553023,0.7255660249302052,3.5335194279909397,fall
10/07/2020, 21:37:29,0.45224348,0.26799613,0.50009996,-2.1186278,-3.052778,-1.3053678,0.7255660249302052,3.9385304892350383,fall
10/07/2020, 21:37:29,0.1268196,-0.75613195,-0.21774685,-2.1186278,-3.052778,-1.3053678,0.7970146946823827,3.9385304892350383,fall
10/07/2020, 21:37:29,0.1268196,-0.75613195,-0.21774685,-3.08819,-3.327528,-1.0196278,0.7970146946823827,4.6528487426873095,fall
10/07/2020, 21:37:29,0.38285163,-0.30149564,0.038285162,-3.08819,-3.327528,-1.0196278,0.488815656884465,4.6528487426873095,fall
10/07/2020, 21:37:29,0.38285163,-0.30149564,0.038285162,-3.71462,-3.162678,-1.3029256,0.488815656884465,5.0496088782974775,fall
10/07/2020, 21:37:29,0.42592242,-0.18664017,0.16271193,-3.71462,-3.162678,-1.3029256,0.4926658486244504,5.0496088782974775,fall
10/07/2020, 21:37:29,0.42592242,-0.18664017,0.16271193,-3.944189,-3.0295768,-1.3444434,0.4926658486244504,5.151940513417467,fall
10/07/2020, 21:37:29,0.2536392,-0.58624154,-0.0741775,-3.944189,-3.0295768,-1.3444434,0.6430507666812081,5.151940513417467,fall
10/07/2020, 21:37:29,0.2536392,-0.58624154,-0.0741775,-3.789108,-3.0894113,-1.1417389,0.6430507666812081,5.020494930304108,fall
10/07/2020, 21:37:29,0.2656033,-0.4977071,0.078963146,-3.789108,-3.0894113,-1.1417389,0.5696425629563411,5.020494930304108,fall
10/07/2020, 21:37:29,0.2656033,-0.4977071,0.078963146,-3.3311913,-2.8964758,-1.1173167,0.5696425629563411,4.553548523800966,fall
10/07/2020, 21:37:29,0.33260235,-0.18903299,0.39481574,-3.3311913,-2.8964758,-1.1173167,0.5497610985437617,4.553548523800966,fall
10/07/2020, 21:37:29,0.33260235,-0.18903299,0.39481574,-2.701098,-2.6376002,-1.2333223,0.5497610985437617,3.971643079329491,fall
10/07/2020, 21:37:29,0.29671,-0.08135597,0.38524446,-2.701098,-2.6376002,-1.2333223,0.493020201453529,3.971643079329491,fall
10/07/2020, 21:37:29,0.29671,-0.08135597,0.38524446,-1.9806423,-2.65958,-1.2638501,0.493020201453529,3.5487500316916623,fall
10/07/2020, 21:37:30,5.8169518,0.0,-7.853244,0.026864445,0.008547778,0.0,9.77294051454834,0.028191539675262327,fall
10/07/2020, 21:37:30,5.8169518,0.0,-7.853244,0.023201112,0.0024422223,0.0036633336,9.77294051454834,0.023615165619319547,fall
10/07/2020, 21:37:30,5.788238,0.014356935,-7.8460655,0.023201112,0.0024422223,0.0036633336,9.75011025537203,0.023615165619319547,fall
10/07/2020, 21:37:30,5.788238,0.014356935,-7.8460655,0.019537779,0.0012211112,0.0061055557,9.75011025537203,0.02050594338756909,fall
10/07/2020, 21:37:30,5.7954164,0.0,-7.8317084,0.019537779,0.0012211112,0.0061055557,9.742818261743388,0.02050594338756909,fall
10/07/2020, 21:37:30,5.7954164,0.0,-7.8317084,0.018316668,0.0061055557,0.0024422223,9.742818261743388,0.019461309550198667,fall
10/07/2020, 21:37:30,5.788238,-0.02871387,-7.826923,0.018316668,0.0061055557,0.0024422223,9.734744278832945,0.019461309550198667,fall
10/07/2020, 21:37:30,5.788238,-0.02871387,-7.826923,0.008547778,0.007326667,0.0048844446,9.734744278832945,0.01227201550471914,fall
10/07/2020, 21:37:30,5.7834525,-0.078963146,-7.853244,0.008547778,0.007326667,0.0048844446,9.753358228970393,0.01227201550471914,fall
10/07/2020, 21:37:30,5.7834525,-0.078963146,-7.853244,-0.0036633336,0.013432222,-0.0048844446,9.753358228970393,0.014754742004605803,fall
10/07/2020, 21:37:30,5.788238,-0.06699903,-7.8317084,-0.0036633336,0.013432222,-0.0048844446,9.73878049496826,0.014754742004605803,fall
10/07/2020, 21:37:30,5.788238,-0.06699903,-7.8317084,-0.0048844446,0.017095556,-0.009768889,9.73878049496826,0.020286622409748923,fall
10/07/2020, 21:37:30,5.759524,-0.043070808,-7.8053875,-0.0048844446,0.017095556,-0.009768889,9.700414643949182,0.020286622409748923,fall
10/07/2020, 21:37:30,5.759524,-0.043070808,-7.8053875,-0.0048844446,0.014653334,-0.008547778,9.700414643949182,0.017653399706486956,fall
10/07/2020, 21:37:30,5.74756,-0.059820566,-7.7886376,-0.0048844446,0.014653334,-0.008547778,9.679922571495505,0.017653399706486956,fall
10/07/2020, 21:37:30,5.74756,-0.059820566,-7.7886376,-0.0061055557,0.008547778,0.0012211112,9.679922571495505,0.010575132887019998,fall
10/07/2020, 21:37:30,5.74756,-0.059820566,-7.8029947,-0.0061055557,0.008547778,0.0012211112,9.691478290705666,0.010575132887019998,fall
10/07/2020, 21:37:30,5.74756,-0.059820566,-7.8029947,-0.0061055557,0.0048844446,-0.007326667,9.691478290705666,0.010715207041083216,fall
10/07/2020, 21:37:30,5.7547383,-0.059820566,-7.800602,-0.0061055557,0.0048844446,-0.007326667,9.693811566299749,0.010715207041083216,fall
10/07/2020, 21:37:30,5.7547383,-0.059820566,-7.800602,-0.009768889,0.0036633336,-0.015874445,9.693811566299749,0.018996031925250068,fall
10/07/2020, 21:37:31,1.8041883,7.233503,-9.5665045,-4.776987,-3.6425745,-1.96721,12.128341472713409,6.321223794767084,fall
10/07/2020, 21:37:31,1.8975084,7.8556366,-8.865408,-4.776987,-3.6425745,-1.96721,11.996125308221474,6.321223794767084,fall
10/07/2020, 21:37:31,1.8975084,7.8556366,-8.865408,-4.3862314,-3.2322812,-1.911039,11.996125308221474,5.7739707254630925,fall
10/07/2020, 21:37:31,2.07697,8.623733,-7.9800634,-4.3862314,-3.2322812,-1.911039,11.93163780305823,5.7739707254630925,fall
10/07/2020, 21:37:31,2.07697,8.623733,-7.9800634,-4.04432,-2.3445334,-2.1357234,11.93163780305823,5.139521031134694,fall
10/07/2020, 21:37:31,2.1008983,9.128618,-7.1808605,-4.04432,-2.3445334,-2.1357234,11.802974298912186,5.139521031134694,fall
10/07/2020, 21:37:31,2.1008983,9.128618,-7.1808605,-3.8965657,-1.5556957,-2.3103423,11.802974298912186,4.789686276566605,fall
10/07/2020, 21:37:31,1.8448663,9.379865,-6.2213387,-3.8965657,-1.5556957,-2.3103423,11.405720014871203,4.789686276566605,fall
10/07/2020, 21:37:31,1.8448663,9.379865,-6.2213387,-3.8049824,-1.3017045,-2.1699145,11.405720014871203,4.5695573949937796,fall
10/07/2020, 21:37:31,1.1222339,8.906086,-6.0418773,-3.8049824,-1.3017045,-2.1699145,10.82044625078233,4.5695573949937796,fall
10/07/2020, 21:37:31,1.1222339,8.906086,-6.0418773,-3.7720125,-1.2687345,-1.7278723,10.82044625078233,4.33858360856299,fall
10/07/2020, 21:37:31,0.9403793,9.82493,-5.218746,-3.7720125,-1.2687345,-1.7278723,11.16462620394736,4.33858360856299,fall
10/07/2020, 21:37:31,0.9403793,9.82493,-5.218746,-3.647459,-1.240649,-1.4702178,11.16462620394736,4.123676482259938,fall
10/07/2020, 21:37:31,0.71306115,10.202995,-4.7018967,-3.647459,-1.240649,-1.4702178,11.2568824093818,4.123676482259938,fall
10/07/2020, 21:37:31,0.71306115,10.202995,-4.7018967,-3.5290112,-1.1551712,-1.2675134,11.2568824093818,3.923637470990229,fall
10/07/2020, 21:37:31,0.5694918,10.13839,-4.5487556,-3.5290112,-1.1551712,-1.2675134,11.126654585504513,3.923637470990229,fall
10/07/2020, 21:37:31,0.5694918,10.13839,-4.5487556,-3.393468,-0.9744467,-1.1612767,11.126654585504513,3.7166832495491935,fall
10/07/2020, 21:37:31,0.5455636,10.025927,-4.5128636,-3.393468,-0.9744467,-1.1612767,11.00830512853672,3.7166832495491935,fall
10/07/2020, 21:37:31,0.5455636,10.025927,-4.5128636,-3.174889,-0.73999333,-1.1405178,11.00830512853672,3.453735915733456,fall
10/07/2020, 21:37:31,0.45942193,9.887143,-4.7377887,-3.174889,-0.73999333,-1.1405178,10.973299842598538,3.453735915733456,fall
10/07/2020, 21:37:32,-2.548356,0.28713873,-7.515856,0.90118,-0.35290113,0.22590557,7.941325801369049,0.9938299543194449,fall
10/07/2020, 21:37:32,-2.548356,0.28713873,-7.515856,0.8584412,-0.48111778,0.3382478,7.941325801369049,1.0405801989481893,fall
10/07/2020, 21:37:32,-2.6703901,0.28235307,-7.515856,0.8584412,-0.48111778,0.3382478,7.981152482153946,1.0405801989481893,fall
10/07/2020, 21:37:32,-2.6703901,0.28235307,-7.515856,0.7937223,-0.56659555,0.3931978,7.981152482153946,1.051489458227926,fall
10/07/2020, 21:37:32,-2.7302105,0.2009971,-7.475178,0.7937223,-0.56659555,0.3931978,7.960699219165247,1.051489458227926,fall
10/07/2020, 21:37:32,-2.7302105,0.2009971,-7.475178,0.70580226,-0.6142189,0.41762,7.960699219165247,1.024611216778318,fall
10/07/2020, 21:37:32,-2.7493532,0.1052842,-7.4273214,0.70580226,-0.6142189,0.41762,7.920551199406026,1.024611216778318,fall
10/07/2020, 21:37:32,-2.7493532,0.1052842,-7.4273214,0.6056711,-0.6020078,0.44448447,7.920551199406026,0.962713527341865,fall
10/07/2020, 21:37:32,-2.737389,-0.03589234,-7.2957163,0.6056711,-0.6020078,0.44448447,7.7924362941897405,0.962713527341865,fall
10/07/2020, 21:37:32,-2.737389,-0.03589234,-7.2957163,0.5372889,-0.50676113,0.52019334,7.7924362941897405,0.9033755157600558,fall
10/07/2020, 21:37:32,-2.725425,-0.23688944,-7.092326,0.5372889,-0.50676113,0.52019334,7.601654325407463,0.9033755157600558,fall
10/07/2020, 21:37:32,-2.725425,-0.23688944,-7.092326,0.46768558,-0.3492378,0.63986224,7.601654325407463,0.8660949878838281,fall
10/07/2020, 21:37:32,-2.7445676,-0.37088752,-6.9559355,0.46768558,-0.3492378,0.63986224,7.487005236962949,0.8660949878838281,fall
10/07/2020, 21:37:32,-2.7445676,-0.37088752,-6.9559355,0.39197668,-0.17217667,0.74609894,7.487005236962949,0.8602058764284127,fall
10/07/2020, 21:37:32,-2.7637103,-0.2632105,-7.018149,0.39197668,-0.17217667,0.74609894,7.547303368958953,0.8602058764284127,fall
10/07/2020, 21:37:32,-2.7637103,-0.2632105,-7.018149,0.29062447,-0.023201112,0.79250115,7.547303368958953,0.844428178765956,fall
10/07/2020, 21:37:32,-2.8163524,0.076570325,-7.314859,0.29062447,-0.023201112,0.79250115,7.838677477434513,0.844428178765956,fall
10/07/2020, 21:37:32,-2.8163524,0.076570325,-7.314859,0.14897557,0.10135223,0.7485411,7.838677477434513,0.7699219422474337,fall
10/07/2020, 21:37:32,-2.8642087,0.5694918,-7.6331043,0.14897557,0.10135223,0.7485411,8.172655260559546,0.7699219422474337,fall
10/07/2020, 21:37:32,-2.8642087,0.5694918,-7.6331043,0.07937223,0.21369445,0.60933447,8.172655260559546,0.6505795606327694,fall
10/07/2020, 21:37:33,6.1998034,16.08934,-39.09872,5.326487,-12.471209,-4.757449,42.731889481846494,14.371354498392149,fall
10/07/2020, 21:37:33,32.475388,47.246284,-58.667225,5.326487,-12.471209,-4.757449,82.02868687996079,14.371354498392149,fall
10/07/2020, 21:37:33,32.475388,47.246284,-58.667225,-2.6229467,-5.4327235,-3.3372967,82.02868687996079,6.8943370886063065,fall
10/07/2020, 21:37:33,31.472795,19.82932,-68.45148,-2.6229467,-5.4327235,-3.3372967,77.905991642632,6.8943370886063065,fall
10/07/2020, 21:37:33,31.472795,19.82932,-68.45148,-4.9271836,-0.5739222,-1.2394278,77.905991642632,5.112993888081621,fall
10/07/2020, 21:37:33,22.258036,-1.0719845,-73.34241,-4.9271836,-0.5739222,-1.2394278,76.65297124085204,5.112993888081621,fall
10/07/2020, 21:37:33,22.258036,-1.0719845,-73.34241,-0.8437878,-0.24422224,-0.81448114,76.65297124085204,1.19791563199931,fall
10/07/2020, 21:37:33,13.01217,-17.735601,-61.598434,-0.8437878,-0.24422224,-0.81448114,65.40822003600627,1.19791563199931,fall
10/07/2020, 21:37:33,13.01217,-17.735601,-61.598434,-1.4409112,2.7438369,1.0086378,65.40822003600627,3.25917413106097,fall
10/07/2020, 21:37:33,8.841479,-9.466006,-53.367123,-1.4409112,2.7438369,1.0086378,54.916544056119406,3.25917413106097,fall
10/07/2020, 21:37:33,8.841479,-9.466006,-53.367123,-2.6656857,4.109039,2.0697834,54.916544056119406,5.317338021564283,fall
10/07/2020, 21:37:33,10.10489,7.0372915,-53.776295,-2.6656857,4.109039,2.0697834,55.168126158683535,5.317338021564283,fall
10/07/2020, 21:37:33,10.10489,7.0372915,-53.776295,-0.089141116,-1.7730534,-0.13676445,55.168126158683535,1.7805530152794276,fall
10/07/2020, 21:37:33,9.379865,10.832308,-28.199415,-0.089141116,-1.7730534,-0.13676445,31.631120313318956,1.7805530152794276,fall
10/07/2020, 21:37:33,9.379865,10.832308,-28.199415,-0.5153089,5.3411403,-1.0318389,31.631120313318956,5.464248728667691,fall
10/07/2020, 21:37:33,6.728617,9.9038925,-9.157332,-0.5153089,5.3411403,-1.0318389,15.073755781294222,5.464248728667691,fall
10/07/2020, 21:37:33,6.728617,9.9038925,-9.157332,3.0393457,5.9138412,-5.48401,15.073755781294222,8.618904160315582,fall
