DATE,TIME,ax,ay,az,gx,gy,gz,ma,mg,label
10/07/2020, 21:11:53,0.26081768,-0.0741775,9.815358,-0.01099,0.024422223,0.012211111,9.819103014504591,0.029433591561631892,fall
10/07/2020, 21:11:53,0.26081768,-0.0741775,9.815358,-0.0036633336,0.02198,0.0024422223,9.819103014504591,0.02241662088556366,fall
10/07/2020, 21:11:53,0.22731815,-0.083748795,9.8321085,-0.0036633336,0.02198,0.0024422223,9.835092521793031,0.02241662088556366,fall
10/07/2020, 21:11:53,0.22731815,-0.083748795,9.8321085,-0.0036633336,0.013432222,-0.0036633336,9.835092521793031,0.014396687994391666,fall
10/07/2020, 21:11:53,0.21774685,-0.059820566,9.829716,-0.0036633336,0.013432222,-0.0036633336,9.832309164216458,0.014396687994391666,fall
10/07/2020, 21:11:53,0.21774685,-0.059820566,9.829716,0.0012211112,0.007326667,-0.0061055557,9.832309164216458,0.009615038997912478,fall
10/07/2020, 21:11:53,0.22253251,-0.04546363,9.815358,0.0012211112,0.007326667,-0.0061055557,9.817985715349385,0.009615038997912478,fall
10/07/2020, 21:11:53,0.22253251,-0.04546363,9.815358,0.009768889,0.0048844446,-0.013432222,9.817985715349385,0.017312238342952122,fall
10/07/2020, 21:11:53,0.2105684,-0.09332009,9.803394,0.009768889,0.0048844446,-0.013432222,9.806099522020943,0.017312238342952122,fall
10/07/2020, 21:11:53,0.2105684,-0.09332009,9.803394,0.023201112,-0.007326667,-0.009768889,9.806099522020943,0.026218368263447096,fall
10/07/2020, 21:11:53,0.22492532,-0.09332009,9.777073,0.023201112,-0.007326667,-0.009768889,9.78010504335129,0.026218368263447096,fall
10/07/2020, 21:11:53,0.22492532,-0.09332009,9.777073,0.03174889,-0.012211111,-0.014653334,9.78010504335129,0.037038136046018674,fall
10/07/2020, 21:11:53,0.22731815,-0.09332009,9.781859,0.03174889,-0.012211111,-0.014653334,9.784945347890392,0.037038136046018674,fall
10/07/2020, 21:11:53,0.22731815,-0.09332009,9.781859,0.029306669,-0.012211111,-0.009768889,9.784945347890392,0.03321781561645534,fall
10/07/2020, 21:11:53,0.22013968,-0.086141616,9.793823,0.029306669,-0.012211111,-0.009768889,9.796675740114983,0.03321781561645534,fall
10/07/2020, 21:11:53,0.22013968,-0.086141616,9.793823,0.014653334,-0.014653334,-0.014653334,9.796675740114983,0.02538031967087308,fall
10/07/2020, 21:11:53,0.23928227,-0.09571291,9.829716,0.014653334,-0.014653334,-0.014653334,9.83309352500018,0.02538031967087308,fall
10/07/2020, 21:11:53,0.23928227,-0.09571291,9.829716,0.0012211112,-0.01099,-0.02075889,9.83309352500018,0.023520261856285748,fall
10/07/2020, 21:11:53,0.22731815,-0.06699903,9.815358,0.0012211112,-0.01099,-0.02075889,9.818218690776542,0.023520261856285748,fall
10/07/2020, 21:11:53,0.22731815,-0.06699903,9.815358,-0.012211111,-0.0061055557,-0.02198,9.818218690776542,0.025874881260543305,fall
10/07/2020, 21:11:54,-3.505485,0.20338993,1.6510476,-0.54339445,2.239518,-0.045181114,3.8801741055299375,2.3049423861664473,fall
10/07/2020, 21:11:54,-3.6346977,0.12203395,1.3256238,-0.54339445,2.239518,-0.045181114,3.8708135847657483,2.3049423861664473,fall
10/07/2020, 21:11:54,-3.6346977,0.12203395,1.3256238,-0.41762,2.1430502,0.04396,3.8708135847657483,2.1838047261367546,fall
10/07/2020, 21:11:54,-3.8333018,0.23449662,1.0935199,-0.41762,2.1430502,0.04396,3.9931162081248317,2.1838047261367546,fall
10/07/2020, 21:11:54,-3.8333018,0.23449662,1.0935199,-0.32237336,2.0380344,0.1306589,3.9931162081248317,2.067505914182927,fall
10/07/2020, 21:11:54,-4.0510488,0.485743,0.8709874,-0.32237336,2.0380344,0.1306589,4.17199728510201,2.067505914182927,fall
10/07/2020, 21:11:54,-4.0510488,0.485743,0.8709874,-0.27475002,1.9195868,0.19171445,4.17199728510201,1.94860344950348,fall
10/07/2020, 21:11:54,-4.194618,0.7728817,0.59342,-0.27475002,1.9195868,0.19171445,4.306311122803901,1.94860344950348,fall
10/07/2020, 21:11:54,-4.194618,0.7728817,0.59342,-0.26376,1.801139,0.2295689,4.306311122803901,1.8347678065307322,fall
10/07/2020, 21:11:54,-4.2927237,1.0336994,0.3684947,-0.26376,1.801139,0.2295689,4.430778617356949,1.8347678065307322,fall
10/07/2020, 21:11:54,-4.2927237,1.0336994,0.3684947,-0.2735289,1.7229879,0.2613178,4.430778617356949,1.7640273008758476,fall
10/07/2020, 21:11:54,-4.486542,1.2777673,0.22731815,-0.2735289,1.7229879,0.2613178,4.670484338133515,1.7640273008758476,fall
10/07/2020, 21:11:54,-4.486542,1.2777673,0.22731815,-0.28085557,1.6423945,0.29062447,4.670484338133515,1.691390630592283,fall
10/07/2020, 21:11:54,-4.7042894,1.5074782,0.03589234,-0.28085557,1.6423945,0.29062447,4.940052428518692,1.691390630592283,fall
10/07/2020, 21:11:54,-4.7042894,1.5074782,0.03589234,-0.25277,1.5239468,0.31260446,4.940052428518692,1.5760799334292066,fall
10/07/2020, 21:11:54,-4.95075,1.7300107,-0.15314065,-0.25277,1.5239468,0.31260446,5.24655254070417,1.5760799334292066,fall
10/07/2020, 21:11:54,-4.95075,1.7300107,-0.15314065,-0.22468445,1.3688656,0.3284789,5.24655254070417,1.4255435967205357,fall
10/07/2020, 21:11:54,-5.1158547,1.8640088,-0.3924229,-0.22468445,1.3688656,0.3284789,5.458982891894429,1.4255435967205357,fall
10/07/2020, 21:11:54,-5.1158547,1.8640088,-0.3924229,-0.22346334,1.2247745,0.34557447,5.458982891894429,1.2920642804286047,fall
10/07/2020, 21:11:54,-5.206782,1.9597218,-0.49292147,-0.22346334,1.2247745,0.34557447,5.585164143150266,1.2920642804286047,fall
10/07/2020, 21:11:55,2.5698915,-4.9603214,9.183653,-0.21980001,-0.43227336,-0.15996556,10.749353976509624,0.5106479031602685,fall
10/07/2020, 21:11:55,2.5698915,-4.9603214,9.183653,-0.23201112,-0.44204223,-0.1856089,10.749353976509624,0.5326172713739679,fall
10/07/2020, 21:11:55,2.5627131,-4.54397,9.080762,-0.23201112,-0.44204223,-0.1856089,10.472602344651385,0.5326172713739679,fall
10/07/2020, 21:11:55,2.5627131,-4.54397,9.080762,-0.23323223,-0.4359367,-0.1965989,10.472602344651385,0.5320612733835373,fall
10/07/2020, 21:11:55,2.5555346,-4.398008,8.693125,-0.23323223,-0.4359367,-0.1965989,10.071923778819059,0.5320612733835373,fall
10/07/2020, 21:11:55,2.5555346,-4.398008,8.693125,-0.21003112,-0.4371578,-0.1965989,10.071923778819059,0.5233270021798248,fall
10/07/2020, 21:11:55,2.5387847,-4.469793,8.599805,-0.21003112,-0.4371578,-0.1965989,10.01903787645578,0.5233270021798248,fall
10/07/2020, 21:11:55,2.5387847,-4.469793,8.599805,-0.14775445,-0.44082114,-0.20881,10.01903787645578,0.5096628997146023,fall
10/07/2020, 21:11:55,2.3976083,-4.658826,8.362915,-0.14775445,-0.44082114,-0.20881,9.86871480706015,0.5096628997146023,fall
10/07/2020, 21:11:55,2.3976083,-4.658826,8.362915,-0.06105556,-0.5140878,-0.25521225,9.86871480706015,0.5771891672474757,fall
10/07/2020, 21:11:55,2.359323,-4.666004,8.60459,-0.06105556,-0.5140878,-0.25521225,10.068613428754961,0.5771891672474757,fall
10/07/2020, 21:11:55,2.359323,-4.666004,8.60459,-0.01099,-0.5458367,-0.31016225,10.068613428754961,0.6279005399449906,fall
10/07/2020, 21:11:55,2.5028925,-4.855037,8.482556,-0.01099,-0.5458367,-0.31016225,10.089084164806508,0.6279005399449906,fall
10/07/2020, 21:11:55,2.5028925,-4.855037,8.482556,0.058613338,-0.56659555,-0.30649891,10.089084164806508,0.6468443633695216,fall
10/07/2020, 21:11:55,2.4717858,-4.7425747,8.547162,0.058613338,-0.56659555,-0.30649891,10.082446076170061,0.6468443633695216,fall
10/07/2020, 21:11:55,2.4717858,-4.7425747,8.547162,0.09524667,-0.60811335,-0.32725778,10.082446076170061,0.6971165105459195,fall
10/07/2020, 21:11:55,2.3928227,-4.5678983,8.3174515,0.09524667,-0.60811335,-0.32725778,9.786280927231266,0.6971165105459195,fall
10/07/2020, 21:11:55,2.3928227,-4.5678983,8.3174515,0.15141778,-0.7106867,-0.3504589,9.786280927231266,0.8067368463249641,fall
10/07/2020, 21:11:55,2.1942184,-4.302295,8.374879,0.15141778,-0.7106867,-0.3504589,9.66762301405645,0.8067368463249641,fall
10/07/2020, 21:11:55,2.1942184,-4.302295,8.374879,0.14897557,-0.8303556,-0.44326335,9.66762301405645,0.9529777097806386,fall
10/07/2020, 21:11:56,-1.753939,-4.089334,9.205189,0.6777167,0.49577114,0.23201112,10.224209247158292,0.8711590400626354,fall
10/07/2020, 21:11:56,-1.753939,-4.089334,9.205189,0.6764956,0.49577114,0.22102112,10.224209247158292,0.8673440317108213,fall
10/07/2020, 21:11:56,-1.7826529,-4.017549,9.262616,0.6764956,0.49577114,0.22102112,10.25254161440565,0.8673440317108213,fall
10/07/2020, 21:11:56,-1.7826529,-4.017549,9.262616,0.6667267,0.5018767,0.22102112,10.25254161440565,0.8632815712289111,fall
10/07/2020, 21:11:56,-1.7802601,-3.9696927,9.327223,0.6667267,0.5018767,0.22102112,10.291980945030273,0.8632815712289111,fall
10/07/2020, 21:11:56,-1.7802601,-3.9696927,9.327223,0.65329444,0.5128667,0.21369445,10.291980945030273,0.8576078225026864,fall
10/07/2020, 21:11:56,-1.753939,-3.9050865,9.41815,0.65329444,0.5128667,0.21369445,10.345412088605137,0.8576078225026864,fall
10/07/2020, 21:11:56,-1.753939,-3.9050865,9.41815,0.62643003,0.54461557,0.20636779,10.345412088605137,0.8553410833457314,fall
10/07/2020, 21:11:56,-1.7587247,-3.900301,9.47797,0.62643003,0.54461557,0.20636779,10.39891234326823,0.8553410833457314,fall
10/07/2020, 21:11:56,-1.7587247,-3.900301,9.47797,0.59346,0.5800278,0.19904111,10.39891234326823,0.853372389163661,fall
10/07/2020, 21:11:56,-1.820938,-3.8476589,9.525827,0.59346,0.5800278,0.19904111,10.433680164324251,0.853372389163661,fall
10/07/2020, 21:11:56,-1.820938,-3.8476589,9.525827,0.5702589,0.6142189,0.19049335,10.433680164324251,0.8595043867611656,fall
10/07/2020, 21:11:56,-1.9477576,-3.7878382,9.54497,0.5702589,0.6142189,0.19049335,10.452173072493107,0.8595043867611656,fall
10/07/2020, 21:11:56,-1.9477576,-3.7878382,9.54497,0.5556056,0.6349778,0.17828223,10.452173072493107,0.8623682245457823,fall
10/07/2020, 21:11:56,-2.036292,-3.7040894,9.571291,0.5556056,0.6349778,0.17828223,10.463095839916797,0.8623682245457823,fall
10/07/2020, 21:11:56,-2.036292,-3.7040894,9.571291,0.53851,0.65085226,0.18438779,10.463095839916797,0.8646389831513293,fall
10/07/2020, 21:11:56,-2.0985055,-3.6323047,9.590433,0.53851,0.65085226,0.18438779,10.467749040183897,0.8646389831513293,fall
10/07/2020, 21:11:56,-2.0985055,-3.6323047,9.590433,0.5140878,0.67161113,0.18194556,10.467749040183897,0.865131180882876,fall
10/07/2020, 21:11:56,-2.0697916,-3.6275191,9.631111,0.5140878,0.67161113,0.18194556,10.497677553353771,0.865131180882876,fall
10/07/2020, 21:11:56,-2.0697916,-3.6275191,9.631111,0.5030978,0.7082445,0.17828223,10.497677553353771,0.8868495915886803,fall
10/07/2020, 21:11:57,-7.4010005,0.11246266,5.0249276,0.20392556,0.46035892,-0.04396,8.946359806902146,0.5054190843723488,fall
10/07/2020, 21:11:57,-7.4775705,0.083748795,4.9268217,0.20392556,0.46035892,-0.04396,8.955146402881127,0.5054190843723488,fall
10/07/2020, 21:11:57,-7.4775705,0.083748795,4.9268217,0.25887558,0.43349445,-0.019537779,8.955146402881127,0.5052877665541438,fall
10/07/2020, 21:11:57,-7.4919276,0.09332009,4.855037,0.25887558,0.43349445,-0.019537779,8.927993867133194,0.5052877665541438,fall
10/07/2020, 21:11:57,-7.4919276,0.09332009,4.855037,0.29062447,0.41029334,0.012211111,8.927993867133194,0.5029436538348995,fall
10/07/2020, 21:11:57,-7.436893,0.16749759,4.7425747,0.29062447,0.41029334,0.012211111,8.821986592565231,0.5029436538348995,fall
10/07/2020, 21:11:57,-7.436893,0.16749759,4.7425747,0.28329778,0.38831335,0.04029667,8.821986592565231,0.48235745286652526,fall
10/07/2020, 21:11:57,-7.379465,0.33020952,4.658826,0.28329778,0.38831335,0.04029667,8.733281288569826,0.48235745286652526,fall
10/07/2020, 21:11:57,-7.379465,0.33020952,4.658826,0.23811668,0.38953447,0.06227667,8.733281288569826,0.4607765657119015,fall
10/07/2020, 21:11:57,-7.3292155,0.57906306,4.6731825,0.23811668,0.38953447,0.06227667,8.711564085826362,0.4607765657119015,fall
10/07/2020, 21:11:57,-7.3292155,0.57906306,4.6731825,0.15508112,0.41151446,0.068382226,8.711564085826362,0.44505104787526584,fall
10/07/2020, 21:11:57,-7.3028946,0.7609176,4.668397,0.15508112,0.41151446,0.068382226,8.70087323816767,0.44505104787526584,fall
10/07/2020, 21:11:57,-7.3028946,0.7609176,4.668397,0.047623336,0.4261678,0.05617111,8.70087323816767,0.4324837082318971,fall
10/07/2020, 21:11:57,-7.30768,0.8781659,4.6085763,0.047623336,0.4261678,0.05617111,8.684027851401014,0.4324837082318971,fall
10/07/2020, 21:11:57,-7.30768,0.8781659,4.6085763,-0.058613338,0.4383789,0.028085556,8.684027851401014,0.4431708271198204,fall
10/07/2020, 21:11:57,-7.3028946,0.9164511,4.6372905,-0.058613338,0.4383789,0.028085556,8.699230713886328,0.4431708271198204,fall
10/07/2020, 21:11:57,-7.3028946,0.9164511,4.6372905,-0.15752333,0.46035892,0.0,8.699230713886328,0.48656339143097244,fall
10/07/2020, 21:11:57,-7.3028946,0.8279166,4.6037908,-0.15752333,0.46035892,0.0,8.6725200905799,0.48656339143097244,fall
10/07/2020, 21:11:57,-7.3028946,0.8279166,4.6037908,-0.22712667,0.47379112,-0.0024422223,8.6725200905799,0.5254241312271262,fall
10/07/2020, 21:11:57,-7.2933235,0.73459655,4.496114,-0.22712667,0.47379112,-0.0024422223,8.599258055815215,0.5254241312271262,fall
10/07/2020, 21:11:58,13.24188,-0.7752745,6.597012,2.810998,-8.691869,-3.9930334,14.814486675008682,9.96968446232466,fall
10/07/2020, 21:11:58,15.845271,-0.7322037,8.145168,2.810998,-8.691869,-3.9930334,17.831222772557247,9.96968446232466,fall
10/07/2020, 21:11:58,15.845271,-0.7322037,8.145168,3.0137024,-9.135133,-3.8855758,17.831222772557247,10.374524194855043,fall
10/07/2020, 21:11:58,18.532412,-0.552742,9.159725,3.0137024,-9.135133,-3.8855758,20.679854159597195,10.374524194855043,fall
10/07/2020, 21:11:58,18.532412,-0.552742,9.159725,3.2676935,-9.541762,-3.8831334,20.679854159597195,10.80748697943344,fall
10/07/2020, 21:11:58,20.901306,-0.10049855,9.614362,3.2676935,-9.541762,-3.8831334,23.006752290193596,10.80748697943344,fall
10/07/2020, 21:11:58,20.901306,-0.10049855,9.614362,3.4362068,-9.916644,-3.8660378,23.006752290193596,11.1845248469198,fall
10/07/2020, 21:11:58,22.959133,0.6125626,9.698111,3.4362068,-9.916644,-3.8660378,24.930912070800648,11.1845248469198,fall
10/07/2020, 21:11:58,22.959133,0.6125626,9.698111,5.1115713,-8.721176,-3.5558758,24.930912070800648,10.7159380001088,fall
10/07/2020, 21:11:58,27.605995,-8.532805,31.525438,5.1115713,-8.721176,-3.5558758,42.76392169880528,10.7159380001088,fall
10/07/2020, 21:11:58,27.605995,-8.532805,31.525438,2.977069,1.0782411,2.4422224,42.76392169880528,3.9987489509435785,fall
10/07/2020, 21:11:58,17.627924,-26.668009,54.967922,2.977069,1.0782411,2.4422224,63.58772577376883,3.9987489509435785,fall
10/07/2020, 21:11:58,17.627924,-26.668009,54.967922,0.90362227,3.0552201,2.6681278,63.58772577376883,4.155695977329947,fall
10/07/2020, 21:11:58,17.216358,-29.895926,66.687965,0.90362227,3.0552201,2.6681278,75.08298129551521,4.155695977329947,fall
10/07/2020, 21:11:58,17.216358,-29.895926,66.687965,3.1150546,1.3835189,-0.13676445,75.08298129551521,3.4112159655687275,fall
10/07/2020, 21:11:58,22.394426,-20.228922,61.28976,3.1150546,1.3835189,-0.13676445,68.31657460185792,3.4112159655687275,fall
10/07/2020, 21:11:58,22.394426,-20.228922,61.28976,2.6388211,2.646148,-0.27108666,68.31657460185792,3.74686054834856,fall
10/07/2020, 21:11:58,22.236502,-9.169296,40.766518,2.6388211,2.646148,-0.27108666,47.3333599270949,3.74686054834856,fall
10/07/2020, 21:11:58,22.236502,-9.169296,40.766518,0.65329444,5.733117,0.23445335,47.3333599270949,5.774979976369093,fall
10/07/2020, 21:11:58,13.567305,0.8757731,12.306287,0.65329444,5.733117,0.23445335,18.338032282180805,5.774979976369093,fall
10/07/2020, 21:11:59,5.548956,-1.7922242,8.360522,0.05250778,-0.8816423,-0.34191114,10.193199295338589,0.9470762409195255,fall
10/07/2020, 21:11:59,5.548956,-1.7922242,8.360522,-0.047623336,-0.8669889,-0.36511225,10.193199295338589,0.9419366654683508,fall
10/07/2020, 21:11:59,5.063213,-1.2705889,8.2049885,-0.047623336,-0.8669889,-0.36511225,9.72483195855106,0.9419366654683508,fall
10/07/2020, 21:11:59,5.063213,-1.2705889,8.2049885,-0.19171445,-1.0074167,-0.43105224,9.72483195855106,1.112406814259819,fall
10/07/2020, 21:11:59,4.7808595,-1.3998013,9.020942,-0.19171445,-1.0074167,-0.43105224,10.305020650185625,1.112406814259819,fall
10/07/2020, 21:11:59,4.7808595,-1.3998013,9.020942,-0.2503278,-1.1820356,-0.50676113,10.305020650185625,1.3102209469153545,fall
10/07/2020, 21:11:59,5.271388,-2.254039,9.844072,-0.2503278,-1.1820356,-0.50676113,11.391838496167198,1.3102209469153545,fall
10/07/2020, 21:11:59,5.271388,-2.254039,9.844072,-0.13554333,-1.2369856,-0.58124894,11.391838496167198,1.3734466170788093,fall
10/07/2020, 21:11:59,6.202196,-3.182454,10.480563,-0.13554333,-1.2369856,-0.58124894,12.587194092117745,1.3734466170788093,fall
10/07/2020, 21:11:59,6.202196,-3.182454,10.480563,0.08792,-1.1478444,-0.60933447,12.587194092117745,1.3025226546791941,fall
10/07/2020, 21:11:59,7.1808605,-3.7088752,10.535598,0.08792,-1.1478444,-0.60933447,13.278529057226102,1.3025226546791941,fall
10/07/2020, 21:11:59,7.1808605,-3.7088752,10.535598,0.31138334,-0.9280445,-0.54339445,13.278529057226102,1.1195997932212953,fall
10/07/2020, 21:11:59,7.8221374,-3.5940197,10.253245,0.31138334,-0.9280445,-0.54339445,13.387750010773225,1.1195997932212953,fall
10/07/2020, 21:11:59,7.8221374,-3.5940197,10.253245,0.43105224,-0.68626446,-0.48356003,13.387750010773225,0.9437135332023542,fall
10/07/2020, 21:11:59,8.013563,-2.9958138,9.695718,0.43105224,-0.68626446,-0.48356003,12.930546737958787,0.9437135332023542,fall
10/07/2020, 21:11:59,8.013563,-2.9958138,9.695718,0.3858711,-0.4823389,-0.44082114,12.930546737958787,0.7588613926794945,fall
10/07/2020, 21:11:59,7.7479596,-2.1487548,8.432307,0.3858711,-0.4823389,-0.44082114,11.651258771685189,0.7588613926794945,fall
10/07/2020, 21:11:59,7.7479596,-2.1487548,8.432307,0.26986557,-0.31871,-0.41762,11.651258771685189,0.5906013528225836,fall
10/07/2020, 21:11:59,7.1210403,-1.2705889,7.8699937,0.26986557,-0.31871,-0.41762,10.689266219034785,0.5906013528225836,fall
10/07/2020, 21:11:59,7.1210403,-1.2705889,7.8699937,0.20514667,-0.2185789,-0.39564002,10.689266219034785,0.49637981017641347,fall
10/07/2020, 21:12:00,1.9812572,-2.6632116,10.260424,-0.23933779,1.05504,0.5922389,10.783986726788187,1.2333445990988572,fall
10/07/2020, 21:12:00,1.9812572,-2.6632116,10.260424,-0.22590557,1.064809,0.5885756,10.783986726788187,1.237446037419926,fall
10/07/2020, 21:12:00,1.835295,-2.605784,10.260424,-0.22590557,1.064809,0.5885756,10.744054691982772,1.237446037419926,fall
10/07/2020, 21:12:00,1.835295,-2.605784,10.260424,-0.23811668,1.0916734,0.58613336,10.744054691982772,1.2617458645249324,fall
10/07/2020, 21:12:00,1.6773686,-2.589034,10.269995,-0.23811668,1.0916734,0.58613336,10.723313615630321,1.2617458645249324,fall
10/07/2020, 21:12:00,1.6773686,-2.589034,10.269995,-0.24666445,1.1234223,0.5775856,10.723313615630321,1.287061007167959,fall
10/07/2020, 21:12:00,1.5337993,-2.629712,10.279566,-0.24666445,1.1234223,0.5775856,10.720886124012807,1.287061007167959,fall
10/07/2020, 21:12:00,1.5337993,-2.629712,10.279566,-0.2295689,1.1356333,0.56171113,10.720886124012807,1.287588591109768,fall
10/07/2020, 21:12:00,1.4380864,-2.7302105,10.310673,-0.2295689,1.1356333,0.56171113,10.762532919247674,1.287588591109768,fall
10/07/2020, 21:12:00,1.4380864,-2.7302105,10.310673,-0.1746189,1.1222012,0.54095227,10.762532919247674,1.2579573348886186,fall
10/07/2020, 21:12:00,1.3519448,-2.821138,10.305887,-0.1746189,1.1222012,0.54095227,10.770231440031889,1.2579573348886186,fall
10/07/2020, 21:12:00,1.3519448,-2.821138,10.305887,-0.106236674,1.0990001,0.5092034,10.770231440031889,1.2158846652044173,fall
10/07/2020, 21:12:00,1.3399807,-2.9623144,10.269995,-0.106236674,1.0990001,0.5092034,10.772355666996436,1.2158846652044173,fall
10/07/2020, 21:12:00,1.3399807,-2.9623144,10.269995,-0.036633335,1.0806834,0.48844448,10.772355666996436,1.1865060104548495,fall
10/07/2020, 21:12:00,1.3136597,-3.022135,10.279566,-0.036633335,1.0806834,0.48844448,10.794835573738677,1.1865060104548495,fall
10/07/2020, 21:12:00,1.3136597,-3.022135,10.279566,0.014653334,1.0855678,0.47745445,10.794835573738677,1.1860164389381262,fall
10/07/2020, 21:12:00,1.2753744,-3.034099,10.286744,0.014653334,1.0855678,0.47745445,10.800437111377775,1.1860164389381262,fall
10/07/2020, 21:12:00,1.2753744,-3.034099,10.286744,0.034191113,1.1038845,0.46280113,10.800437111377775,1.197461821802042,fall
10/07/2020, 21:12:00,1.160519,-3.0197423,10.255638,0.034191113,1.1038845,0.46280113,10.753778913401732,1.197461821802042,fall
10/07/2020, 21:12:00,1.160519,-3.0197423,10.255638,0.051286668,1.1246433,0.45547447,10.753778913401732,1.2144586949777456,fall
10/07/2020, 21:12:01,-5.682954,0.2009971,6.283552,0.07693,0.5690378,-0.037854444,8.474632262815664,0.5754608555539944,fall
10/07/2020, 21:12:01,-5.682954,0.2009971,6.283552,0.08303556,0.5507211,-0.028085556,8.474632262815664,0.5576535144882602,fall
10/07/2020, 21:12:01,-5.7547383,0.1698904,6.314659,0.08303556,0.5507211,-0.028085556,8.545220640247747,0.5576535144882602,fall
10/07/2020, 21:12:01,-5.7547383,0.1698904,6.314659,0.09036223,0.54095227,-0.007326667,8.545220640247747,0.5484964591280236,fall
10/07/2020, 21:12:01,-5.831309,0.20338993,6.35773,0.09036223,0.54095227,-0.007326667,8.629383518045108,0.5484964591280236,fall
10/07/2020, 21:12:01,-5.831309,0.20338993,6.35773,0.09036223,0.5238567,0.009768889,8.629383518045108,0.5316828049740238,fall
10/07/2020, 21:12:01,-5.9150577,0.25842485,6.3792653,0.09036223,0.5238567,0.009768889,8.703431299665073,0.5316828049740238,fall
10/07/2020, 21:12:01,-5.9150577,0.25842485,6.3792653,0.07693,0.5043189,0.029306669,8.703431299665073,0.51099378835719,fall
10/07/2020, 21:12:01,-6.003592,0.33738798,6.3601227,0.07693,0.5043189,0.029306669,8.752605796893375,0.51099378835719,fall
10/07/2020, 21:12:01,-6.003592,0.33738798,6.3601227,0.06716111,0.48111778,0.04151778,8.752605796893375,0.4875537551039942,fall
10/07/2020, 21:12:01,-6.0418773,0.4354937,6.3625154,0.06716111,0.48111778,0.04151778,8.784960930903399,0.4875537551039942,fall
10/07/2020, 21:12:01,-6.0418773,0.4354937,6.3625154,0.034191113,0.46646446,0.05006556,8.784960930903399,0.4703878024462742,fall
10/07/2020, 21:12:01,-6.0658054,0.5168497,6.3720865,0.034191113,0.46646446,0.05006556,8.812753024339221,0.4703878024462742,fall
10/07/2020, 21:12:01,-6.0658054,0.5168497,6.3720865,-0.0024422223,0.4566956,0.05372889,8.812753024339221,0.459851733401028,fall
10/07/2020, 21:12:01,-6.094519,0.5192425,6.364908,-0.0024422223,0.4566956,0.05372889,8.82750434470969,0.459851733401028,fall
10/07/2020, 21:12:01,-6.094519,0.5192425,6.364908,-0.042738892,0.45303226,0.057392225,8.82750434470969,0.45864878129194064,fall
10/07/2020, 21:12:01,-6.1328044,0.49292147,6.367301,-0.042738892,0.45303226,0.057392225,8.85419579473698,0.45864878129194064,fall
10/07/2020, 21:12:01,-6.1328044,0.49292147,6.367301,-0.07326667,0.44326335,0.06349778,8.85419579473698,0.45374262791723924,fall
10/07/2020, 21:12:01,-6.2117677,0.45224348,6.300302,-0.07326667,0.44326335,0.06349778,8.859141462033303,0.45374262791723924,fall
10/07/2020, 21:12:01,-6.2117677,0.45224348,6.300302,-0.08792,0.4273889,0.064718895,8.859141462033303,0.4411119354215902,fall
10/07/2020, 21:12:02,-4.3932223,1.375873,0.7704889,-3.0063758,0.56659555,-0.23567446,4.667663447533077,3.0683657474065034,fall
10/07/2020, 21:12:02,-4.5391846,1.282553,0.5024927,-3.0063758,0.56659555,-0.23567446,4.743589104441448,3.0683657474065034,fall
10/07/2020, 21:12:02,-4.5391846,1.282553,0.5024927,-3.0808635,0.51775116,-0.32359445,4.743589104441448,3.1407800601236757,fall
10/07/2020, 21:12:02,-4.8358946,1.3663018,0.078963146,-3.0808635,0.51775116,-0.32359445,5.025822534926786,3.1407800601236757,fall
10/07/2020, 21:12:02,-4.8358946,1.3663018,0.078963146,-3.1797736,0.34557447,-0.42983112,5.025822534926786,3.2272490535225304,fall
10/07/2020, 21:12:02,-5.1254263,1.5218352,-0.34217364,-3.1797736,0.34557447,-0.42983112,5.357523670157085,3.2272490535225304,fall
10/07/2020, 21:12:02,-5.1254263,1.5218352,-0.34217364,-3.3873622,0.1306589,-0.55438447,5.357523670157085,3.4349143867272325,fall
10/07/2020, 21:12:02,-5.1924253,1.6510476,-0.55752766,-3.3873622,0.1306589,-0.55438447,5.477049864322832,3.4349143867272325,fall
10/07/2020, 21:12:02,-5.1924253,1.6510476,-0.55752766,-3.7158413,-0.026864445,-0.6935911,5.477049864322832,3.780114661544326,fall
10/07/2020, 21:12:02,-4.9268217,1.6797615,-0.55513483,-3.7158413,-0.026864445,-0.6935911,5.234820496059984,3.780114661544326,fall
10/07/2020, 21:12:02,-4.9268217,1.6797615,-0.55513483,-4.076069,-0.057392225,-0.82425004,5.234820496059984,4.1589685619789964,fall
10/07/2020, 21:12:02,-4.4410787,1.6175481,-0.43070808,-4.076069,-0.057392225,-0.82425004,4.746066900337004,4.1589685619789964,fall
10/07/2020, 21:12:02,-4.4410787,1.6175481,-0.43070808,-4.3764625,0.034191113,-0.9610145,4.746066900337004,4.48086393222061,fall
10/07/2020, 21:12:02,-3.95055,1.4931214,-0.2727818,-4.3764625,0.034191113,-0.9610145,4.2320996332852365,4.48086393222061,fall
10/07/2020, 21:12:02,-3.95055,1.4931214,-0.2727818,-4.546197,0.17095557,-1.1295278,4.2320996332852365,4.6875329832255055,fall
10/07/2020, 21:12:02,-3.5676985,1.3064811,-0.23449662,-4.546197,0.17095557,-1.1295278,3.806619763768944,4.6875329832255055,fall
10/07/2020, 21:12:02,-3.5676985,1.3064811,-0.23449662,-4.547418,0.26620224,-1.34078,3.806619763768944,4.748427764026389,fall
10/07/2020, 21:12:02,-3.3379877,1.0001999,-0.27996024,-4.547418,0.26620224,-1.34078,3.49584599690072,4.748427764026389,fall
10/07/2020, 21:12:02,-3.3379877,1.0001999,-0.27996024,-4.3898945,0.28940335,-1.5911078,3.49584599690072,4.678306538427454,fall
10/07/2020, 21:12:02,-3.2422748,0.5982057,-0.36370903,-4.3898945,0.28940335,-1.5911078,3.316998632765004,4.678306538427454,fall
10/07/2020, 21:12:03,-2.9240294,-7.5996046,5.6709895,0.03174889,-0.012211111,-0.10013112,9.922905818330253,0.10575133032736518,fall
10/07/2020, 21:12:03,-2.9240294,-7.5996046,5.6709895,0.017095556,-0.02198,-0.11478445,9.922905818330253,0.11811370915560804,fall
10/07/2020, 21:12:03,-2.9168508,-7.5900335,5.6757755,0.017095556,-0.02198,-0.11478445,9.916201665384444,0.11811370915560804,fall
10/07/2020, 21:12:03,-2.9168508,-7.5900335,5.6757755,0.0048844446,-0.026864445,-0.11844778,9.916201665384444,0.12155423862250266,fall
10/07/2020, 21:12:03,-2.8666015,-7.5637126,5.6590257,0.0048844446,-0.026864445,-0.11844778,9.87176396310599,0.12155423862250266,fall
10/07/2020, 21:12:03,-2.8666015,-7.5637126,5.6590257,-0.013432222,-0.024422223,-0.10135223,9.87176396310599,0.1051149087006754,fall
10/07/2020, 21:12:03,-2.7948167,-7.530213,5.6590257,-0.013432222,-0.024422223,-0.10135223,9.8254607066046,0.1051149087006754,fall
10/07/2020, 21:12:03,-2.7948167,-7.530213,5.6590257,-0.04029667,-0.009768889,-0.08303556,9.8254607066046,0.09281248183335732,fall
10/07/2020, 21:12:03,-2.713461,-7.4919276,5.656633,-0.04029667,-0.009768889,-0.08303556,9.77186499415928,0.09281248183335732,fall
10/07/2020, 21:12:03,-2.713461,-7.4919276,5.656633,-0.06594,0.014653334,-0.05617111,9.77186499415928,0.08785213498208255,fall
10/07/2020, 21:12:03,-2.6536403,-7.487142,5.65424,-0.06594,0.014653334,-0.05617111,9.750360750427546,0.08785213498208255,fall
10/07/2020, 21:12:03,-2.6536403,-7.487142,5.65424,-0.08059334,0.03052778,-0.02075889,9.750360750427546,0.08864628197426379,fall
10/07/2020, 21:12:03,-2.6416762,-7.5182486,5.582455,-0.08059334,0.03052778,-0.02075889,9.729661867398669,0.08864628197426379,fall
10/07/2020, 21:12:03,-2.6416762,-7.5182486,5.582455,-0.051286668,0.03297,0.008547778,9.729661867398669,0.06156628694933071,fall
10/07/2020, 21:12:03,-2.6632116,-7.5326056,5.4963136,-0.051286668,0.03297,0.008547778,9.697541269389596,0.06156628694933071,fall
10/07/2020, 21:12:03,-2.6632116,-7.5326056,5.4963136,-0.008547778,0.03052778,0.017095556,9.697541269389596,0.03601760549808705,fall
10/07/2020, 21:12:03,-2.7086751,-7.5493555,5.4460645,-0.008547778,0.03052778,0.017095556,9.694808293719573,0.03601760549808705,fall
10/07/2020, 21:12:03,-2.7086751,-7.5493555,5.4460645,0.02198,0.023201112,0.013432222,9.694808293719573,0.03466751523273893,fall
10/07/2020, 21:12:03,-2.7565317,-7.5828547,5.45085,0.02198,0.023201112,0.013432222,9.737038515606523,0.03466751523273893,fall
10/07/2020, 21:12:03,-2.7565317,-7.5828547,5.45085,0.059834447,0.013432222,0.018316668,9.737038515606523,0.06400067130298447,fall
10/07/2020, 21:12:04,6.1710896,-5.4891353,10.028319,-0.22712667,-1.7632846,-1.4873134,12.991541193498927,2.3179430749361845,fall
10/07/2020, 21:12:04,7.984849,-5.168497,10.255638,-0.22712667,-1.7632846,-1.4873134,13.987468984634935,2.3179430749361845,fall
10/07/2020, 21:12:04,7.984849,-5.168497,10.255638,0.6325356,-1.394509,-2.449549,13.987468984634935,2.8887794300755503,fall
10/07/2020, 21:12:04,9.226724,-5.919843,10.480563,0.6325356,-1.394509,-2.449549,15.166383135252312,2.8887794300755503,fall
10/07/2020, 21:12:04,9.226724,-5.919843,10.480563,1.295599,-0.7436567,-2.3201113,15.166383135252312,2.759441670640032,fall
10/07/2020, 21:12:04,8.592627,-7.585248,10.155139,1.295599,-0.7436567,-2.3201113,15.313264381267837,2.759441670640032,fall
10/07/2020, 21:12:04,8.592627,-7.585248,10.155139,1.29682,-0.47501224,-1.185699,15.313264381267837,1.8202365077634433,fall
10/07/2020, 21:12:04,6.6711893,-8.233703,9.348758,1.29682,-0.47501224,-1.185699,14.131450655369273,1.8202365077634433,fall
10/07/2020, 21:12:04,6.6711893,-8.233703,9.348758,1.0245123,-0.7656367,-0.29184556,14.131450655369273,1.3118684365657012,fall
10/07/2020, 21:12:04,5.3407803,-7.111469,8.719446,1.0245123,-0.7656367,-0.29184556,12.454945357984007,1.3118684365657012,fall
10/07/2020, 21:12:04,5.3407803,-7.111469,8.719446,0.8266923,-0.9402556,-0.21491556,12.454945357984007,1.2703107448584245,fall
10/07/2020, 21:12:04,5.2689953,-5.477171,8.7266245,0.8266923,-0.9402556,-0.21491556,11.572194598904323,1.2703107448584245,fall
10/07/2020, 21:12:04,5.2689953,-5.477171,8.7266245,0.64841,-0.7570889,-0.6288723,11.572194598904323,1.178600652294475,fall
10/07/2020, 21:12:04,5.7810597,-4.4195433,9.092726,0.64841,-0.7570889,-0.6288723,11.64605839142441,1.178600652294475,fall
10/07/2020, 21:12:04,5.7810597,-4.4195433,9.092726,0.45547447,-0.45791668,-0.92193896,11.64605839142441,1.1256625207053104,fall
10/07/2020, 21:12:04,6.1328044,-4.197011,9.363115,0.45547447,-0.45791668,-0.92193896,11.95383283037317,1.1256625207053104,fall
10/07/2020, 21:12:04,6.1328044,-4.197011,9.363115,0.3712178,-0.08059334,-0.84623003,11.95383283037317,0.9275792126960504,fall
10/07/2020, 21:12:04,6.142376,-4.5918264,9.889536,0.3712178,-0.08059334,-0.84623003,12.514654318146425,0.9275792126960504,fall
10/07/2020, 21:12:04,6.142376,-4.5918264,9.889536,0.48600224,0.17828223,-0.5580478,12.514654318146425,0.7611833176920532,fall
10/07/2020, 21:12:04,5.946164,-5.3240304,10.296316,0.48600224,0.17828223,-0.5580478,13.027520629941607,0.7611833176920532,fall
10/07/2020, 21:12:05,-4.74736,-0.6867401,6.9966135,-0.31504667,0.98055226,0.078151114,8.483020783744355,1.0328817583209864,fall
10/07/2020, 21:12:05,-4.74736,-0.6867401,6.9966135,-0.24666445,0.9610145,0.13676445,8.483020783744355,1.0015471795531223,fall
10/07/2020, 21:12:05,-4.8502517,-0.6963114,7.015756,-0.24666445,0.9610145,0.13676445,8.557489408218245,1.0015471795531223,fall
10/07/2020, 21:12:05,-4.8502517,-0.6963114,7.015756,-0.2075889,0.91583335,0.14897557,8.557489408218245,0.9508089194853474,fall
10/07/2020, 21:12:05,-4.955536,-0.6269195,6.943971,-0.2075889,0.91583335,0.14897557,8.553893817652668,0.9508089194853474,fall
10/07/2020, 21:12:05,-4.955536,-0.6269195,6.943971,-0.1965989,0.86821,0.15019667,8.553893817652668,0.9027728414891754,fall
10/07/2020, 21:12:05,-5.06082,-0.53599226,6.896115,-0.1965989,0.86821,0.15019667,8.570623519665629,0.9027728414891754,fall
10/07/2020, 21:12:05,-5.06082,-0.53599226,6.896115,-0.21247335,0.86088336,0.15508112,8.570623519665629,0.9001751104216464,fall
10/07/2020, 21:12:05,-5.15414,-0.4331009,6.903293,-0.21247335,0.86088336,0.15508112,8.626018291684307,0.9001751104216464,fall
10/07/2020, 21:12:05,-5.15414,-0.4331009,6.903293,-0.24788557,0.8755367,0.16240779,8.626018291684307,0.9243311219655014,fall
10/07/2020, 21:12:05,-5.302495,-0.32063824,6.9702926,-0.24788557,0.8755367,0.16240779,8.763802862975998,0.9243311219655014,fall
10/07/2020, 21:12:05,-5.302495,-0.32063824,6.9702926,-0.27841336,0.8853056,0.16851334,8.763802862975998,0.9432267591909665,fall
10/07/2020, 21:12:05,-5.4819565,-0.20817557,7.0492554,-0.27841336,0.8853056,0.16851334,8.932367279985638,0.9432267591909665,fall
10/07/2020, 21:12:05,-5.4819565,-0.20817557,7.0492554,-0.29062447,0.8633256,0.15752333,8.932367279985638,0.9244497106416324,fall
10/07/2020, 21:12:05,-5.656633,-0.15314065,7.133004,-0.29062447,0.8633256,0.15752333,9.104981964846912,0.9244497106416324,fall
10/07/2020, 21:12:05,-5.656633,-0.15314065,7.133004,-0.27719223,0.8327978,0.14164889,9.104981964846912,0.8890737655918864,fall
10/07/2020, 21:12:05,-5.749953,-0.20578274,7.245467,-0.27719223,0.8327978,0.14164889,9.252086164902051,0.8890737655918864,fall
10/07/2020, 21:12:05,-5.749953,-0.20578274,7.245467,-0.2503278,0.81081784,0.13554333,9.252086164902051,0.8593378648670487,fall
10/07/2020, 21:12:05,-5.7523456,-0.32303107,7.331609,-0.2503278,0.81081784,0.13554333,9.324500829802163,0.8593378648670487,fall
10/07/2020, 21:12:05,-5.7523456,-0.32303107,7.331609,-0.20881,0.8120389,0.14653334,9.324500829802163,0.8511643843541614,fall
10/07/2020, 21:12:06,-5.2905307,-1.753939,2.440679,-2.4410012,-0.32481557,-0.52752,6.08464718467602,2.5183862396494634,fall
10/07/2020, 21:12:06,-5.2905307,-1.753939,2.440679,-2.6205046,-0.34191114,-0.5030978,6.08464718467602,2.6901775119514277,fall
10/07/2020, 21:12:06,-5.0105705,-1.8640088,2.416751,-2.6205046,-0.34191114,-0.5030978,5.866943897465206,2.6901775119514277,fall
10/07/2020, 21:12:06,-5.0105705,-1.8640088,2.416751,-2.8171034,-0.32481557,-0.5104245,5.866943897465206,2.8813381972947885,fall
10/07/2020, 21:12:06,-4.6612186,-1.9405792,2.3641088,-2.8171034,-0.32481557,-0.5104245,5.575106922756862,2.8813381972947885,fall
10/07/2020, 21:12:06,-4.6612186,-1.9405792,2.3641088,-3.010039,-0.28085557,-0.5153089,5.575106922756862,3.0667178642007458,fall
10/07/2020, 21:12:06,-4.304688,-2.036292,2.3138595,-3.010039,-0.28085557,-0.5153089,5.294409278707167,3.0667178642007458,fall
10/07/2020, 21:12:06,-4.304688,-2.036292,2.3138595,-3.1663413,-0.22102112,-0.52752,5.294409278707167,3.2175837119423227,fall
10/07/2020, 21:12:06,-3.9744785,-2.1248264,2.2636101,-3.1663413,-0.22102112,-0.52752,5.043341885357374,3.2175837119423227,fall
10/07/2020, 21:12:06,-3.9744785,-2.1248264,2.2636101,-3.2542613,-0.16362889,-0.5678167,5.043341885357374,3.3074773631271066,fall
10/07/2020, 21:12:06,-3.6993039,-2.2037897,2.225325,-3.2542613,-0.16362889,-0.5678167,4.8470207358242146,3.3074773631271066,fall
10/07/2020, 21:12:06,-3.6993039,-2.2037897,2.225325,-3.2945578,-0.10745778,-0.6288723,4.8470207358242146,3.3557620111323945,fall
10/07/2020, 21:12:06,-3.5006995,-2.3018954,2.1894326,-3.2945578,-0.10745778,-0.6288723,4.7272861847546945,3.3557620111323945,fall
10/07/2020, 21:12:06,-3.5006995,-2.3018954,2.1894326,-3.3238647,-0.042738892,-0.7204556,4.7272861847546945,3.401317303479315,fall
10/07/2020, 21:12:06,-3.3906298,-2.4215364,2.0961127,-3.3238647,-0.042738892,-0.7204556,4.664107369326339,3.401317303479315,fall
10/07/2020, 21:12:06,-3.3906298,-2.4215364,2.0961127,-3.3519502,0.01099,-0.7973856,4.664107369326339,3.4455064164205607,fall
10/07/2020, 21:12:06,-3.3260236,-2.5866413,1.8807586,-3.3519502,0.01099,-0.7973856,4.614152055859274,3.4455064164205607,fall
10/07/2020, 21:12:06,-3.3260236,-2.5866413,1.8807586,-3.372709,0.03052778,-0.85111445,4.614152055859274,3.4785764324234063,fall
10/07/2020, 21:12:06,-3.2757742,-2.7397819,1.6223338,-3.372709,0.03052778,-0.85111445,4.568267542651949,3.4785764324234063,fall
10/07/2020, 21:12:06,-3.2757742,-2.7397819,1.6223338,-3.393468,0.019537779,-0.8877478,4.568267542651949,3.507720389907332,fall
10/07/2020, 21:12:07,-1.9645073,-6.250053,-7.4679995,0.05617111,-0.10867889,0.018316668,9.934458546799453,0.12370042735442731,fall
10/07/2020, 21:12:07,-1.9645073,-6.250053,-7.4679995,0.045181114,-0.10867889,0.029306669,9.934458546799453,0.12129021205337635,fall
10/07/2020, 21:12:07,-1.9764715,-6.142376,-7.274181,0.045181114,-0.10867889,0.029306669,9.723627390632187,0.12129021205337635,fall
10/07/2020, 21:12:07,-1.9764715,-6.142376,-7.274181,0.03297,-0.08303556,0.02075889,9.723627390632187,0.09172162433713045,fall
10/07/2020, 21:12:07,-1.9860427,-6.04427,-7.1162543,0.03297,-0.08303556,0.02075889,9.545608505553274,0.09172162433713045,fall
10/07/2020, 21:12:07,-1.9860427,-6.04427,-7.1162543,0.018316668,-0.058613338,-0.0036633336,9.545608505553274,0.06151783208299081,fall
10/07/2020, 21:12:07,-2.0027926,-6.0083776,-7.0540414,0.018316668,-0.058613338,-0.0036633336,9.480046353478693,0.06151783208299081,fall
10/07/2020, 21:12:07,-2.0027926,-6.0083776,-7.0540414,0.017095556,-0.039075557,-0.008547778,9.480046353478693,0.043499675059841474,fall
10/07/2020, 21:12:07,-2.009971,-6.0514483,-7.1162543,0.017095556,-0.039075557,-0.008547778,9.555160165671966,0.043499675059841474,fall
10/07/2020, 21:12:07,-2.009971,-6.0514483,-7.1162543,0.019537779,-0.03297,-0.0048844446,9.555160165671966,0.03863422698617818,fall
10/07/2020, 21:12:07,-2.0147567,-6.142376,-7.2502527,0.019537779,-0.03297,-0.0048844446,9.713608562100484,0.03863422698617818,fall
10/07/2020, 21:12:07,-2.0147567,-6.142376,-7.2502527,0.028085556,-0.04029667,-0.0036633336,9.713608562100484,0.04925484828203312,fall
10/07/2020, 21:12:07,-2.0195422,-6.2117677,-7.3627152,0.028085556,-0.04029667,-0.0036633336,9.842468397981628,0.04925484828203312,fall
10/07/2020, 21:12:07,-2.0195422,-6.2117677,-7.3627152,0.034191113,-0.05617111,0.0048844446,9.842468397981628,0.06594000153105568,fall
10/07/2020, 21:12:07,-2.0147567,-6.2309103,-7.389036,0.034191113,-0.05617111,0.0048844446,9.873264065542452,0.06594000153105568,fall
10/07/2020, 21:12:07,-2.0147567,-6.2309103,-7.389036,0.035412222,-0.064718895,0.0061055557,9.873264065542452,0.07402593203539744,fall
10/07/2020, 21:12:07,-2.009971,-6.1830535,-7.314859,0.035412222,-0.064718895,0.0061055557,9.78658747772912,0.07402593203539744,fall
10/07/2020, 21:12:07,-2.009971,-6.1830535,-7.314859,0.03174889,-0.06349778,0.01099,9.78658747772912,0.0718382938743447,fall
10/07/2020, 21:12:07,-2.0195422,-6.108876,-7.1712894,0.03174889,-0.06349778,0.01099,9.634537447617896,0.0718382938743447,fall
10/07/2020, 21:12:07,-2.0195422,-6.108876,-7.1712894,0.01099,-0.046402223,0.0,9.634537447617896,0.04768591452911461,fall
10/07/2020, 21:12:08,-0.62452674,-8.944371,-6.0155563,1.0831256,0.6325356,-1.2040156,10.79716297254584,1.7386534726088743,fall
10/07/2020, 21:12:08,-0.5407779,-8.736196,-5.6709895,1.0831256,0.6325356,-1.2040156,10.429461911278322,1.7386534726088743,fall
10/07/2020, 21:12:08,-0.5407779,-8.736196,-5.6709895,1.0635878,0.65940005,-1.2369856,10.429461911278322,1.7595910554783987,fall
10/07/2020, 21:12:08,-0.4642076,-8.566305,-5.393422,1.0635878,0.65940005,-1.2369856,10.133413789389676,1.7595910554783987,fall
10/07/2020, 21:12:08,-0.4642076,-8.566305,-5.393422,1.0306178,0.69237006,-1.2943778,10.133413789389676,1.7935895051361697,fall
10/07/2020, 21:12:08,-0.39720857,-8.372486,-5.144569,1.0306178,0.69237006,-1.2943778,9.834779497313237,1.7935895051361697,fall
10/07/2020, 21:12:08,-0.39720857,-8.372486,-5.144569,0.9720045,0.7167922,-1.3468856,9.834779497313237,1.8090562478627021,fall
10/07/2020, 21:12:08,-0.28235307,-8.590233,-5.099105,0.9720045,0.7167922,-1.3468856,9.993632685390992,1.8090562478627021,fall
10/07/2020, 21:12:08,-0.28235307,-8.590233,-5.099105,0.8437878,0.7228978,-1.3481067,9.993632685390992,1.7469833686108727,fall
10/07/2020, 21:12:08,-0.06699903,-9.255438,-5.2498527,0.8437878,0.7228978,-1.3481067,10.640891485529925,1.7469833686108727,fall
10/07/2020, 21:12:08,-0.06699903,-9.255438,-5.2498527,0.7326667,0.72411895,-1.3065889,10.640891485529925,1.6638278831391953,fall
10/07/2020, 21:12:08,0.14596218,-9.559326,-5.2737813,0.7326667,0.72411895,-1.3065889,10.918552606175586,1.6638278831391953,fall
10/07/2020, 21:12:08,0.14596218,-9.559326,-5.2737813,0.61544,0.72411895,-1.2809457,10.918552606175586,1.5949722375321524,fall
10/07/2020, 21:12:08,0.3062813,-9.444471,-5.0679984,0.61544,0.72411895,-1.2809457,10.72270746434284,1.5949722375321524,fall
10/07/2020, 21:12:08,0.3062813,-9.444471,-5.0679984,0.4908867,0.7326667,-1.2382067,10.72270746434284,1.5201730602961516,fall
10/07/2020, 21:12:08,0.44506502,-9.394221,-5.0105705,0.4908867,0.7326667,-1.2382067,10.656232627615724,1.5201730602961516,fall
10/07/2020, 21:12:08,0.44506502,-9.394221,-5.0105705,0.38465002,0.7326667,-1.1832567,10.656232627615724,1.443901871960791,fall
10/07/2020, 21:12:08,0.60777694,-9.4229355,-5.070391,0.38465002,0.7326667,-1.1832567,10.717741024964445,1.443901871960791,fall
10/07/2020, 21:12:08,0.60777694,-9.4229355,-5.070391,0.31138334,0.7314456,-1.1283067,10.717741024964445,1.3802348994784113,fall
10/07/2020, 21:12:08,0.7513463,-9.420543,-5.0751767,0.31138334,0.7314456,-1.1283067,10.727001679277548,1.3802348994784113,fall
10/07/2020, 21:12:09,0.1363909,-7.1712894,8.441878,2.3030157,0.72411895,1.0635878,11.077513453593053,2.6380766824111213,fall
10/07/2020, 21:12:09,-0.0071784677,-6.9559355,8.446664,2.3030157,0.72411895,1.0635878,10.942176210070647,2.6380766824111213,fall
10/07/2020, 21:12:09,-0.0071784677,-6.9559355,8.446664,2.2566135,0.75953114,1.0831256,10.942176210070647,2.6157891842125682,fall
10/07/2020, 21:12:09,-0.12921242,-6.7094746,8.46102,2.2566135,0.75953114,1.0831256,10.799194977322763,2.6157891842125682,fall
10/07/2020, 21:12:09,-0.12921242,-6.7094746,8.46102,2.2041056,0.7937223,1.0794623,10.799194977322763,2.579402148725979,fall
10/07/2020, 21:12:09,-0.23688944,-6.448657,8.4705925,2.2041056,0.7937223,1.0794623,10.648578846559396,2.579402148725979,fall
10/07/2020, 21:12:09,-0.23688944,-6.448657,8.4705925,2.1430502,0.81081784,1.064809,10.648578846559396,2.526639632083263,fall
10/07/2020, 21:12:09,-0.29192436,-6.2285175,8.437093,2.1430502,0.81081784,1.064809,10.491147938979658,2.526639632083263,fall
10/07/2020, 21:12:09,-0.29192436,-6.2285175,8.437093,2.0856578,0.8120389,1.0599245,10.491147938979658,2.4764522381114555,fall
10/07/2020, 21:12:09,-0.33260235,-6.0394845,8.386844,2.0856578,0.8120389,1.0599245,10.340461512721694,2.4764522381114555,fall
10/07/2020, 21:12:09,-0.33260235,-6.0394845,8.386844,2.0343711,0.7986067,1.0733567,10.340461512721694,2.434857959830109,fall
10/07/2020, 21:12:09,-0.39481574,-5.8360944,8.26481,2.0343711,0.7986067,1.0733567,10.125361965902119,2.434857959830109,fall
10/07/2020, 21:12:09,-0.39481574,-5.8360944,8.26481,2.0233812,0.7973856,1.0819045,10.125361965902119,2.429076528383763,fall
10/07/2020, 21:12:09,-0.4833502,-5.6303115,8.29113,2.0233812,0.7973856,1.0819045,10.033786555339624,2.429076528383763,fall
10/07/2020, 21:12:09,-0.4833502,-5.6303115,8.29113,2.0307078,0.79616445,1.06603,10.033786555339624,2.427771028598678,fall
10/07/2020, 21:12:09,-0.5814559,-5.3886366,8.30788,2.0307078,0.79616445,1.06603,9.919494543781779,2.427771028598678,fall
10/07/2020, 21:12:09,-0.5814559,-5.3886366,8.30788,2.0258234,0.79128003,1.0379444,9.919494543781779,2.409857465638043,fall
10/07/2020, 21:12:09,-0.66999036,-5.2139606,8.312666,2.0258234,0.79128003,1.0379444,9.835379389578176,2.409857465638043,fall
10/07/2020, 21:12:09,-0.66999036,-5.2139606,8.312666,2.0087278,0.77418447,1.0293967,9.835379389578176,2.3862117228042443,fall
10/07/2020, 21:12:09,-0.70588267,-5.0847483,8.310273,2.0087278,0.77418447,1.0293967,9.767987277825467,2.3862117228042443,fall
10/07/2020, 21:12:10,-7.6331043,-0.06699903,5.383851,-0.13798556,0.20636779,0.109900005,9.341018287083012,0.27148791906976144,fall
10/07/2020, 21:12:10,-7.645068,-0.016749758,5.359923,-0.13798556,0.20636779,0.109900005,9.33681536715252,0.27148791906976144,fall
10/07/2020, 21:12:10,-7.645068,-0.016749758,5.359923,-0.14897557,0.19293556,0.11844778,9.33681536715252,0.27101240717163355,fall
10/07/2020, 21:12:10,-7.704889,0.078963146,5.328816,-0.14897557,0.19293556,0.11844778,9.368448441860053,0.27101240717163355,fall
10/07/2020, 21:12:10,-7.704889,0.078963146,5.328816,-0.17950334,0.19293556,0.12089001,9.368448441860053,0.2899309750975495,fall
10/07/2020, 21:12:10,-7.7551384,0.15074782,5.3359947,-0.17950334,0.19293556,0.12089001,9.414761607295684,0.2899309750975495,fall
10/07/2020, 21:12:10,-7.7551384,0.15074782,5.3359947,-0.2295689,0.21003112,0.11966889,9.414761607295684,0.3333700579103641,fall
10/07/2020, 21:12:10,-7.798209,0.16510476,5.3383875,-0.2295689,0.21003112,0.11966889,9.45186262835049,0.3333700579103641,fall
10/07/2020, 21:12:10,-7.798209,0.16510476,5.3383875,-0.27230778,0.21613668,0.117226675,9.45186262835049,0.36689056444785123,fall
10/07/2020, 21:12:10,-7.8436728,0.14117654,5.312066,-0.27230778,0.21613668,0.117226675,9.474237651650807,0.36689056444785123,fall
10/07/2020, 21:12:10,-7.8436728,0.14117654,5.312066,-0.28940335,0.21491556,0.10501556,9.474237651650807,0.37546140137719475,fall
10/07/2020, 21:12:10,-7.8987074,0.11246266,5.276174,-0.28940335,0.21491556,0.10501556,9.499486253537802,0.37546140137719475,fall
10/07/2020, 21:12:10,-7.8987074,0.11246266,5.276174,-0.27719223,0.19171445,0.09646778,9.499486253537802,0.35056525492851104,fall
10/07/2020, 21:12:10,-7.941778,0.08135597,5.218746,-0.27719223,0.19171445,0.09646778,9.503355788753193,0.35056525492851104,fall
10/07/2020, 21:12:10,-7.941778,0.08135597,5.218746,-0.25521225,0.16118668,0.09280445,9.503355788753193,0.315795982290097,fall
10/07/2020, 21:12:10,-7.975278,0.047856454,5.1613183,-0.25521225,0.16118668,0.09280445,9.499818653514032,0.315795982290097,fall
10/07/2020, 21:12:10,-7.975278,0.047856454,5.1613183,-0.22102112,0.13920668,0.08303556,9.499818653514032,0.27408709692191235,fall
10/07/2020, 21:12:10,-8.001599,0.016749758,5.1661043,-0.22102112,0.13920668,0.08303556,9.524416302986907,0.27408709692191235,fall
10/07/2020, 21:12:10,-8.001599,0.016749758,5.1661043,-0.18072446,0.12699556,0.085477784,9.524416302986907,0.2368452112230697,fall
10/07/2020, 21:12:10,-8.01117,-0.009571291,5.2139606,-0.18072446,0.12699556,0.085477784,9.558468926454083,0.2368452112230697,fall
10/07/2020, 21:12:11,10.499705,-2.766103,4.7042894,1.6204145,-8.028806,-5.7062526,11.83323610697833,9.982423707686557,fall
10/07/2020, 21:12:11,12.143575,-2.926422,5.879165,1.6204145,-8.028806,-5.7062526,13.805612496241595,9.982423707686557,fall
10/07/2020, 21:12:11,12.143575,-2.926422,5.879165,1.8524256,-8.646688,-5.854007,13.805612496241595,10.605003398867161,fall
10/07/2020, 21:12:11,13.770695,-2.969493,6.7262244,1.8524256,-8.646688,-5.854007,15.610637929234624,10.605003398867161,fall
10/07/2020, 21:12:11,13.770695,-2.969493,6.7262244,2.0111701,-9.25358,-5.9504747,15.610637929234624,11.183993004855564,fall
10/07/2020, 21:12:11,15.567704,-2.751746,7.1042905,2.0111701,-9.25358,-5.9504747,17.331949200732655,11.183993004855564,fall
10/07/2020, 21:12:11,15.567704,-2.751746,7.1042905,2.1821256,-9.816513,-6.032289,17.331949200732655,11.726641104878833,fall
10/07/2020, 21:12:11,17.584854,-2.457429,7.075577,2.1821256,-9.816513,-6.032289,19.113603490441637,11.726641104878833,fall
10/07/2020, 21:12:11,17.584854,-2.457429,7.075577,2.449549,-10.372118,-6.0579324,19.113603490441637,12.258860734838951,fall
10/07/2020, 21:12:11,19.920248,-2.158326,7.4416785,2.449549,-10.372118,-6.0579324,21.374125283439334,12.258860734838951,fall
10/07/2020, 21:12:11,19.920248,-2.158326,7.4416785,4.3801255,-6.724659,-4.11026,21.374125283439334,9.016694247427932,fall
10/07/2020, 21:12:11,23.28695,-9.4636135,32.49453,4.3801255,-6.724659,-4.11026,41.08206961357881,9.016694247427932,fall
10/07/2020, 21:12:11,23.28695,-9.4636135,32.49453,0.34679556,1.2357645,1.5117356,41.08206961357881,1.9831100490428946,fall
10/07/2020, 21:12:11,17.469997,-30.558739,55.489555,0.34679556,1.2357645,1.5117356,65.71246513978107,1.9831100490428946,fall
10/07/2020, 21:12:11,17.469997,-30.558739,55.489555,1.9452301,1.95622,0.17584,65.71246513978107,2.7643510560128273,fall
10/07/2020, 21:12:11,9.686146,-54.43911,66.98707,1.9452301,1.95622,0.17584,86.86026363667372,2.7643510560128273,fall
10/07/2020, 21:12:11,9.686146,-54.43911,66.98707,5.1115713,-1.2186689,1.3151367,86.86026363667372,5.416908686733994,fall
10/07/2020, 21:12:11,10.155139,-45.968517,70.1456,5.1115713,-1.2186689,1.3151367,84.4786158792588,5.416908686733994,fall
10/07/2020, 21:12:11,10.155139,-45.968517,70.1456,4.459498,0.75953114,0.74976224,84.4786158792588,4.585428305036172,fall
10/07/2020, 21:12:11,17.527426,-22.686352,52.03432,4.459498,0.75953114,0.74976224,59.40918914837059,4.585428305036172,fall
10/07/2020, 21:12:12,-0.47856453,-3.6610186,7.513463,0.2185789,-0.31260446,-0.14287001,8.371631133209146,0.4073206645049871,fall
10/07/2020, 21:12:12,-0.47856453,-3.6610186,7.513463,0.21613668,-0.42006224,-0.22712667,8.371631133209146,0.5241697037611455,fall
10/07/2020, 21:12:12,-0.4235296,-3.7256248,8.16431,0.21613668,-0.42006224,-0.22712667,8.98418736877144,0.5241697037611455,fall
10/07/2020, 21:12:12,-0.4235296,-3.7256248,8.16431,0.16607112,-0.46402225,-0.27719223,8.98418736877144,0.5654483164432278,fall
10/07/2020, 21:12:12,-0.03589234,-4.2759743,9.178867,0.16607112,-0.46402225,-0.27719223,10.126048088779866,0.5654483164432278,fall
10/07/2020, 21:12:12,-0.03589234,-4.2759743,9.178867,0.11112112,-0.38831335,-0.23567446,10.126048088779866,0.46762978107206876,fall
10/07/2020, 21:12:12,0.55034924,-4.9531426,10.059426,0.11112112,-0.38831335,-0.23567446,11.226244428227911,0.46762978107206876,fall
10/07/2020, 21:12:12,0.55034924,-4.9531426,10.059426,0.070824444,-0.22712667,-0.13920668,11.226244428227911,0.2756467423083086,fall
10/07/2020, 21:12:12,0.930808,-5.276174,10.212567,0.070824444,-0.22712667,-0.13920668,11.532603687177073,0.2756467423083086,fall
10/07/2020, 21:12:12,0.930808,-5.276174,10.212567,0.068382226,-0.10867889,-0.047623336,11.532603687177073,0.1369496718023056,fall
10/07/2020, 21:12:12,0.7896315,-4.965107,9.480363,0.068382226,-0.10867889,-0.047623336,10.730940574596639,0.1369496718023056,fall
10/07/2020, 21:12:12,0.7896315,-4.965107,9.480363,0.078151114,-0.12089001,-0.028085556,10.730940574596639,0.14666556775909448,fall
10/07/2020, 21:12:12,0.24885355,-4.1371903,8.300702,0.078151114,-0.12089001,-0.028085556,9.27792688508666,0.14666556775909448,fall
10/07/2020, 21:12:12,0.24885355,-4.1371903,8.300702,0.09646778,-0.26864445,-0.11234222,9.27792688508666,0.30675177104129164,fall
10/07/2020, 21:12:12,-0.34456646,-3.2446675,7.381858,0.09646778,-0.26864445,-0.11234222,8.0708375693961,0.30675177104129164,fall
10/07/2020, 21:12:12,-0.34456646,-3.2446675,7.381858,0.09646778,-0.4798967,-0.26620224,8.0708375693961,0.5571988000134346,fall
10/07/2020, 21:12:12,-0.57188463,-2.955136,7.3100734,0.09646778,-0.4798967,-0.26620224,7.90550782226712,0.5571988000134346,fall
10/07/2020, 21:12:12,-0.57188463,-2.955136,7.3100734,0.09524667,-0.59834445,-0.37610224,7.90550782226712,0.7131205353120528,fall
10/07/2020, 21:12:12,-0.25124636,-3.5533416,7.8317084,0.09524667,-0.59834445,-0.37610224,8.603779309462224,0.7131205353120528,fall
10/07/2020, 21:12:12,-0.25124636,-3.5533416,7.8317084,0.14775445,-0.59956557,-0.35168,8.603779309462224,0.7106258322618965,fall
10/07/2020, 21:12:13,3.4672,-0.64845496,10.839486,0.37610224,1.1686034,0.017095556,11.398966152922213,1.2277536829469702,fall
10/07/2020, 21:12:13,3.4672,-0.64845496,10.839486,0.23079,1.2797245,0.051286668,11.398966152922213,1.3013796869936096,fall
10/07/2020, 21:12:13,3.3164523,-0.82313097,11.033305,0.23079,1.2797245,0.051286668,11.550334330403352,1.3013796869936096,fall
10/07/2020, 21:12:13,3.3164523,-0.82313097,11.033305,0.109900005,1.3847401,0.089141116,11.550334330403352,1.3919516275802633,fall
10/07/2020, 21:12:13,3.2183464,-1.0959128,11.219945,0.109900005,1.3847401,0.089141116,11.723734172225024,1.3919516275802633,fall
10/07/2020, 21:12:13,3.2183464,-1.0959128,11.219945,0.059834447,1.51662,0.11600556,11.723734172225024,1.5222265918837639,fall
10/07/2020, 21:12:13,3.2015967,-1.430908,11.428121,0.059834447,1.51662,0.11600556,11.954064581419939,1.5222265918837639,fall
10/07/2020, 21:12:13,3.2015967,-1.430908,11.428121,0.091583334,1.6643745,0.12821667,11.954064581419939,1.6718161980324762,fall
10/07/2020, 21:12:13,3.1944182,-1.8089739,11.607583,0.091583334,1.6643745,0.12821667,12.17426294914851,1.6718161980324762,fall
10/07/2020, 21:12:13,3.1944182,-1.8089739,11.607583,0.20270446,1.7730534,0.16118668,12.17426294914851,1.7918673584259437,fall
10/07/2020, 21:12:13,3.0652058,-2.2037897,11.653047,0.20270446,1.7730534,0.16118668,12.249313083212261,1.7918673584259437,fall
10/07/2020, 21:12:13,3.0652058,-2.2037897,11.653047,0.35534334,1.8328879,0.2185789,12.249313083212261,1.8797669105623378,fall
10/07/2020, 21:12:13,2.792424,-2.5579274,11.619547,0.35534334,1.8328879,0.2185789,12.221067627571387,1.8797669105623378,fall
10/07/2020, 21:12:13,2.792424,-2.5579274,11.619547,0.5238567,1.8609734,0.26986557,12.221067627571387,1.9520438285375077,fall
10/07/2020, 21:12:13,2.4646072,-2.792424,11.638689,0.5238567,1.8609734,0.26986557,12.220106506486923,1.9520438285375077,fall
10/07/2020, 21:12:13,2.4646072,-2.792424,11.638689,0.6874856,1.8499835,0.26986557,12.220106506486923,1.9919594933403362,fall
10/07/2020, 21:12:13,2.1774685,-2.821138,11.705688,0.6874856,1.8499835,0.26986557,12.236148537234081,1.9919594933403362,fall
10/07/2020, 21:12:13,2.1774685,-2.821138,11.705688,0.82547116,1.7974756,0.1965989,12.236148537234081,1.987705264059083,fall
10/07/2020, 21:12:13,1.9549361,-2.605784,11.770294,0.82547116,1.7974756,0.1965989,12.212768342301604,1.987705264059083,fall
10/07/2020, 21:12:13,1.9549361,-2.605784,11.770294,0.89019006,1.7400835,0.08669889,12.212768342301604,1.956488048295263,fall
10/07/2020, 21:12:14,-5.690132,-1.7682959,9.152547,0.48111778,0.70946556,0.4481478,10.921244826296086,0.9672911466296261,fall
10/07/2020, 21:12:14,-5.7260246,-1.7084754,9.102298,0.48111778,0.70946556,0.4481478,10.888437490821392,0.9672911466296261,fall
10/07/2020, 21:12:14,-5.7260246,-1.7084754,9.102298,0.54095227,0.6984756,0.44204223,10.888437490821392,0.9878759287365563,fall
10/07/2020, 21:12:14,-5.723632,-1.6582261,8.968299,0.54095227,0.6984756,0.44204223,10.767546653595815,0.9878759287365563,fall
10/07/2020, 21:12:14,-5.723632,-1.6582261,8.968299,0.5788067,0.6899278,0.4566956,10.767546653595815,1.0097467229603998,fall
10/07/2020, 21:12:14,-5.723632,-1.5696917,8.7577305,0.5788067,0.6899278,0.4566956,10.579307008833744,1.0097467229603998,fall
10/07/2020, 21:12:14,-5.723632,-1.5696917,8.7577305,0.57514334,0.6984756,0.48478112,10.579307008833744,1.0264846573888429,fall
10/07/2020, 21:12:14,-5.74756,-1.3974084,8.566305,0.57514334,0.6984756,0.48478112,10.410032683791982,1.0264846573888429,fall
10/07/2020, 21:12:14,-5.74756,-1.3974084,8.566305,0.5372889,0.72411895,0.51164556,10.410032683791982,1.0367298548090964,fall
10/07/2020, 21:12:14,-5.7834525,-1.1533405,8.4012,0.5372889,0.72411895,0.51164556,10.264437809610035,1.0367298548090964,fall
10/07/2020, 21:12:14,-5.7834525,-1.1533405,8.4012,0.4908867,0.7680789,0.51775116,10.264437809610035,1.0483230579623752,fall
10/07/2020, 21:12:14,-5.8169518,-0.9068798,8.305488,0.4908867,0.7680789,0.51775116,10.180397017784989,1.0483230579623752,fall
10/07/2020, 21:12:14,-5.8169518,-0.9068798,8.305488,0.43471557,0.8071545,0.5104245,10.180397017784989,1.0492898264759807,fall
10/07/2020, 21:12:14,-5.8217373,-0.7393822,8.248059,0.43471557,0.8071545,0.5104245,10.122736432546198,1.0492898264759807,fall
10/07/2020, 21:12:14,-5.8217373,-0.7393822,8.248059,0.37488112,0.83890337,0.5092034,10.122736432546198,1.0505154875374625,fall
10/07/2020, 21:12:14,-5.8097734,-0.64606214,8.207381,0.37488112,0.83890337,0.5092034,10.07630739530687,1.0505154875374625,fall
10/07/2020, 21:12:14,-5.8097734,-0.64606214,8.207381,0.31871,0.8718734,0.5104245,10.07630739530687,1.0593735965568167,fall
10/07/2020, 21:12:14,-5.761917,-0.62931234,8.166703,0.31871,0.8718734,0.5104245,10.014527667356337,1.0593735965568167,fall
10/07/2020, 21:12:14,-5.761917,-0.62931234,8.166703,0.26498112,0.90240115,0.5262989,10.014527667356337,1.0777445617117976,fall
10/07/2020, 21:12:14,-5.73081,-0.6221339,8.068598,0.26498112,0.90240115,0.5262989,9.91622438780255,1.0777445617117976,fall
10/07/2020, 21:12:15,9.284152,-3.4839497,6.8243303,3.3666034,-6.031068,-2.2016635,12.037643815439132,7.249491003651515,fall
10/07/2020, 21:12:15,9.284152,-3.4839497,6.8243303,3.1895423,-5.921168,-1.6277412,12.037643815439132,6.919750734497625,fall
10/07/2020, 21:12:15,9.963714,-2.5627131,8.865408,3.1895423,-5.921168,-1.6277412,13.580815376722464,6.919750734497625,fall
10/07/2020, 21:12:15,9.963714,-2.5627131,8.865408,11.392967,-4.4424024,-0.39075556,13.580815376722464,12.234677389857655,fall
10/07/2020, 21:12:15,8.068598,-9.379865,29.673393,11.392967,-4.4424024,-0.39075556,32.14956296666958,12.234677389857655,fall
10/07/2020, 21:12:15,8.068598,-9.379865,29.673393,13.136714,-2.6766756,-1.8377723,32.14956296666958,13.532008465926413,fall
10/07/2020, 21:12:15,5.465207,-30.065817,54.080185,13.136714,-2.6766756,-1.8377723,62.11673072555797,13.532008465926413,fall
10/07/2020, 21:12:15,5.465207,-30.065817,54.080185,10.797065,-1.8902801,-0.21735778,62.11673072555797,10.963439754757411,fall
10/07/2020, 21:12:15,8.075776,-32.27439,66.28119,10.797065,-1.8902801,-0.21735778,74.16232531336927,10.963439754757411,fall
10/07/2020, 21:12:15,8.075776,-32.27439,66.28119,6.3351245,1.6655957,1.2772822,74.16232531336927,6.6737891129688505,fall
10/07/2020, 21:12:15,21.092731,-7.6570325,72.38288,6.3351245,1.6655957,1.2772822,75.78136283640225,6.6737891129688505,fall
10/07/2020, 21:12:15,21.092731,-7.6570325,72.38288,0.6288723,6.0005403,-0.65940005,75.78136283640225,6.069330451465191,fall
10/07/2020, 21:12:15,22.901705,29.783463,49.196434,0.6288723,6.0005403,-0.65940005,61.90179191696819,6.069330451465191,fall
10/07/2020, 21:12:15,22.901705,29.783463,49.196434,-7.1972294,7.460989,-0.19415668,61.90179191696819,10.368421503546337,fall
10/07/2020, 21:12:15,7.4177504,33.260235,21.107088,-7.1972294,7.460989,-0.19415668,40.08460314271771,10.368421503546337,fall
10/07/2020, 21:12:15,7.4177504,33.260235,21.107088,-11.664054,6.7844934,1.2577446,40.08460314271771,13.552174233512215,fall
10/07/2020, 21:12:15,-2.4502504,23.60041,-1.8233309,-11.664054,6.7844934,1.2577446,23.79721908969186,13.552174233512215,fall
10/07/2020, 21:12:15,-2.4502504,23.60041,-1.8233309,-11.171946,4.0369935,0.10135223,23.79721908969186,11.879392100769378,fall
10/07/2020, 21:12:15,-6.7334027,13.942978,-15.701702,-11.171946,4.0369935,0.10135223,22.05195670633793,11.879392100769378,fall
10/07/2020, 21:12:15,-6.7334027,13.942978,-15.701702,-6.7087846,0.45425335,-1.35177,22.05195670633793,6.858674718646987,fall
10/07/2020, 21:12:16,-0.95712906,-6.5946193,7.283752,0.0,0.034191113,0.03174889,9.872089043968904,0.04665859275325457,fall
10/07/2020, 21:12:16,-0.95712906,-6.5946193,7.283752,0.007326667,0.028085556,0.023201112,9.872089043968904,0.037158714801274154,fall
10/07/2020, 21:12:16,-0.93559366,-6.580262,7.152147,0.007326667,0.028085556,0.023201112,9.763625863306965,0.037158714801274154,fall
10/07/2020, 21:12:16,-0.93559366,-6.580262,7.152147,0.04029667,0.028085556,0.029306669,9.763625863306965,0.057197035777153404,fall
10/07/2020, 21:12:16,-0.9451649,-6.465407,7.001399,0.04029667,0.028085556,0.029306669,9.576764148613433,0.057197035777153404,fall
10/07/2020, 21:12:16,-0.9451649,-6.465407,7.001399,0.06227667,0.017095556,0.012211111,9.576764148613433,0.06572482616998945,fall
10/07/2020, 21:12:16,-1.0217353,-6.4534426,7.082755,0.06227667,0.017095556,0.012211111,9.636196539242906,0.06572482616998945,fall
10/07/2020, 21:12:16,-1.0217353,-6.4534426,7.082755,0.06349778,0.0036633336,-0.012211111,9.636196539242906,0.06476495612341122,fall
10/07/2020, 21:12:16,-1.0145568,-6.6017976,7.257431,0.06349778,0.0036633336,-0.012211111,9.863232831404675,0.06476495612341122,fall
10/07/2020, 21:12:16,-1.0145568,-6.6017976,7.257431,0.042738892,0.009768889,0.008547778,9.863232831404675,0.044666638690658254,fall
10/07/2020, 21:12:16,-0.8925229,-6.73101,7.4440713,0.042738892,0.009768889,0.008547778,10.075578870394889,0.044666638690658254,fall
10/07/2020, 21:12:16,-0.8925229,-6.73101,7.4440713,-0.008547778,0.048844445,0.042738892,10.075578870394889,0.06546340405094023,fall
10/07/2020, 21:12:16,-0.83030945,-6.73101,7.623533,-0.008547778,0.048844445,0.042738892,10.203634685468979,0.06546340405094023,fall
10/07/2020, 21:12:16,-0.83030945,-6.73101,7.623533,-0.059834447,0.07204556,0.068382226,10.203634685468979,0.11596056292751078,fall
10/07/2020, 21:12:16,-0.8446664,-6.721439,7.704889,-0.059834447,0.07204556,0.068382226,10.259459721800265,0.11596056292751078,fall
10/07/2020, 21:12:16,-0.8446664,-6.721439,7.704889,-0.09036223,0.08425667,0.07570889,10.259459721800265,0.14490118976306188,fall
10/07/2020, 21:12:16,-0.85184485,-6.759724,7.580462,-0.09036223,0.08425667,0.07570889,10.192296792607669,0.14490118976306188,fall
10/07/2020, 21:12:16,-0.85184485,-6.759724,7.580462,-0.064718895,0.09280445,0.09402556,10.192296792607669,0.14711222436043178,fall
10/07/2020, 21:12:16,-0.8781659,-6.735796,7.365108,-0.064718895,0.09280445,0.09402556,10.019328261304993,0.14711222436043178,fall
10/07/2020, 21:12:16,-0.8781659,-6.735796,7.365108,-0.024422223,0.09524667,0.09402556,10.019328261304993,0.13604844538770827,fall
10/07/2020, 21:12:17,5.986842,0.08853444,5.505885,0.31993112,0.26742333,0.9048434,8.134180250146084,0.9962995132501218,fall
10/07/2020, 21:12:17,5.986842,0.08853444,5.505885,0.18805112,0.43227336,1.0342811,8.134180250146084,1.1366445992721714,fall
10/07/2020, 21:12:17,6.2668023,0.8350951,5.855237,0.18805112,0.43227336,1.0342811,8.617075806380367,1.1366445992721714,fall
10/07/2020, 21:12:17,6.2668023,0.8350951,5.855237,0.117226675,0.60445005,1.1185378,8.617075806380367,1.2768041063909799,fall
10/07/2020, 21:12:17,6.465407,1.0671989,5.73081,0.117226675,0.60445005,1.1185378,8.705319345052446,1.2768041063909799,fall
10/07/2020, 21:12:17,6.465407,1.0671989,5.73081,0.15874445,0.61299783,1.2015734,8.705319345052446,1.3582137936663012,fall
10/07/2020, 21:12:17,6.4271216,0.8757731,5.1996036,0.15874445,0.61299783,1.2015734,8.313287448168204,1.3582137936663012,fall
10/07/2020, 21:12:17,6.4271216,0.8757731,5.1996036,0.34435335,0.49577114,1.2980411,8.313287448168204,1.4315302869238,fall
10/07/2020, 21:12:17,6.273981,0.64606214,4.694718,0.34435335,0.49577114,1.2980411,7.862608413657611,1.4315302869238,fall
10/07/2020, 21:12:17,6.273981,0.64606214,4.694718,0.5690378,0.40174556,1.3871822,7.862608413657611,1.5522493551312857,fall
10/07/2020, 21:12:17,6.1064835,0.53359944,4.4721856,0.5690378,0.40174556,1.3871822,7.587773899170533,1.5522493551312857,fall
10/07/2020, 21:12:17,6.1064835,0.53359944,4.4721856,0.60445005,0.28085557,1.4751023,7.587773899170533,1.6186928429666638,fall
10/07/2020, 21:12:17,5.7427745,0.6197411,4.1874394,0.60445005,0.28085557,1.4751023,7.134296523832998,1.6186928429666638,fall
10/07/2020, 21:12:17,5.7427745,0.6197411,4.1874394,0.5324045,0.20270446,1.5459267,7.134296523832998,1.647553629440588,fall
10/07/2020, 21:12:17,5.3910294,0.9954142,4.022335,0.5324045,0.20270446,1.5459267,6.799501910935514,1.647553629440588,fall
10/07/2020, 21:12:17,5.3910294,0.9954142,4.022335,0.42983112,0.19782001,1.4909767,6.799501910935514,1.5642567048932465,fall
10/07/2020, 21:12:17,5.1469617,1.5720844,4.1491547,0.42983112,0.19782001,1.4909767,6.7954505730990356,1.5642567048932465,fall
10/07/2020, 21:12:17,5.1469617,1.5720844,4.1491547,0.2869611,0.20148334,1.3578756,6.7954505730990356,1.4024151737388855,fall
10/07/2020, 21:12:17,4.9722853,2.0051854,4.5678983,0.2869611,0.20148334,1.3578756,7.043442610017254,1.4024151737388855,fall
10/07/2020, 21:12:17,4.9722853,2.0051854,4.5678983,0.07204556,0.22712667,1.2870512,7.043442610017254,1.3089224123266643,fall
10/07/2020, 21:12:18,-5.625526,-1.5529419,7.23111,-0.21369445,0.8779789,0.38709223,9.292315322442727,0.9830324010805374,fall
10/07/2020, 21:12:18,-5.625526,-1.5529419,7.23111,-0.32115224,0.8914111,0.37366003,9.292315322442727,1.0185157695108673,fall
10/07/2020, 21:12:18,-5.656633,-1.5194423,7.135397,-0.32115224,0.8914111,0.37366003,9.231472822421363,1.0185157695108673,fall
10/07/2020, 21:12:18,-5.656633,-1.5194423,7.135397,-0.41395667,0.90362227,0.36633334,9.231472822421363,1.0592891225847272,fall
10/07/2020, 21:12:18,-5.757131,-1.4907285,7.0540414,-0.41395667,0.90362227,0.36633334,9.22639311014275,1.0592891225847272,fall
10/07/2020, 21:12:18,-5.757131,-1.4907285,7.0540414,-0.48722336,0.90240115,0.36877558,9.22639311014275,1.089821021770614,fall
10/07/2020, 21:12:18,-5.936593,-1.5002998,6.9990063,-0.48722336,0.90240115,0.36877558,9.29946909343909,1.089821021770614,fall
10/07/2020, 21:12:18,-5.936593,-1.5002998,6.9990063,-0.54339445,0.88042116,0.37976557,9.29946909343909,1.1021074514378155,fall
10/07/2020, 21:12:18,-6.195018,-1.5720844,6.9535427,-0.54339445,0.88042116,0.37976557,9.444651998864817,1.1021074514378155,fall
10/07/2020, 21:12:18,-6.195018,-1.5720844,6.9535427,-0.57514334,0.8327978,0.38953447,9.444651998864817,1.0844718448396355,fall
10/07/2020, 21:12:18,-6.4821568,-1.6366907,6.9726853,-0.57514334,0.8327978,0.38953447,9.65999241986856,1.0844718448396355,fall
10/07/2020, 21:12:18,-6.4821568,-1.6366907,6.9726853,-0.5836911,0.78761667,0.38709223,9.65999241986856,1.053980900884118,fall
10/07/2020, 21:12:18,-6.7238317,-1.6845472,7.0061846,-0.5836911,0.78761667,0.38709223,9.855670127778872,1.053980900884118,fall
10/07/2020, 21:12:18,-6.7238317,-1.6845472,7.0061846,-0.56171113,0.7558678,0.3724389,9.855670127778872,1.0127024419993629,fall
10/07/2020, 21:12:18,-6.8506513,-1.7324036,7.0085773,-0.56171113,0.7558678,0.3724389,9.952527393964422,1.0127024419993629,fall
10/07/2020, 21:12:18,-6.8506513,-1.7324036,7.0085773,-0.51775116,0.73633003,0.35412225,9.952527393964422,0.9672904146394337,fall
10/07/2020, 21:12:18,-6.869794,-1.8065811,6.9894347,-0.51775116,0.73633003,0.35412225,9.96544034267778,0.9672904146394337,fall
10/07/2020, 21:12:18,-6.869794,-1.8065811,6.9894347,-0.46402225,0.7265611,0.3492378,9.96544034267778,0.9301477100768728,fall
10/07/2020, 21:12:18,-6.843473,-1.9334008,6.9726853,-0.46402225,0.7265611,0.3492378,9.959392621642072,0.9301477100768728,fall
10/07/2020, 21:12:18,-6.843473,-1.9334008,6.9726853,-0.42861003,0.7167922,0.35534334,9.959392621642072,0.9076158552532727,fall
10/07/2020, 21:12:19,-7.795816,3.481557,2.8666015,-0.051286668,0.3260367,0.6655056,9.006297164181643,0.7428512195024446,fall
10/07/2020, 21:12:19,-7.7120676,3.7256248,2.5603201,-0.051286668,0.3260367,0.6655056,8.939323581336357,0.7428512195024446,fall
10/07/2020, 21:12:19,-7.7120676,3.7256248,2.5603201,-0.04029667,0.31871,0.6117767,8.939323581336357,0.6909924946345983,fall
10/07/2020, 21:12:19,-7.661818,3.7974095,2.4095724,-0.04029667,0.31871,0.6117767,8.884245248240454,0.6909924946345983,fall
10/07/2020, 21:12:19,-7.661818,3.7974095,2.4095724,-0.07937223,0.33336335,0.5775856,8.884245248240454,0.6715922693493802,fall
10/07/2020, 21:12:19,-7.6594253,3.804588,2.3377876,-0.07937223,0.33336335,0.5775856,8.866055308951847,0.6715922693493802,fall
10/07/2020, 21:12:19,-7.6594253,3.804588,2.3377876,-0.12211112,0.33580557,0.5238567,8.866055308951847,0.6341154032231893,fall
10/07/2020, 21:12:19,-7.7072816,3.8739798,2.292324,-0.12211112,0.33580557,0.5238567,8.925506073525746,0.6341154032231893,fall
10/07/2020, 21:12:19,-7.7072816,3.8739798,2.292324,-0.14042778,0.29673,0.46280113,8.925506073525746,0.5674095053636804,fall
10/07/2020, 21:12:19,-7.7479596,4.017549,2.2229323,-0.14042778,0.29673,0.46280113,9.006275958007224,0.5674095053636804,fall
10/07/2020, 21:12:19,-7.7479596,4.017549,2.2229323,-0.1526389,0.24544334,0.38709223,9.006275958007224,0.4830957097302055,fall
10/07/2020, 21:12:19,-7.745567,4.2568316,2.1272194,-0.1526389,0.24544334,0.38709223,9.09062615837258,0.4830957097302055,fall
10/07/2020, 21:12:19,-7.745567,4.2568316,2.1272194,-0.1746189,0.19782001,0.31382558,9.09062615837258,0.4100134250889425,fall
10/07/2020, 21:12:19,-7.6737823,4.534399,2.0697916,-0.1746189,0.19782001,0.31382558,9.150505297730353,0.4100134250889425,fall
10/07/2020, 21:12:19,-7.6737823,4.534399,2.0697916,-0.27230778,0.16851334,0.24910668,9.150505297730353,0.40571222718099226,fall
10/07/2020, 21:12:19,-7.542177,4.766503,2.0315065,-0.27230778,0.16851334,0.24910668,9.150464754551411,0.40571222718099226,fall
10/07/2020, 21:12:19,-7.542177,4.766503,2.0315065,-0.4273889,0.17095557,0.17828223,9.150464754551411,0.49363107451158367,fall
10/07/2020, 21:12:19,-7.3579297,4.9722853,1.9166509,-0.4273889,0.17095557,0.17828223,9.084949147856742,0.49363107451158367,fall
10/07/2020, 21:12:19,-7.3579297,4.9722853,1.9166509,-0.6349778,0.20148334,0.098910004,9.084949147856742,0.6734801805227326,fall
10/07/2020, 21:12:19,-7.1784678,5.111069,1.7611175,-0.6349778,0.20148334,0.098910004,8.98637648553168,0.6734801805227326,fall
10/07/2020, 21:12:20,-1.605584,-7.0779696,-12.471392,0.9329289,-0.17095557,-0.3260367,14.429524018871122,1.0029367378433298,fall
10/07/2020, 21:12:20,-1.1006985,-6.587441,-11.155339,0.9329289,-0.17095557,-0.3260367,13.001827148817014,1.0029367378433298,fall
10/07/2020, 21:12:20,-1.1006985,-6.587441,-11.155339,0.7228978,-0.22346334,-0.11966889,13.001827148817014,0.7660533782295734,fall
10/07/2020, 21:12:20,-1.0241281,-5.8360944,-9.439685,0.7228978,-0.22346334,-0.11966889,11.145245010006988,0.7660533782295734,fall
10/07/2020, 21:12:20,-1.0241281,-5.8360944,-9.439685,0.4701278,-0.15019667,-0.02198,11.145245010006988,0.4940266193044246,fall
10/07/2020, 21:12:20,-1.1988041,-5.0823555,-8.252846,0.4701278,-0.15019667,-0.02198,9.766111405992193,0.4940266193044246,fall
10/07/2020, 21:12:20,-1.1988041,-5.0823555,-8.252846,0.23201112,-0.03297,-0.014653334,9.766111405992193,0.23479970826348182,fall
10/07/2020, 21:12:20,-1.3184453,-4.558327,-7.6402826,0.23201112,-0.03297,-0.014653334,8.993918145023104,0.23479970826348182,fall
10/07/2020, 21:12:20,-1.3184453,-4.558327,-7.6402826,0.039075557,0.068382226,-0.014653334,8.993918145023104,0.08011084944062041,fall
10/07/2020, 21:12:20,-1.3734802,-4.28076,-7.3052874,0.039075557,0.068382226,-0.014653334,8.57779551246791,0.08011084944062041,fall
10/07/2020, 21:12:20,-1.3734802,-4.28076,-7.3052874,-0.12943779,0.17950334,-0.026864445,8.57779551246791,0.22292888447405373,fall
10/07/2020, 21:12:20,-1.4141582,-4.065406,-7.176075,-0.12943779,0.17950334,-0.026864445,8.367999780002005,0.22292888447405373,fall
10/07/2020, 21:12:20,-1.4141582,-4.065406,-7.176075,-0.22590557,0.2820767,-0.054950003,8.367999780002005,0.3655408120912242,fall
10/07/2020, 21:12:20,-1.4787644,-3.9338005,-7.3100734,-0.22590557,0.2820767,-0.054950003,8.43200468471718,0.3655408120912242,fall
10/07/2020, 21:12:20,-1.4787644,-3.9338005,-7.3100734,-0.30649891,0.3809867,-0.09402556,8.43200468471718,0.4979289598983659,fall
10/07/2020, 21:12:20,-1.5074782,-3.7663028,-7.3363943,-0.30649891,0.3809867,-0.09402556,8.38332923542167,0.4979289598983659,fall
10/07/2020, 21:12:20,-1.5074782,-3.7663028,-7.3363943,-0.3602278,0.4689067,-0.13310112,8.38332923542167,0.6060969108634132,fall
10/07/2020, 21:12:20,-1.5481563,-3.6251264,-7.5062847,-0.3602278,0.4689067,-0.13310112,8.478362999601378,0.6060969108634132,fall
10/07/2020, 21:12:20,-1.5481563,-3.6251264,-7.5062847,-0.3394689,0.51164556,-0.18805112,8.478362999601378,0.642170950448383,fall
10/07/2020, 21:12:20,-1.4668003,-3.6466618,-7.8484583,-0.3394689,0.51164556,-0.18805112,8.777695752641662,0.642170950448383,fall
10/07/2020, 21:12:21,-1.6773686,-3.6634114,-8.898908,0.13554333,-0.17950334,0.06960334,9.768557009867818,0.2354528983144318,fall
10/07/2020, 21:12:21,-1.6773686,-3.6634114,-8.898908,0.1306589,0.026864445,-0.07570889,9.768557009867818,0.15337953244927216,fall
10/07/2020, 21:12:21,-1.1270195,-3.4504502,-8.635697,0.1306589,0.026864445,-0.07570889,9.367552959204636,0.15337953244927216,fall
10/07/2020, 21:12:21,-1.1270195,-3.4504502,-8.635697,0.11356334,0.037854444,-0.04029667,9.367552959204636,0.12630681670843827,fall
10/07/2020, 21:12:21,-1.5457634,-3.6394832,-8.683554,0.11356334,0.037854444,-0.04029667,9.541453099659554,0.12630681670843827,fall
10/07/2020, 21:12:21,-1.5457634,-3.6394832,-8.683554,0.109900005,-0.03174889,-0.0024422223,9.541453099659554,0.1144201365858632,fall
10/07/2020, 21:12:21,-1.8400806,-3.5964124,-8.748159,0.109900005,-0.03174889,-0.0024422223,9.635889788614797,0.1144201365858632,fall
10/07/2020, 21:12:21,-1.8400806,-3.5964124,-8.748159,0.11356334,-0.042738892,-0.02075889,9.635889788614797,0.12310229803223444,fall
10/07/2020, 21:12:21,-1.9166509,-3.591627,-8.784052,0.11356334,-0.042738892,-0.02075889,9.681575388290655,0.12310229803223444,fall
10/07/2020, 21:12:21,-1.9166509,-3.591627,-8.784052,0.12211112,-0.059834447,-0.025643334,9.681575388290655,0.13837943145876533,fall
10/07/2020, 21:12:21,-1.8831514,-3.5988052,-8.7984085,0.12211112,-0.059834447,-0.025643334,9.69069916511827,0.13837943145876533,fall
10/07/2020, 21:12:21,-1.8831514,-3.5988052,-8.7984085,0.14409111,-0.051286668,-0.024422223,9.69069916511827,0.15488388065109474,fall
10/07/2020, 21:12:21,-1.8281165,-3.6370904,-8.755338,0.14409111,-0.051286668,-0.024422223,9.655380649045592,0.15488388065109474,fall
10/07/2020, 21:12:21,-1.8281165,-3.6370904,-8.755338,0.1526389,-0.048844445,-0.009768889,9.655380649045592,0.16056102896610086,fall
10/07/2020, 21:12:21,-1.8329022,-3.6634114,-8.740981,0.1526389,-0.048844445,-0.009768889,9.653230754802513,0.16056102896610086,fall
10/07/2020, 21:12:21,-1.8329022,-3.6634114,-8.740981,0.16485001,-0.05006556,-0.0036633336,9.653230754802513,0.17232384174080287,fall
10/07/2020, 21:12:21,-1.8400806,-3.6801612,-8.73141,0.16485001,-0.05006556,-0.0036633336,9.652305655709075,0.17232384174080287,fall
10/07/2020, 21:12:21,-1.8400806,-3.6801612,-8.73141,0.17828223,-0.04396,-0.0024422223,9.652305655709075,0.18363823155648537,fall
10/07/2020, 21:12:21,-1.8424734,-3.6873398,-8.7266245,0.17828223,-0.04396,-0.0024422223,9.651173909255737,0.18363823155648537,fall
10/07/2020, 21:12:21,-1.8424734,-3.6873398,-8.7266245,0.19049335,-0.045181114,-0.0061055557,9.651173909255737,0.19587323829861325,fall
10/07/2020, 21:12:22,3.5030923,-7.4584284,-3.6729827,0.5971234,0.6752745,-1.7181034,9.021674533506014,1.9402142403039808,fall
10/07/2020, 21:12:22,3.5030923,-7.4584284,-3.6729827,0.33336335,0.5140878,-1.5178412,9.021674533506014,1.6368443288763206,fall
10/07/2020, 21:12:22,4.4745784,-7.190432,-3.6658044,0.33336335,0.5140878,-1.5178412,9.228341500993507,1.6368443288763206,fall
10/07/2020, 21:12:22,4.4745784,-7.190432,-3.6658044,0.26620224,0.47867557,-1.46167,9.228341500993507,1.5609206409742895,fall
10/07/2020, 21:12:22,5.6470613,-6.4773707,-3.6801612,0.26620224,0.47867557,-1.46167,9.348220167147725,1.5609206409742895,fall
10/07/2020, 21:12:22,5.6470613,-6.4773707,-3.6801612,0.21735778,0.6655056,-1.4970822,9.348220167147725,1.6526939546896002,fall
10/07/2020, 21:12:22,6.6448684,-5.8863435,-3.6586258,0.21735778,0.6655056,-1.4970822,9.601502919134068,1.6526939546896002,fall
10/07/2020, 21:12:22,6.6448684,-5.8863435,-3.6586258,0.16118668,1.0574822,-1.4897556,9.601502919134068,1.8340179055396963,fall
10/07/2020, 21:12:22,7.0636125,-5.477171,-3.2207394,0.16118668,1.0574822,-1.4897556,9.500904409973113,1.8340179055396963,fall
10/07/2020, 21:12:22,7.0636125,-5.477171,-3.2207394,0.09036223,1.4323634,-1.4689968,9.500904409973113,2.053723863221276,fall
10/07/2020, 21:12:22,6.7501526,-5.35753,-2.9599216,0.09036223,1.4323634,-1.4689968,9.112015407341087,2.053723863221276,fall
10/07/2020, 21:12:22,6.7501526,-5.35753,-2.9599216,-0.18072446,1.4677756,-1.5764545,9.112015407341087,2.1615354141209386,fall
10/07/2020, 21:12:22,5.948557,-5.7858453,-3.7208393,-0.18072446,1.4677756,-1.5764545,9.094282797839861,2.1615354141209386,fall
10/07/2020, 21:12:22,5.948557,-5.7858453,-3.7208393,-0.3724389,1.10999,-1.5837811,9.094282797839861,1.9695560889963948,fall
10/07/2020, 21:12:22,5.2402816,-6.391229,-4.45065,-0.3724389,1.10999,-1.5837811,9.387046845363109,1.9695560889963948,fall
10/07/2020, 21:12:22,5.2402816,-6.391229,-4.45065,-0.20026223,0.7265611,-1.4128256,9.387046845363109,1.6012720469956434,fall
10/07/2020, 21:12:22,5.197211,-6.6927247,-4.0366917,-0.20026223,0.7265611,-1.4128256,9.386077112375085,1.6012720469956434,fall
10/07/2020, 21:12:22,5.197211,-6.6927247,-4.0366917,0.12821667,0.5140878,-1.3358957,9.386077112375085,1.4371301208470824,fall
10/07/2020, 21:12:22,5.8887367,-6.3888364,-3.2542388,0.12821667,0.5140878,-1.3358957,9.278174443667199,1.4371301208470824,fall
10/07/2020, 21:12:22,5.8887367,-6.3888364,-3.2542388,0.32237336,0.4701278,-1.4042778,9.278174443667199,1.5155661870547337,fall
10/07/2020, 21:12:23,8.090134,-1.5409778,0.7106683,2.1601458,-0.39930335,0.123332225,8.266191681091257,2.2002008324551916,fall
10/07/2020, 21:12:23,7.8963146,-1.9573289,1.012164,2.1601458,-0.39930335,0.123332225,8.198011773192812,2.2002008324551916,fall
10/07/2020, 21:12:23,7.8963146,-1.9573289,1.012164,2.294468,-0.36511225,0.20148334,8.198011773192812,2.3320560780118496,fall
10/07/2020, 21:12:23,7.7886376,-2.5316064,1.3854443,2.294468,-0.36511225,0.20148334,8.306103976342195,2.3320560780118496,fall
10/07/2020, 21:12:23,7.7886376,-2.5316064,1.3854443,2.449549,-0.29917222,0.17339778,8.306103976342195,2.4738352642873505,fall
10/07/2020, 21:12:23,7.6737823,-2.926422,1.6510476,2.449549,-0.29917222,0.17339778,8.377161815879287,2.4738352642873505,fall
10/07/2020, 21:12:23,7.6737823,-2.926422,1.6510476,2.5179312,-0.20148334,0.0061055557,8.377161815879287,2.5259870263061637,fall
10/07/2020, 21:12:23,7.4584284,-3.141776,1.7395821,2.5179312,-0.20148334,0.0061055557,8.277986268394388,2.5259870263061637,fall
10/07/2020, 21:12:23,7.4584284,-3.141776,1.7395821,2.4483278,-0.11356334,-0.20392556,8.277986268394388,2.459429036298523,fall
10/07/2020, 21:12:23,7.1042905,-3.290131,1.6797615,2.4483278,-0.11356334,-0.20392556,8.007340675774312,2.459429036298523,fall
10/07/2020, 21:12:23,7.1042905,-3.290131,1.6797615,2.306679,-0.078151114,-0.36511225,8.007340675774312,2.3367033626784806,fall
10/07/2020, 21:12:23,6.695118,-3.546163,1.5625132,2.306679,-0.078151114,-0.36511225,7.73571745710795,2.3367033626784806,fall
10/07/2020, 21:12:23,6.695118,-3.546163,1.5625132,2.2114322,-0.089141116,-0.4383789,7.73571745710795,2.2562257546504734,fall
10/07/2020, 21:12:23,6.364908,-3.9744785,1.4931214,2.2114322,-0.089141116,-0.4383789,7.651009561746037,2.2562257546504734,fall
10/07/2020, 21:12:23,6.364908,-3.9744785,1.4931214,2.2382967,-0.14775445,-0.4566956,7.651009561746037,2.289186441391925,fall
10/07/2020, 21:12:23,6.283552,-4.5248275,1.550549,2.2382967,-0.14775445,-0.4566956,7.896916733295133,2.289186441391925,fall
10/07/2020, 21:12:23,6.283552,-4.5248275,1.550549,2.4190211,-0.2075889,-0.49455002,7.896916733295133,2.477768370346141,fall
10/07/2020, 21:12:23,6.463014,-5.1014977,1.727618,2.4190211,-0.2075889,-0.49455002,8.413114390437471,2.477768370346141,fall
10/07/2020, 21:12:23,6.463014,-5.1014977,1.727618,2.7523847,-0.20392556,-0.5788067,8.413114390437471,2.8199688227190185,fall
10/07/2020, 21:12:23,6.8099732,-5.5896335,2.0291135,2.7523847,-0.20392556,-0.5788067,9.040853915490542,2.8199688227190185,fall
10/07/2020, 21:12:24,8.786445,-3.0723844,4.314259,0.11844778,0.48356003,0.4151778,10.259336559623563,0.6482536343179743,fall
10/07/2020, 21:12:24,8.786445,-3.0723844,4.314259,0.16973445,0.48478112,0.4493689,10.259336559623563,0.6824623920470482,fall
10/07/2020, 21:12:24,8.568698,-2.9910283,4.4051867,0.16973445,0.48478112,0.4493689,10.088335045904817,0.6824623920470482,fall
10/07/2020, 21:12:24,8.568698,-2.9910283,4.4051867,0.18072446,0.4798967,0.51653004,10.088335045904817,0.7278498785382032,fall
10/07/2020, 21:12:24,8.370093,-2.9862428,4.4554358,0.18072446,0.4798967,0.51653004,9.941177810045447,0.7278498785382032,fall
10/07/2020, 21:12:24,8.370093,-2.9862428,4.4554358,0.19171445,0.4701278,0.5788067,9.941177810045447,0.7699297141060197,fall
10/07/2020, 21:12:24,8.243274,-3.0388846,4.4721856,0.19171445,0.4701278,0.5788067,9.858337885783387,0.7699297141060197,fall
10/07/2020, 21:12:24,8.243274,-3.0388846,4.4721856,0.24055889,0.45425335,0.6239878,9.858337885783387,0.8084401337294355,fall
10/07/2020, 21:12:24,8.1738825,-3.1345978,4.476971,0.24055889,0.45425335,0.6239878,9.832666412229186,0.8084401337294355,fall
10/07/2020, 21:12:24,8.1738825,-3.1345978,4.476971,0.32481557,0.4261678,0.6581789,9.832666412229186,0.8487188199179242,fall
10/07/2020, 21:12:24,8.152347,-3.2183464,4.496114,0.32481557,0.4261678,0.6581789,9.85056077790857,0.8487188199179242,fall
10/07/2020, 21:12:24,8.152347,-3.2183464,4.496114,0.42006224,0.3858711,0.6801589,9.85056077790857,0.8876738991566364,fall
10/07/2020, 21:12:24,8.176275,-3.249453,4.536792,0.42006224,0.3858711,0.6801589,9.89913643239089,0.8876738991566364,fall
10/07/2020, 21:12:24,8.176275,-3.249453,4.536792,0.5092034,0.35290113,0.70458114,9.89913643239089,0.9382227185506534,fall
10/07/2020, 21:12:24,8.255239,-3.2303107,4.5918264,0.5092034,0.35290113,0.70458114,9.983423278695026,0.9382227185506534,fall
10/07/2020, 21:12:24,8.255239,-3.2303107,4.5918264,0.58491224,0.33458444,0.72900337,9.983423278695026,0.9927310778658806,fall
10/07/2020, 21:12:24,8.384451,-3.1776686,4.7162533,0.58491224,0.33458444,0.72900337,10.13112232978059,0.9927310778658806,fall
10/07/2020, 21:12:24,8.384451,-3.1776686,4.7162533,0.64963114,0.33336335,0.7351089,10.13112232978059,1.036116238591608,fall
10/07/2020, 21:12:24,8.554341,-3.1058838,4.881358,0.64963114,0.33336335,0.7351089,10.32719357414398,1.036116238591608,fall
10/07/2020, 21:12:24,8.554341,-3.1058838,4.881358,0.6984756,0.3614489,0.73633003,10.32719357414398,1.0773557428430585,fall
10/07/2020, 21:12:25,-4.1874394,-4.072584,7.123433,0.23567446,0.4481478,0.7680789,9.21215990262084,0.9199587682195179,fall
10/07/2020, 21:12:25,-4.1874394,-4.072584,7.123433,0.23689556,0.44570556,0.7778478,9.21215990262084,0.9272649011062067,fall
10/07/2020, 21:12:25,-4.2520456,-3.9457645,7.111469,0.23689556,0.44570556,0.7778478,9.177251127030324,0.9272649011062067,fall
10/07/2020, 21:12:25,-4.2520456,-3.9457645,7.111469,0.19782001,0.4689067,0.79128003,9.177251127030324,0.9408136569730311,fall
10/07/2020, 21:12:25,-4.436293,-3.7710886,7.1473613,0.19782001,0.4689067,0.79128003,9.218816581774973,0.9408136569730311,fall
10/07/2020, 21:12:25,-4.436293,-3.7710886,7.1473613,0.13554333,0.4908867,0.78395337,9.218816581774973,0.9348393549900771,fall
10/07/2020, 21:12:25,-4.6396832,-3.6394832,7.23111,0.13554333,0.4908867,0.78395337,9.330672639732306,0.9348393549900771,fall
10/07/2020, 21:12:25,-4.6396832,-3.6394832,7.23111,0.085477784,0.4908867,0.76075226,9.330672639732306,0.9094065066986374,fall
10/07/2020, 21:12:25,-4.776074,-3.6131623,7.331609,0.085477784,0.4908867,0.76075226,9.466694832684691,0.9094065066986374,fall
10/07/2020, 21:12:25,-4.776074,-3.6131623,7.331609,0.068382226,0.47623336,0.71801335,9.466694832684691,0.8643017472597927,fall
10/07/2020, 21:12:25,-4.816752,-3.7016966,7.3698936,0.068382226,0.47623336,0.71801335,9.550863224767284,0.8643017472597927,fall
10/07/2020, 21:12:25,-4.816752,-3.7016966,7.3698936,0.08425667,0.46402225,0.69481224,9.550863224767284,0.839749891692209,fall
10/07/2020, 21:12:25,-4.8047876,-3.8691943,7.367501,0.08425667,0.46402225,0.69481224,9.609199565561456,0.839749891692209,fall
10/07/2020, 21:12:25,-4.8047876,-3.8691943,7.367501,0.13554333,0.45425335,0.7082445,9.609199565561456,0.852249008332979,fall
10/07/2020, 21:12:25,-4.790431,-4.0103707,7.3340015,0.13554333,0.45425335,0.7082445,9.634255622050903,0.852249008332979,fall
10/07/2020, 21:12:25,-4.790431,-4.0103707,7.3340015,0.20514667,0.45059,0.72900337,9.634255622050903,0.8812277972652135,fall
10/07/2020, 21:12:25,-4.84068,-4.074977,7.314859,0.20514667,0.45059,0.72900337,9.671855141479956,0.8812277972652135,fall
10/07/2020, 21:12:25,-4.84068,-4.074977,7.314859,0.26986557,0.43960002,0.7522045,9.671855141479956,0.9120784953888925,fall
10/07/2020, 21:12:25,-4.9172506,-4.0534415,7.331609,0.26986557,0.43960002,0.7522045,9.714022296269674,0.9120784953888925,fall
10/07/2020, 21:12:25,-4.9172506,-4.0534415,7.331609,0.30772,0.4383789,0.7546467,9.714022296269674,0.9253968509549935,fall
10/07/2020, 21:12:26,-6.7238317,1.2155539,1.2107682,-1.18692,-0.58979666,-2.1577034,6.93926819122846,2.532256555190186,fall
10/07/2020, 21:12:26,-6.7238317,1.2155539,1.2107682,-1.23088,-0.65451556,-2.3543024,6.93926819122846,2.7360913861085794,fall
10/07/2020, 21:12:26,-6.664011,0.87338024,1.5409778,-1.23088,-0.65451556,-2.3543024,6.8953932715599455,2.7360913861085794,fall
10/07/2020, 21:12:26,-6.664011,0.87338024,1.5409778,-1.24187,-0.7021389,-2.514268,6.8953932715599455,2.8908101679442013,fall
10/07/2020, 21:12:26,-6.580262,0.526421,1.8448663,-1.24187,-0.7021389,-2.514268,6.854232347089683,2.8908101679442013,fall
10/07/2020, 21:12:26,-6.580262,0.526421,1.8448663,-1.1905833,-0.7485411,-2.6229467,6.854232347089683,2.976180792435675,fall
10/07/2020, 21:12:26,-6.489335,0.18185452,2.0865414,-1.1905833,-0.7485411,-2.6229467,6.818958546655827,2.976180792435675,fall
10/07/2020, 21:12:26,-6.489335,0.18185452,2.0865414,-1.0696933,-0.8071545,-2.701098,6.818958546655827,3.015240020414954,fall
10/07/2020, 21:12:26,-6.431907,-0.18664017,2.0434706,-1.0696933,-0.8071545,-2.701098,6.751298887381837,3.015240020414954,fall
10/07/2020, 21:12:26,-6.431907,-0.18664017,2.0434706,-0.9268234,-0.8914111,-2.746279,6.751298887381837,3.0324352789240105,fall
10/07/2020, 21:12:26,-6.422336,-0.6029913,1.8951155,-0.9268234,-0.8914111,-2.746279,6.723203271261477,3.0324352789240105,fall
10/07/2020, 21:12:26,-6.422336,-0.6029913,1.8951155,-0.78273225,-0.9964267,-2.7829123,6.723203271261477,3.057799300054111,fall
10/07/2020, 21:12:26,-6.410372,-0.997807,1.8376877,-0.78273225,-0.9964267,-2.7829123,6.74281702404406,3.057799300054111,fall
10/07/2020, 21:12:26,-6.410372,-0.997807,1.8376877,-0.6935911,-1.1160955,-2.8268723,6.74281702404406,3.1173618936528196,fall
10/07/2020, 21:12:26,-6.262017,-1.3591232,1.8831514,-0.6935911,-1.1160955,-2.8268723,6.678796992195952,3.1173618936528196,fall
10/07/2020, 21:12:26,-6.262017,-1.3591232,1.8831514,-0.68138003,-1.2027946,-2.8854856,6.678796992195952,3.1995344841421582,fall
10/07/2020, 21:12:26,-5.895915,-1.7060826,2.062613,-0.68138003,-1.2027946,-2.8854856,6.475098784327332,3.1995344841421582,fall
10/07/2020, 21:12:26,-5.895915,-1.7060826,2.062613,-0.7216767,-1.2382067,-2.977069,6.475098784327332,3.3040751282092535,fall
10/07/2020, 21:12:26,-5.4341,-2.024328,2.2779672,-0.7216767,-1.2382067,-2.977069,6.230287546119174,3.3040751282092535,fall
10/07/2020, 21:12:26,-5.4341,-2.024328,2.2779672,-0.7448778,-1.2369856,-3.0356824,6.230287546119174,3.36159844733118,fall
10/07/2020, 21:12:27,8.673982,-2.9359934,4.5822554,-0.070824444,-0.14042778,-0.11844778,10.239876933172283,0.19689068265419468,fall
10/07/2020, 21:12:27,8.673982,-2.9359934,4.5822554,-0.059834447,-0.13188,-0.09280445,10.239876933172283,0.17200337447089106,fall
10/07/2020, 21:12:27,9.066405,-2.7469604,4.610969,-0.059834447,-0.13188,-0.09280445,10.53596375174902,0.17200337447089106,fall
10/07/2020, 21:12:27,9.066405,-2.7469604,4.610969,-0.091583334,-0.102573335,-0.05617111,10.53596375174902,0.14853952314003563,fall
10/07/2020, 21:12:27,9.116654,-2.5435705,4.5152564,-0.091583334,-0.102573335,-0.05617111,10.486690553338455,0.14853952314003563,fall
10/07/2020, 21:12:27,9.116654,-2.5435705,4.5152564,-0.09768889,-0.089141116,-0.035412222,10.486690553338455,0.13690611155741672,fall
10/07/2020, 21:12:27,8.762517,-2.37368,4.3357944,-0.09768889,-0.089141116,-0.035412222,10.06057525860546,0.13690611155741672,fall
10/07/2020, 21:12:27,8.762517,-2.37368,4.3357944,-0.091583334,-0.07570889,-0.025643334,10.06057525860546,0.12156036941173594,fall
10/07/2020, 21:12:27,8.389236,-2.3306093,4.3334017,-0.091583334,-0.07570889,-0.025643334,9.725708105189614,0.12156036941173594,fall
10/07/2020, 21:12:27,8.389236,-2.3306093,4.3334017,-0.10135223,-0.06105556,-0.042738892,9.725708105189614,0.12580408870646947,fall
10/07/2020, 21:12:27,8.30788,-2.3641088,4.3357944,-0.10135223,-0.06105556,-0.042738892,9.664833195281462,0.12580408870646947,fall
10/07/2020, 21:12:27,8.30788,-2.3641088,4.3357944,-0.091583334,-0.05250778,-0.054950003,9.664833195281462,0.1190129272215758,fall
10/07/2020, 21:12:27,8.5112705,-2.6129622,4.321438,-0.091583334,-0.05250778,-0.054950003,9.896672298473776,0.1190129272215758,fall
10/07/2020, 21:12:27,8.5112705,-2.6129622,4.321438,-0.09036223,-0.048844445,-0.054950003,9.896672298473776,0.11649298249486716,fall
10/07/2020, 21:12:27,8.666803,-2.6129622,4.302295,-0.09036223,-0.048844445,-0.054950003,10.022514466736961,0.11649298249486716,fall
10/07/2020, 21:12:27,8.666803,-2.6129622,4.302295,-0.09402556,-0.035412222,-0.039075557,10.022514466736961,0.10780413036928817,fall
10/07/2020, 21:12:27,8.693125,-2.5507488,4.3525443,-0.09402556,-0.035412222,-0.039075557,10.05093924991135,0.10780413036928817,fall
10/07/2020, 21:12:27,8.693125,-2.5507488,4.3525443,-0.10135223,-0.015874445,-0.028085556,10.05093924991135,0.10636292086631956,fall
10/07/2020, 21:12:27,8.645268,-2.4885356,4.2352962,-0.10135223,-0.015874445,-0.028085556,9.943400342369161,0.10636292086631956,fall
10/07/2020, 21:12:27,8.645268,-2.4885356,4.2352962,-0.085477784,-0.01099,-0.019537779,9.943400342369161,0.08836830033154673,fall
10/07/2020, 21:12:28,8.319844,-2.845066,4.8861437,0.09402556,0.15508112,0.089141116,10.0592549091134,0.2020819118780937,fall
10/07/2020, 21:12:28,8.209774,-2.6871397,4.8047876,0.09402556,0.15508112,0.089141116,9.884689862324848,0.2020819118780937,fall
10/07/2020, 21:12:28,8.209774,-2.6871397,4.8047876,0.098910004,0.16729222,0.089141116,9.884689862324848,0.21381303753859596,fall
10/07/2020, 21:12:28,8.056634,-2.7206392,4.8502517,0.098910004,0.16729222,0.089141116,9.789594971884778,0.21381303753859596,fall
10/07/2020, 21:12:28,8.056634,-2.7206392,4.8502517,0.12455334,0.15508112,0.07693,9.789594971884778,0.21326489113010064,fall
10/07/2020, 21:12:28,8.039884,-2.9455647,4.9196434,0.12455334,0.15508112,0.07693,9.875169436610324,0.21326489113010064,fall
10/07/2020, 21:12:28,8.039884,-2.9455647,4.9196434,0.14775445,0.1526389,0.057392225,9.875169436610324,0.22005425839380716,fall
10/07/2020, 21:12:28,8.047063,-2.9096723,4.883751,0.14775445,0.1526389,0.057392225,9.852534524817575,0.22005425839380716,fall
10/07/2020, 21:12:28,8.047063,-2.9096723,4.883751,0.15386,0.17217667,0.081814446,9.852534524817575,0.24497206171766533,fall
10/07/2020, 21:12:28,8.126026,-2.7900312,4.989035,0.15386,0.17217667,0.081814446,9.935142003997461,0.24497206171766533,fall
10/07/2020, 21:12:28,8.126026,-2.7900312,4.989035,0.13432223,0.17950334,0.085477784,9.935142003997461,0.23993824173576303,fall
10/07/2020, 21:12:28,8.219346,-2.8259234,4.9842496,0.13432223,0.17950334,0.085477784,10.019293225057533,0.23993824173576303,fall
10/07/2020, 21:12:28,8.219346,-2.8259234,4.9842496,0.14897557,0.18683001,0.09524667,10.019293225057533,0.25723744293672285,fall
10/07/2020, 21:12:28,8.176275,-2.7589245,4.9196434,0.14897557,0.18683001,0.09524667,9.933077696831502,0.25723744293672285,fall
10/07/2020, 21:12:28,8.176275,-2.7589245,4.9196434,0.15141778,0.18927222,0.11478445,9.933077696831502,0.2681917002890723,fall
10/07/2020, 21:12:28,8.075776,-2.7756743,5.0679984,0.15141778,0.18927222,0.11478445,9.930112565085274,0.2681917002890723,fall
10/07/2020, 21:12:28,8.075776,-2.7756743,5.0679984,0.14531223,0.20026223,0.10135223,9.930112565085274,0.26738152937566106,fall
10/07/2020, 21:12:28,8.185846,-2.8761728,5.06082,0.14531223,0.20026223,0.10135223,10.044518410336513,0.26738152937566106,fall
10/07/2020, 21:12:28,8.185846,-2.8761728,5.06082,0.13920668,0.22102112,0.11356334,10.044518410336513,0.2848253221037851,fall
10/07/2020, 21:12:28,8.2145605,-2.8259234,4.9603214,0.13920668,0.22102112,0.11356334,10.00348120953249,0.2848253221037851,fall
10/07/2020, 21:12:29,2.0195422,-6.472585,8.997013,-0.03052778,0.8218078,0.28818223,11.265840161001998,0.8714063376595961,fall
10/07/2020, 21:12:29,2.0195422,-6.472585,8.997013,-0.117226675,0.94880337,0.31993112,11.265840161001998,1.0081298728736137,fall
10/07/2020, 21:12:29,2.184647,-6.4127645,8.841479,-0.117226675,0.94880337,0.31993112,11.138581071244957,1.0081298728736137,fall
10/07/2020, 21:12:29,2.184647,-6.4127645,8.841479,-0.1306589,1.07702,0.35656446,11.138581071244957,1.142007945957717,fall
10/07/2020, 21:12:29,2.0937197,-6.32423,8.659625,-0.1306589,1.07702,0.35656446,10.925596362801956,1.142007945957717,fall
10/07/2020, 21:12:29,2.0937197,-6.32423,8.659625,-0.09036223,1.1612767,0.40174556,10.925596362801956,1.2321235307833671,fall
10/07/2020, 21:12:29,1.6797615,-6.283552,8.539984,-0.09036223,1.1612767,0.40174556,10.73480084140543,1.2321235307833671,fall
10/07/2020, 21:12:29,1.6797615,-6.283552,8.539984,-0.042738892,1.1808145,0.44448447,10.73480084140543,1.2624246327300535,fall
10/07/2020, 21:12:29,1.18684,-6.3696938,8.477771,-0.042738892,1.1808145,0.44448447,10.670247686746771,1.2624246327300535,fall
10/07/2020, 21:12:29,1.18684,-6.3696938,8.477771,0.012211111,1.16494,0.48600224,10.670247686746771,1.2623123574805477,fall
10/07/2020, 21:12:29,0.8781659,-6.5922265,8.499306,0.012211111,1.16494,0.48600224,10.791979589248344,1.2623123574805477,fall
10/07/2020, 21:12:29,0.8781659,-6.5922265,8.499306,0.085477784,1.1160955,0.5128667,10.791979589248344,1.2312627419460302,fall
10/07/2020, 21:12:29,0.85902333,-6.8075805,8.480164,0.085477784,1.1160955,0.5128667,10.908448432344523,1.2312627419460302,fall
10/07/2020, 21:12:29,0.85902333,-6.8075805,8.480164,0.14531223,1.0599245,0.5287411,10.908448432344523,1.1933661337633084,fall
10/07/2020, 21:12:29,1.038485,-6.8315086,8.362915,0.14531223,1.0599245,0.5287411,10.84833210223105,1.1933661337633084,fall
10/07/2020, 21:12:29,1.038485,-6.8315086,8.362915,0.16485001,1.0452712,0.51653004,10.84833210223105,1.1775273243246769,fall
10/07/2020, 21:12:29,1.2801601,-6.5850477,8.183454,0.16485001,1.0452712,0.51653004,10.581614974535004,1.1775273243246769,fall
10/07/2020, 21:12:29,1.2801601,-6.5850477,8.183454,0.091583334,1.0721356,0.48478112,10.581614974535004,1.1802012172389955,fall
10/07/2020, 21:12:29,1.4524434,-6.166304,7.9704924,0.091583334,1.0721356,0.48478112,10.181436373187088,1.1802012172389955,fall
10/07/2020, 21:12:29,1.4524434,-6.166304,7.9704924,-0.05250778,1.1441811,0.45181113,10.181436373187088,1.2312760990551688,fall
10/07/2020, 21:12:30,-5.613562,-2.6129622,3.330809,-0.4383789,-0.18805112,0.13432223,7.030927435159469,0.4955620487432426,fall
10/07/2020, 21:12:30,-5.4412785,-2.5866413,3.1680973,-0.4383789,-0.18805112,0.13432223,6.80698646703576,0.4955620487432426,fall
10/07/2020, 21:12:30,-5.4412785,-2.5866413,3.1680973,-0.45547447,-0.26498112,0.06594,6.80698646703576,0.531055615980843,fall
10/07/2020, 21:12:30,-5.261817,-2.536392,2.9575288,-0.45547447,-0.26498112,0.06594,6.547287906891686,0.531055615980843,fall
10/07/2020, 21:12:30,-5.261817,-2.536392,2.9575288,-0.47257003,-0.35412225,-0.01099,6.547287906891686,0.5906316821722886,fall
10/07/2020, 21:12:30,-5.1086764,-2.4335005,2.7613173,-0.47257003,-0.35412225,-0.01099,6.296457154352138,0.5906316821722886,fall
10/07/2020, 21:12:30,-5.1086764,-2.4335005,2.7613173,-0.5043189,-0.45791668,-0.08303556,6.296457154352138,0.6862362077552313,fall
10/07/2020, 21:12:30,-4.979464,-2.3282163,2.6105695,-0.5043189,-0.45791668,-0.08303556,6.085287706186546,0.6862362077552313,fall
10/07/2020, 21:12:30,-4.979464,-2.3282163,2.6105695,-0.56049,-0.54339445,-0.1526389,6.085287706186546,0.7954402624075352,fall
10/07/2020, 21:12:30,-4.855037,-2.3114667,2.5052853,-0.56049,-0.54339445,-0.1526389,5.932176570175279,0.7954402624075352,fall
10/07/2020, 21:12:30,-4.855037,-2.3114667,2.5052853,-0.62765115,-0.62643003,-0.20881,5.932176570175279,0.9110225998489134,fall
10/07/2020, 21:12:30,-4.6707897,-2.376073,2.376073,-0.62765115,-0.62643003,-0.20881,5.753930942586592,0.9110225998489134,fall
10/07/2020, 21:12:30,-4.6707897,-2.376073,2.376073,-0.70336,-0.7387723,-0.2942878,5.753930942586592,1.061652061855851,fall
10/07/2020, 21:12:30,-4.465007,-2.440679,2.1367905,-0.70336,-0.7387723,-0.2942878,5.5189740003495915,1.061652061855851,fall
10/07/2020, 21:12:30,-4.465007,-2.440679,2.1367905,-0.73755115,-0.8767578,-0.40296668,5.5189740003495915,1.214523810975995,fall
10/07/2020, 21:12:30,-4.287938,-2.3282163,1.8376877,-0.73755115,-0.8767578,-0.40296668,5.213837426097347,1.214523810975995,fall
10/07/2020, 21:12:30,-4.287938,-2.3282163,1.8376877,-0.71923447,-1.0477134,-0.53484666,5.213837426097347,1.3787902442403541,fall
10/07/2020, 21:12:30,-4.1754756,-2.0075781,1.524228,-0.71923447,-1.0477134,-0.53484666,4.877318664579545,1.3787902442403541,fall
10/07/2020, 21:12:30,-4.1754756,-2.0075781,1.524228,-0.7009178,-1.229659,-0.68260115,4.877318664579545,1.5713978589821804,fall
10/07/2020, 21:12:30,-4.091727,-1.6031911,1.1844472,-0.7009178,-1.229659,-0.68260115,4.551413512447903,1.5713978589821804,fall
10/07/2020, 21:12:31,9.68136,-1.8185452,3.225525,-0.09524667,-0.15508112,0.0048844446,10.365319763990426,0.18206026802353031,fall
10/07/2020, 21:12:31,9.578469,-1.7180467,2.9790642,-0.09524667,-0.15508112,0.0048844446,10.177110674783158,0.18206026802353031,fall
10/07/2020, 21:12:31,9.578469,-1.7180467,2.9790642,-0.078151114,-0.15752333,0.02075889,10.177110674783158,0.1770653238915761,fall
10/07/2020, 21:12:31,9.269794,-1.6582261,3.0317063,-0.078151114,-0.15752333,0.02075889,9.892929121526372,0.1770653238915761,fall
10/07/2020, 21:12:31,9.269794,-1.6582261,3.0317063,-0.07326667,-0.16362889,0.023201112,9.892929121526372,0.1807780698509188,fall
10/07/2020, 21:12:31,9.078369,-1.7252251,3.1202407,-0.07326667,-0.16362889,0.023201112,9.753414264813811,0.1807780698509188,fall
10/07/2020, 21:12:31,9.078369,-1.7252251,3.1202407,-0.06716111,-0.15019667,0.023201112,9.753414264813811,0.16615639263158147,fall
10/07/2020, 21:12:31,9.071191,-1.6701902,2.9790642,-0.06716111,-0.15019667,0.023201112,9.692825293269811,0.16615639263158147,fall
10/07/2020, 21:12:31,9.071191,-1.6701902,2.9790642,-0.098910004,-0.14042778,0.037854444,9.692825293269811,0.17588663989979839,fall
10/07/2020, 21:12:31,9.035298,-1.564906,2.9336007,-0.098910004,-0.14042778,0.037854444,9.62764560402683,0.17588663989979839,fall
10/07/2020, 21:12:31,9.035298,-1.564906,2.9336007,-0.10501556,-0.14897557,0.023201112,9.62764560402683,0.18373970422051872,fall
10/07/2020, 21:12:31,9.02812,-1.6606189,2.9671001,-0.10501556,-0.14897557,0.023201112,9.647190776031103,0.18373970422051872,fall
10/07/2020, 21:12:31,9.02812,-1.6606189,2.9671001,-0.08669889,-0.16729222,0.007326667,9.647190776031103,0.18856581132881234,fall
10/07/2020, 21:12:31,9.047262,-1.8400806,3.022135,-0.08669889,-0.16729222,0.007326667,9.714532923690529,0.18856581132881234,fall
10/07/2020, 21:12:31,9.047262,-1.8400806,3.022135,-0.05617111,-0.17950334,0.0,9.714532923690529,0.18808679280797885,fall
10/07/2020, 21:12:31,9.116654,-1.969293,3.101098,-0.05617111,-0.17950334,0.0,9.828952714906206,0.18808679280797885,fall
10/07/2020, 21:12:31,9.116654,-1.969293,3.101098,-0.05006556,-0.17584,0.012211111,9.828952714906206,0.18323585575875717,fall
10/07/2020, 21:12:31,9.3200445,-1.9334008,3.0652058,-0.05006556,-0.17584,0.012211111,9.999837745779859,0.18323585575875717,fall
10/07/2020, 21:12:31,9.3200445,-1.9334008,3.0652058,-0.048844445,-0.16240779,0.019537779,9.999837745779859,0.17071553382292556,fall
10/07/2020, 21:12:31,9.537791,-1.8305093,2.9982069,-0.048844445,-0.16240779,0.019537779,10.164126653263999,0.17071553382292556,fall
10/07/2020, 21:12:32,9.786645,-2.6679974,9.779466,0.8816423,1.284609,0.4823389,14.090229874110594,1.6310009544839252,fall
10/07/2020, 21:12:32,10.217353,-2.2899313,10.047462,0.8816423,1.284609,0.4823389,14.51170516895757,1.6310009544839252,fall
10/07/2020, 21:12:32,10.217353,-2.2899313,10.047462,0.8413456,1.3542123,0.45303226,14.51170516895757,1.657405070312449,fall
10/07/2020, 21:12:32,10.593026,-2.07697,10.351351,0.8413456,1.3542123,0.45303226,14.955817299946172,1.657405070312449,fall
10/07/2020, 21:12:32,10.593026,-2.07697,10.351351,0.7338878,1.4860923,0.48111778,14.955817299946172,1.725843568843287,fall
10/07/2020, 21:12:32,10.894522,-2.009971,10.5690975,0.7338878,1.4860923,0.48111778,15.311316362664105,1.725843568843287,fall
10/07/2020, 21:12:32,10.894522,-2.009971,10.5690975,0.5189722,1.6411734,0.51775116,15.311316362664105,1.797456099743029,fall
10/07/2020, 21:12:32,11.097912,-2.0458634,10.703095,0.5189722,1.6411734,0.51775116,15.553310130507434,1.797456099743029,fall
10/07/2020, 21:12:32,11.097912,-2.0458634,10.703095,0.20881,1.7571789,0.53973114,15.553310130507434,1.8500240596780593,fall
10/07/2020, 21:12:32,11.229517,-2.1559331,10.535598,0.20881,1.7571789,0.53973114,15.548277088235695,1.8500240596780593,fall
10/07/2020, 21:12:32,11.229517,-2.1559331,10.535598,-0.06716111,1.8231189,0.53851,15.548277088235695,1.902174092105906,fall
10/07/2020, 21:12:32,11.349157,-2.1272194,9.949356,-0.06716111,1.8231189,0.53851,15.241985471262913,1.902174092105906,fall
10/07/2020, 21:12:32,11.349157,-2.1272194,9.949356,-0.2735289,1.8060234,0.49577114,15.241985471262913,1.892703742962061,fall
10/07/2020, 21:12:32,11.4018,-1.8017955,8.958728,-0.2735289,1.8060234,0.49577114,14.611855398984105,1.892703742962061,fall
10/07/2020, 21:12:32,11.4018,-1.8017955,8.958728,-0.34435335,1.7559578,0.5006556,14.611855398984105,1.8581235674772272,fall
10/07/2020, 21:12:32,11.523834,-1.4955142,7.982456,-0.34435335,1.7559578,0.5006556,14.098046851017724,1.8581235674772272,fall
10/07/2020, 21:12:32,11.523834,-1.4955142,7.982456,-0.29062447,1.7864857,0.6142189,14.098046851017724,1.9113499114986718,fall
10/07/2020, 21:12:32,11.803794,-1.4883357,7.216753,-0.29062447,1.7864857,0.6142189,13.914963808553095,1.9113499114986718,fall
10/07/2020, 21:12:32,11.803794,-1.4883357,7.216753,-0.089141116,1.6997868,0.7265611,13.914963808553095,1.8507058972056534,fall
10/07/2020, 21:12:32,12.167503,-1.8711873,6.3338017,-0.089141116,1.6997868,0.7265611,13.844367971294096,1.8507058972056534,fall
10/07/2020, 21:12:33,4.9316072,-3.0723844,-0.65084773,-3.8489423,5.316718,-3.8306258,5.84669979084191,7.5997066951919185,fall
10/07/2020, 21:12:33,4.9316072,-3.0723844,-0.65084773,-3.438649,5.7099156,-3.7659068,5.84669979084191,7.6556839816351285,fall
10/07/2020, 21:12:33,5.3910294,-3.6083765,-1.1988041,-3.438649,5.7099156,-3.7659068,6.5970228051359605,7.6556839816351285,fall
10/07/2020, 21:12:33,5.3910294,-3.6083765,-1.1988041,-3.0124812,6.06648,-3.69264,6.5970228051359605,7.714454954384859,fall
10/07/2020, 21:12:33,5.907879,-3.8117664,-1.753939,-3.0124812,6.06648,-3.69264,7.246302362027705,7.714454954384859,fall
10/07/2020, 21:12:33,5.907879,-3.8117664,-1.753939,-2.688887,6.394959,-3.6279213,7.246302362027705,7.828628627896067,fall
10/07/2020, 21:12:33,6.474978,-3.8141594,-2.4502504,-2.688887,6.394959,-3.6279213,7.904231686324386,7.828628627896067,fall
10/07/2020, 21:12:33,6.474978,-3.8141594,-2.4502504,-2.4483278,6.6599402,-3.614489,7.904231686324386,7.963268440356488,fall
10/07/2020, 21:12:33,7.223932,-3.9984066,-3.07717,-2.4483278,6.6599402,-3.614489,8.811436931028155,7.963268440356488,fall
10/07/2020, 21:12:33,7.223932,-3.9984066,-3.07717,-2.2163167,6.999409,-3.71462,8.811436931028155,8.228134140434964,fall
10/07/2020, 21:12:33,8.374879,-4.7138605,-3.6490545,-2.2163167,6.999409,-3.71462,10.279818878685505,8.228134140434964,fall
10/07/2020, 21:12:33,8.374879,-4.7138605,-3.6490545,-1.84632,7.4597683,-3.900229,10.279818878685505,8.61793633989776,fall
10/07/2020, 21:12:33,9.662218,-6.06102,-4.2161536,-1.84632,7.4597683,-3.900229,12.160196217681584,8.61793633989776,fall
10/07/2020, 21:12:33,9.662218,-6.06102,-4.2161536,-1.1991311,7.8957047,-4.0174556,12.160196217681584,8.939799675028745,fall
10/07/2020, 21:12:33,10.911271,-8.047063,-4.8909297,-1.1991311,7.8957047,-4.0174556,14.412919590775342,8.939799675028745,fall
10/07/2020, 21:12:33,10.911271,-8.047063,-4.8909297,-0.2295689,8.23151,-4.0711846,14.412919590775342,9.186131164192648,fall
10/07/2020, 21:12:33,12.217752,-10.18146,-5.407779,-0.2295689,8.23151,-4.0711846,16.798204863330774,9.186131164192648,fall
10/07/2020, 21:12:33,12.217752,-10.18146,-5.407779,1.0452712,8.487944,-4.2226024,16.798204863330774,9.537722471373396,fall
10/07/2020, 21:12:33,13.761123,-11.997613,-5.680561,1.0452712,8.487944,-4.2226024,19.120146146343334,9.537722471373396,fall
10/07/2020, 21:12:33,13.761123,-11.997613,-5.680561,2.4886246,8.697975,-4.5205536,19.120146146343334,10.113527024492859,fall
10/07/2020, 21:12:34,6.1878395,-7.183254,-1.4691931,1.0379444,-0.35412225,0.24788557,9.594113862113437,1.124356917086909,fall
10/07/2020, 21:12:34,6.020342,-7.1545396,-1.5122639,1.0379444,-0.35412225,0.24788557,9.47200586096362,1.124356917086909,fall
10/07/2020, 21:12:34,6.020342,-7.1545396,-1.5122639,1.10999,-0.35290113,0.23689556,9.47200586096362,1.1885859316157186,fall
10/07/2020, 21:12:34,5.948557,-7.0779696,-1.5529419,1.10999,-0.35290113,0.23689556,9.375212571498045,1.1885859316157186,fall
10/07/2020, 21:12:34,5.948557,-7.0779696,-1.5529419,1.1466234,-0.3382478,0.20148334,9.375212571498045,1.212333400371821,fall
10/07/2020, 21:12:34,5.9581285,-6.8506513,-1.5960127,1.1466234,-0.3382478,0.20148334,9.21834985086949,1.212333400371821,fall
10/07/2020, 21:12:34,5.9581285,-6.8506513,-1.5960127,1.0916734,-0.30039334,0.1746189,9.21834985086949,1.1456346173897551,fall
10/07/2020, 21:12:34,5.994021,-6.6089764,-1.5768701,1.0916734,-0.30039334,0.1746189,9.060539435296766,1.1456346173897551,fall
10/07/2020, 21:12:34,5.994021,-6.6089764,-1.5768701,0.9329289,-0.23811668,0.15141778,9.060539435296766,0.9746708503917556,fall
10/07/2020, 21:12:34,6.0083776,-6.4175506,-1.5314065,0.9329289,-0.23811668,0.15141778,8.923607005121731,0.9746708503917556,fall
10/07/2020, 21:12:34,6.0083776,-6.4175506,-1.5314065,0.7167922,-0.1746189,0.12211112,8.923607005121731,0.747792739106573,fall
10/07/2020, 21:12:34,5.9748783,-6.250053,-1.4883357,0.7167922,-0.1746189,0.12211112,8.773680851766704,0.747792739106573,fall
10/07/2020, 21:12:34,5.9748783,-6.250053,-1.4883357,0.49699223,-0.123332225,0.09646778,8.773680851766704,0.5210740321421996,fall
10/07/2020, 21:12:34,5.936593,-6.1878395,-1.4380864,0.49699223,-0.123332225,0.09646778,8.694859823670415,0.5210740321421996,fall
10/07/2020, 21:12:34,5.936593,-6.1878395,-1.4380864,0.30039334,-0.08303556,0.064718895,8.694859823670415,0.3183073982755787,fall
10/07/2020, 21:12:34,5.852844,-6.2285175,-1.3734802,0.30039334,-0.08303556,0.064718895,8.65659657083872,0.3183073982755787,fall
10/07/2020, 21:12:34,5.852844,-6.2285175,-1.3734802,0.13920668,-0.05006556,0.037854444,8.65659657083872,0.15270238438230385,fall
10/07/2020, 21:12:34,5.7930236,-6.364908,-1.3375878,0.13920668,-0.05006556,0.037854444,8.709783011742536,0.15270238438230385,fall
10/07/2020, 21:12:34,5.7930236,-6.364908,-1.3375878,0.024422223,-0.017095556,0.01099,8.709783011742536,0.03177236413419874,fall
10/07/2020, 21:12:34,5.7355957,-6.4869423,-1.3208381,0.024422223,-0.017095556,0.01099,8.759114774322903,0.03177236413419874,fall
10/07/2020, 21:12:35,-1.5768701,-7.1282187,3.993621,0.41762,0.5592689,1.1673822,8.321480034983818,1.3601358224079603,fall
10/07/2020, 21:12:35,-1.5768701,-7.1282187,3.993621,0.43471557,0.51653004,1.1368545,8.321480034983818,1.322202377084718,fall
10/07/2020, 21:12:35,-1.8664017,-7.04447,4.0845485,0.43471557,0.51653004,1.1368545,8.35413350785882,1.322202377084718,fall
10/07/2020, 21:12:35,-1.8664017,-7.04447,4.0845485,0.43105224,0.4798967,1.10999,8.35413350785882,1.2838164474310458,fall
10/07/2020, 21:12:35,-2.1248264,-6.9990063,4.1635113,0.43105224,0.4798967,1.10999,8.416400792323966,1.2838164474310458,fall
10/07/2020, 21:12:35,-2.1248264,-6.9990063,4.1635113,0.39564002,0.4566956,1.0941156,8.416400792323966,1.2498763376312603,fall
10/07/2020, 21:12:35,-2.3234308,-7.003792,4.261617,0.39564002,0.4566956,1.0941156,8.521315115572257,1.2498763376312603,fall
10/07/2020, 21:12:35,-2.3234308,-7.003792,4.261617,0.34801668,0.44082114,1.0855678,8.521315115572257,1.2222505493051294,fall
10/07/2020, 21:12:35,-2.4909284,-6.9583282,4.371687,0.34801668,0.44082114,1.0855678,8.586891347075353,1.2222505493051294,fall
10/07/2020, 21:12:35,-2.4909284,-6.9583282,4.371687,0.31016225,0.43227336,1.0562612,8.586891347075353,1.182687008196713,fall
10/07/2020, 21:12:35,-2.6703901,-6.8817577,4.486542,0.31016225,0.43227336,1.0562612,8.638207807007024,1.182687008196713,fall
10/07/2020, 21:12:35,-2.6703901,-6.8817577,4.486542,0.2515489,0.42250445,1.0135223,8.638207807007024,1.1265053230964726,fall
10/07/2020, 21:12:35,-2.8905299,-6.876972,4.5966125,0.2515489,0.42250445,1.0135223,8.762234623720799,1.1265053230964726,fall
10/07/2020, 21:12:35,-2.8905299,-6.876972,4.5966125,0.15874445,0.41273558,0.97811,8.762234623720799,1.073428928322836,fall
10/07/2020, 21:12:35,-3.1130621,-6.9990063,4.733003,0.15874445,0.41273558,0.97811,9.004363576247613,1.073428928322836,fall
10/07/2020, 21:12:35,-3.1130621,-6.9990063,4.733003,0.06716111,0.41029334,0.9597934,9.004363576247613,1.0459706447980042,fall
10/07/2020, 21:12:35,-3.2542388,-7.2287173,4.816752,0.06716111,0.41029334,0.9597934,9.27607266375814,1.0459706447980042,fall
10/07/2020, 21:12:35,-3.2542388,-7.2287173,4.816752,0.028085556,0.40296668,0.95857227,9.27607266375814,1.0402075447009789,fall
10/07/2020, 21:12:35,-3.3810585,-7.446464,4.8287163,0.028085556,0.40296668,0.95857227,9.497256666518862,1.0402075447009789,fall
10/07/2020, 21:12:35,-3.3810585,-7.446464,4.8287163,0.054950003,0.36633334,0.95735115,9.497256666518862,1.0265187949600882,fall
10/07/2020, 21:12:36,10.913664,-6.2213387,-5.977271,-4.273889,8.160686,-4.08828,13.911897222604555,10.07853914067515,fall
10/07/2020, 21:12:36,12.296716,-8.944371,-6.5754766,-4.273889,8.160686,-4.08828,16.56646877316028,10.07853914067515,fall
10/07/2020, 21:12:36,12.296716,-8.944371,-6.5754766,-2.789018,8.514808,-4.039436,16.56646877316028,9.828408478305326,fall
10/07/2020, 21:12:36,13.921442,-12.289537,-7.109076,-2.789018,8.514808,-4.039436,19.884120307103846,9.828408478305326,fall
10/07/2020, 21:12:36,13.921442,-12.289537,-7.109076,-0.7778478,8.848171,-4.0369935,19.884120307103846,9.756664285376058,fall
10/07/2020, 21:12:36,15.931413,-15.723238,-7.3627152,-0.7778478,8.848171,-4.0369935,23.563524762174872,9.756664285376058,fall
10/07/2020, 21:12:36,15.931413,-15.723238,-7.3627152,1.5947711,9.083846,-4.074848,23.563524762174872,10.082853886053194,fall
10/07/2020, 21:12:36,18.25006,-18.515661,-7.692925,1.5947711,9.083846,-4.074848,27.11227515353003,10.082853886053194,fall
10/07/2020, 21:12:36,18.25006,-18.515661,-7.692925,3.9161036,9.219389,-4.239698,27.11227515353003,10.876949885464276,fall
10/07/2020, 21:12:36,20.970697,-20.078175,-7.798209,3.9161036,9.219389,-4.239698,30.061858077176172,10.876949885464276,fall
10/07/2020, 21:12:36,20.970697,-20.078175,-7.798209,5.830806,9.426978,-4.558408,30.061858077176172,11.98521146487148,fall
10/07/2020, 21:12:36,25.25385,-21.310478,-4.546363,5.830806,9.426978,-4.558408,33.355102819644486,11.98521146487148,fall
10/07/2020, 21:12:36,25.25385,-21.310478,-4.546363,6.304597,10.473471,-4.7525644,33.355102819644486,13.115959705507121,fall
10/07/2020, 21:12:36,24.162724,-17.611176,4.3405805,6.304597,10.473471,-4.7525644,30.21309900506004,13.115959705507121,fall
10/07/2020, 21:12:36,24.162724,-17.611176,4.3405805,2.3555233,5.109129,-1.3590968,30.21309900506004,5.7878176291901475,fall
10/07/2020, 21:12:36,21.518654,-47.928238,-36.947575,2.3555233,5.109129,-1.3590968,64.2284339211835,5.7878176291901475,fall
10/07/2020, 21:12:36,21.518654,-47.928238,-36.947575,-8.677216,0.35900667,4.1334615,64.2284339211835,9.618131820425186,fall
10/07/2020, 21:12:36,31.240692,-19.015762,-43.159344,-8.677216,0.35900667,4.1334615,56.57127373991662,9.618131820425186,fall
10/07/2020, 21:12:36,31.240692,-19.015762,-43.159344,-9.6260195,3.2359445,-1.6191934,56.57127373991662,10.283646008856255,fall
10/07/2020, 21:12:36,27.816563,-15.64906,-50.16074,-9.6260195,3.2359445,-1.6191934,59.453797790180374,10.283646008856255,fall
10/07/2020, 21:12:37,6.35773,-7.6833534,-1.3806586,0.11966889,0.0061055557,-0.06105556,10.067813452470077,0.13448309652744217,fall
10/07/2020, 21:12:37,6.35773,-7.6833534,-1.3806586,0.10867889,0.01099,-0.054950003,10.067813452470077,0.12227585416846255,fall
10/07/2020, 21:12:37,6.317052,-7.649854,-1.3543376,0.10867889,0.01099,-0.054950003,10.012973775830904,0.12227585416846255,fall
10/07/2020, 21:12:37,6.317052,-7.649854,-1.3543376,0.089141116,0.0061055557,-0.05006556,10.012973775830904,0.10242058596469422,fall
10/07/2020, 21:12:37,6.2811594,-7.5828547,-1.3519448,0.089141116,0.0061055557,-0.05006556,9.93883314576759,0.10242058596469422,fall
10/07/2020, 21:12:37,6.2811594,-7.5828547,-1.3519448,0.06594,0.0012211112,-0.04396,9.93883314576759,0.07925942495310599,fall
10/07/2020, 21:12:37,6.2644095,-7.520642,-1.3519448,0.06594,0.0012211112,-0.04396,9.88082156527047,0.07925942495310599,fall
10/07/2020, 21:12:37,6.2644095,-7.520642,-1.3519448,0.04396,-0.0061055557,-0.042738892,9.88082156527047,0.06161470950556849,fall
10/07/2020, 21:12:37,6.273981,-7.5086775,-1.3184453,0.04396,-0.0061055557,-0.042738892,9.873265639337117,0.06161470950556849,fall
10/07/2020, 21:12:37,6.273981,-7.5086775,-1.3184453,0.035412222,-0.008547778,-0.039075557,9.873265639337117,0.053422740066821385,fall
10/07/2020, 21:12:37,6.314659,-7.4512496,-1.3112668,0.035412222,-0.008547778,-0.039075557,9.85471769997763,0.053422740066821385,fall
10/07/2020, 21:12:37,6.314659,-7.4512496,-1.3112668,0.04396,-0.0024422223,-0.036633335,9.85471769997763,0.05727519011808991,fall
10/07/2020, 21:12:37,6.355337,-7.4679995,-1.3184453,0.04396,-0.0024422223,-0.036633335,9.894423893516779,0.05727519011808991,fall
10/07/2020, 21:12:37,6.355337,-7.4679995,-1.3184453,0.05372889,0.0036633336,-0.039075557,9.894423893516779,0.06653655209466344,fall
10/07/2020, 21:12:37,6.3864436,-7.470392,-1.3375878,0.05372889,0.0036633336,-0.039075557,9.918798480004327,0.06653655209466344,fall
10/07/2020, 21:12:37,6.3864436,-7.470392,-1.3375878,0.06594,0.008547778,-0.04151778,9.918798480004327,0.07838924748044178,fall
10/07/2020, 21:12:37,6.393622,-7.4512496,-1.3232309,0.06594,0.008547778,-0.04151778,9.90709148967427,0.07838924748044178,fall
10/07/2020, 21:12:37,6.393622,-7.4512496,-1.3232309,0.07326667,0.015874445,-0.039075557,9.90709148967427,0.08453935256828038,fall
10/07/2020, 21:12:37,6.3601227,-7.4249287,-1.375873,0.07326667,0.015874445,-0.039075557,9.872879652076195,0.08453935256828038,fall
10/07/2020, 21:12:37,6.3601227,-7.4249287,-1.375873,0.06716111,0.023201112,-0.034191113,9.872879652076195,0.0788539085442544,fall
10/07/2020, 21:12:38,2.6919255,-9.68136,3.3906298,2.2041056,0.6996967,1.9037123,10.605261404158812,2.9952925535394463,fall
10/07/2020, 21:12:38,2.6225336,-9.757931,3.5796626,2.2041056,0.6996967,1.9037123,10.719555912315704,2.9952925535394463,fall
10/07/2020, 21:12:38,2.6225336,-9.757931,3.5796626,2.2444024,0.79250115,1.9317979,10.719555912315704,3.065492330244479,fall
10/07/2020, 21:12:38,2.5004997,-9.769895,3.682554,2.2444024,0.79250115,1.9317979,10.7361326082173,3.065492330244479,fall
10/07/2020, 21:12:38,2.5004997,-9.769895,3.682554,2.2908046,0.82913446,1.9317979,10.7361326082173,3.1091948744902496,fall
10/07/2020, 21:12:38,2.254039,-9.712467,3.6993039,2.2908046,0.82913446,1.9317979,10.634733664305688,3.1091948744902496,fall
10/07/2020, 21:12:38,2.254039,-9.712467,3.6993039,2.2761512,0.8169234,1.9195868,10.634733664305688,3.0875623720222243,fall
10/07/2020, 21:12:38,1.9142581,-9.504292,3.7998023,2.2761512,0.8169234,1.9195868,10.41318583695383,3.0875623720222243,fall
10/07/2020, 21:12:38,1.9142581,-9.504292,3.7998023,2.1699145,0.8034911,1.9256923,10.41318583695383,3.010384983948675,fall
10/07/2020, 21:12:38,1.6127625,-9.171689,3.790231,2.1699145,0.8034911,1.9256923,10.054189843280277,3.010384983948675,fall
10/07/2020, 21:12:38,1.6127625,-9.171689,3.790231,1.96721,0.79250115,1.9256923,10.054189843280277,2.8646578127510978,fall
10/07/2020, 21:12:38,1.402194,-8.750552,3.792624,1.96721,0.79250115,1.9256923,9.639621790766803,2.8646578127510978,fall
10/07/2020, 21:12:38,1.402194,-8.750552,3.792624,1.6936811,0.7973856,1.9061545,9.639621790766803,2.6716669928426744,fall
10/07/2020, 21:12:38,1.2418749,-8.441878,3.818945,1.6936811,0.7973856,1.9061545,9.348363668859822,2.6716669928426744,fall
10/07/2020, 21:12:38,1.2418749,-8.441878,3.818945,1.3786345,0.8071545,1.8817323,9.348363668859822,2.468409998457079,fall
10/07/2020, 21:12:38,1.1006985,-8.252846,3.9768713,1.3786345,0.8071545,1.8817323,9.226944526043894,2.468409998457079,fall
10/07/2020, 21:12:38,1.1006985,-8.252846,3.9768713,1.0990001,0.84623003,1.8780689,9.226944526043894,2.334748243086667,fall
10/07/2020, 21:12:38,1.0217353,-8.2049885,4.0965123,1.0990001,0.84623003,1.8780689,9.227523620352104,2.334748243086667,fall
10/07/2020, 21:12:38,1.0217353,-8.2049885,4.0965123,0.9329289,0.9085067,1.8841745,9.227523620352104,2.29038298034033,fall
10/07/2020, 21:12:38,0.91166544,-8.322237,4.2185464,0.9329289,0.9085067,1.8841745,9.374801142044058,2.29038298034033,fall
10/07/2020, 21:12:39,0.9236295,-0.6364908,-1.8400806,-0.52752,-2.141829,-5.1909437,2.155019430234984,5.640177794967,fall
10/07/2020, 21:12:39,2.3569303,-1.0193424,-1.18684,-0.52752,-2.141829,-5.1909437,2.8289164934993676,5.640177794967,fall
10/07/2020, 21:12:39,2.3569303,-1.0193424,-1.18684,-0.16851334,-2.4361167,-5.5975738,2.8289164934993676,6.1070363735025905,fall
10/07/2020, 21:12:39,3.7567315,-1.375873,-0.3924229,-0.16851334,-2.4361167,-5.5975738,4.019956941538875,6.1070363735025905,fall
10/07/2020, 21:12:39,3.7567315,-1.375873,-0.3924229,0.22102112,-2.7670379,-5.979781,4.019956941538875,6.59265739372288,fall
10/07/2020, 21:12:39,4.962714,-1.6558332,0.18903299,0.22102112,-2.7670379,-5.979781,5.235078737406106,6.59265739372288,fall
10/07/2020, 21:12:39,4.962714,-1.6558332,0.18903299,0.7570889,-3.2237334,-6.3412304,5.235078737406106,7.153799248545632,fall
10/07/2020, 21:12:39,5.979664,-1.8640088,0.79441714,0.7570889,-3.2237334,-6.3412304,6.31363659790253,7.153799248545632,fall
10/07/2020, 21:12:39,5.979664,-1.8640088,0.79441714,1.471439,-3.8074245,-6.6526136,6.31363659790253,7.80505494223223,fall
10/07/2020, 21:12:39,6.73101,-1.9716859,1.2035898,1.471439,-3.8074245,-6.6526136,7.116366258001468,7.80505494223223,fall
10/07/2020, 21:12:39,6.73101,-1.9716859,1.2035898,2.2138746,-4.502237,-6.8162427,7.116366258001468,8.463600989876111,fall
10/07/2020, 21:12:39,7.3435726,-1.9645073,1.4691931,2.2138746,-4.502237,-6.8162427,7.74247223030958,8.463600989876111,fall
10/07/2020, 21:12:39,7.3435726,-1.9645073,1.4691931,2.8744957,-5.2226925,-6.8589816,7.74247223030958,9.08762187510183,fall
10/07/2020, 21:12:39,8.049456,-1.5768701,1.6199409,2.8744957,-5.2226925,-6.8589816,8.360888938974005,9.08762187510183,fall
10/07/2020, 21:12:39,8.049456,-1.5768701,1.6199409,3.39591,-5.9138412,-6.799147,8.360888938974005,9.629855911662691,fall
10/07/2020, 21:12:39,8.743374,-0.94755775,1.9932213,3.39591,-5.9138412,-6.799147,9.017615173253178,9.629855911662691,fall
10/07/2020, 21:12:39,8.743374,-0.94755775,1.9932213,3.5644236,-6.5329447,-6.653835,9.017615173253178,9.982885320100175,fall
10/07/2020, 21:12:39,9.786645,-0.25603202,2.376073,3.5644236,-6.5329447,-6.653835,10.074209340640971,9.982885320100175,fall
10/07/2020, 21:12:39,9.786645,-0.25603202,2.376073,3.5607603,-7.0568013,-6.6404023,10.074209340640971,10.323390984379085,fall
10/07/2020, 21:12:39,11.274981,0.57427746,2.5268207,3.5607603,-7.0568013,-6.6404023,11.56891540027909,10.323390984379085,fall
10/07/2020, 21:12:40,7.645068,-1.0313065,6.1447687,-0.23567446,0.039075557,0.0036633336,9.862496791913385,0.23892000392960566,fall
10/07/2020, 21:12:40,7.645068,-1.0313065,6.1447687,-0.2613178,0.039075557,0.0012211112,9.862496791913385,0.26422599685905884,fall
10/07/2020, 21:12:40,7.645068,-1.052842,6.1710896,-0.2613178,0.039075557,0.0012211112,9.881188748464556,0.26422599685905884,fall
10/07/2020, 21:12:40,7.645068,-1.052842,6.1710896,-0.25765446,0.045181114,-0.0024422223,9.881188748464556,0.2615972427347787,fall
10/07/2020, 21:12:40,7.676175,-1.1270195,6.1830535,-0.25765446,0.045181114,-0.0024422223,9.92088644964072,0.2615972427347787,fall
10/07/2020, 21:12:40,7.676175,-1.1270195,6.1830535,-0.2185789,0.042738892,-0.0024422223,9.92088644964072,0.22273148633272188,fall
10/07/2020, 21:12:40,7.628319,-1.1629118,6.125626,-0.2185789,0.042738892,-0.0024422223,9.85225386708608,0.22273148633272188,fall
