DATE,TIME,ax,ay,az,gx,gy,gz,ma,mg,label
10/07/2020, 21:11:36,-5.1349974,3.2877383,7.867601,-0.12089001,-0.11234222,0.09646778,9.953721186162193,0.1911575294056746,fall
10/07/2020, 21:11:36,-5.6350975,3.2638102,7.5182486,-0.12089001,-0.11234222,0.09646778,9.946398443774367,0.1911575294056746,fall
10/07/2020, 21:11:36,-5.6350975,3.2638102,7.5182486,-0.07326667,-0.20148334,-0.013432222,9.946398443774367,0.2148114649433332,fall
10/07/2020, 21:11:36,-5.5513487,3.3044882,7.618747,-0.07326667,-0.20148334,-0.013432222,9.989115266240306,0.2148114649433332,fall
10/07/2020, 21:11:36,-5.5513487,3.3044882,7.618747,-0.03052778,-0.13798556,-0.06716111,9.989115266240306,0.1564690847176403,fall
10/07/2020, 21:11:36,-5.1732826,3.3930225,7.793423,-0.03052778,-0.13798556,-0.06716111,9.950522591094664,0.1564690847176403,fall
10/07/2020, 21:11:36,-5.1732826,3.3930225,7.793423,-0.026864445,-0.08303556,-0.039075557,9.950522591094664,0.09562165827633018,fall
10/07/2020, 21:11:36,-4.8646083,3.4576287,7.8436728,-0.026864445,-0.08303556,-0.039075557,9.856105339015516,0.09562165827633018,fall
10/07/2020, 21:11:36,-4.8646083,3.4576287,7.8436728,-0.047623336,-0.09036223,0.04029667,9.856105339015516,0.10980499127944897,fall
10/07/2020, 21:11:36,-4.792824,3.4672,7.9800634,-0.047623336,-0.09036223,0.04029667,9.933481187407834,0.10980499127944897,fall
10/07/2020, 21:11:36,-4.792824,3.4672,7.9800634,-0.08059334,-0.08059334,0.10745778,9.933481187407834,0.15664529127605967,fall
10/07/2020, 21:11:36,-4.895715,3.5102708,8.092526,-0.08059334,-0.08059334,0.10745778,10.088558525442611,0.15664529127605967,fall
10/07/2020, 21:11:36,-4.895715,3.5102708,8.092526,-0.08669889,-0.081814446,0.11478445,10.088558525442611,0.16548646709736714,fall
10/07/2020, 21:11:36,-5.1086764,3.574877,8.176275,-0.08669889,-0.081814446,0.11478445,10.282499582059765,0.16548646709736714,fall
10/07/2020, 21:11:36,-5.1086764,3.574877,8.176275,-0.08059334,-0.11966889,0.08059334,10.282499582059765,0.16526105715485223,fall
10/07/2020, 21:11:36,-5.271388,3.6323047,8.226524,-0.08059334,-0.11966889,0.08059334,10.42386071232544,0.16526105715485223,fall
10/07/2020, 21:11:36,-5.271388,3.6323047,8.226524,-0.09402556,-0.15752333,0.058613338,10.42386071232544,0.19258746061442056,fall
10/07/2020, 21:11:36,-5.2953167,3.696911,8.3174515,-0.09402556,-0.15752333,0.058613338,10.53031479309915,0.19258746061442056,fall
10/07/2020, 21:11:36,-5.2953167,3.696911,8.3174515,-0.12455334,-0.19171445,0.07326667,10.53031479309915,0.24007492474834102,fall
10/07/2020, 21:11:36,-5.2019963,3.737589,8.379665,-0.12455334,-0.19171445,0.07326667,10.547470228800439,0.24007492474834102,fall
10/07/2020, 21:11:37,-0.51206404,-0.6987042,9.6071825,0.026864445,0.17095557,0.03297,9.646157408902525,0.17616618778640245,fall
10/07/2020, 21:11:37,-0.51206404,-0.6987042,9.6071825,-0.015874445,0.11234222,0.025643334,9.646157408902525,0.116320048884666,fall
10/07/2020, 21:11:37,-0.50009996,-0.6963114,9.894321,-0.015874445,0.11234222,0.025643334,9.931391964034384,0.116320048884666,fall
10/07/2020, 21:11:37,-0.50009996,-0.6963114,9.894321,-0.08792,0.042738892,-0.0036633336,9.931391964034384,0.09782617123414086,fall
10/07/2020, 21:11:37,-0.526421,-0.8781659,10.269995,-0.08792,0.042738892,-0.0036633336,10.320905304338641,0.09782617123414086,fall
10/07/2020, 21:11:37,-0.526421,-0.8781659,10.269995,-0.123332225,0.0,-0.019537779,10.320905304338641,0.12487018243853498,fall
10/07/2020, 21:11:37,-0.55034924,-1.0671989,10.576276,-0.123332225,0.0,-0.019537779,10.64421946653329,0.12487018243853498,fall
10/07/2020, 21:11:37,-0.55034924,-1.0671989,10.576276,-0.10135223,-0.015874445,-0.013432222,10.64421946653329,0.10346350605481713,fall
10/07/2020, 21:11:37,-0.5599205,-1.2586247,10.636097,-0.10135223,-0.015874445,-0.013432222,10.724933820044447,0.10346350605481713,fall
10/07/2020, 21:11:37,-0.5599205,-1.2586247,10.636097,-0.07326667,-0.03297,-0.007326667,10.724933820044447,0.08067655114566627,fall
10/07/2020, 21:11:37,-0.5288138,-1.4117653,10.523634,-0.07326667,-0.03297,-0.007326667,10.631067539949797,0.08067655114566627,fall
10/07/2020, 21:11:37,-0.5288138,-1.4117653,10.523634,-0.019537779,-0.070824444,-0.0048844446,10.631067539949797,0.07363208879638211,fall
10/07/2020, 21:11:37,-0.43070808,-1.4787644,10.284351,-0.019537779,-0.070824444,-0.0048844446,10.399044971160688,0.07363208879638211,fall
10/07/2020, 21:11:37,-0.43070808,-1.4787644,10.284351,0.026864445,-0.06227667,-0.0048844446,10.399044971160688,0.06799955645809388,fall
10/07/2020, 21:11:37,-0.30388847,-1.3998013,10.207782,0.026864445,-0.06227667,-0.0048844446,10.307793210009539,0.06799955645809388,fall
10/07/2020, 21:11:37,-0.30388847,-1.3998013,10.207782,0.07204556,-0.048844445,0.015874445,10.307793210009539,0.0884779078994033,fall
10/07/2020, 21:11:37,-0.19142582,-1.0863415,10.157532,0.07204556,-0.048844445,0.015874445,10.217251720113433,0.0884779078994033,fall
10/07/2020, 21:11:37,-0.19142582,-1.0863415,10.157532,0.070824444,-0.05372889,0.028085556,10.217251720113433,0.0932292547664373,fall
10/07/2020, 21:11:37,-0.18903299,-0.76570326,10.047462,0.070824444,-0.05372889,0.028085556,10.07836975442171,0.0932292547664373,fall
10/07/2020, 21:11:37,-0.18903299,-0.76570326,10.047462,-0.0061055557,-0.078151114,0.019537779,10.07836975442171,0.0807873707068952,fall
10/07/2020, 21:11:38,-0.13160525,-0.7800602,9.95175,0.039075557,-0.025643334,-0.036633335,9.983142687998713,0.05938418115266415,fall
10/07/2020, 21:11:38,-0.13160525,-0.7800602,9.95175,0.039075557,-0.03297,-0.03297,9.983142687998713,0.060835359567441745,fall
10/07/2020, 21:11:38,-0.15792629,-0.72741807,9.853643,0.039075557,-0.03297,-0.03297,9.88171879539704,0.060835359567441745,fall
10/07/2020, 21:11:38,-0.15792629,-0.72741807,9.853643,0.03297,-0.04029667,-0.034191113,9.88171879539704,0.062288640430926696,fall
10/07/2020, 21:11:38,-0.13160525,-0.72502524,9.793823,0.03297,-0.04029667,-0.034191113,9.821504733768988,0.062288640430926696,fall
10/07/2020, 21:11:38,-0.13160525,-0.72502524,9.793823,0.019537779,-0.042738892,-0.025643334,9.821504733768988,0.05353427183296903,fall
10/07/2020, 21:11:38,-0.06699903,-0.75613195,9.80818,0.019537779,-0.042738892,-0.025643334,9.837510684446508,0.05353427183296903,fall
10/07/2020, 21:11:38,-0.06699903,-0.75613195,9.80818,0.013432222,-0.045181114,-0.024422223,9.837510684446508,0.05308674642344691,fall
10/07/2020, 21:11:38,-0.050249275,-0.79920274,9.8321085,0.013432222,-0.045181114,-0.024422223,9.864664592296847,0.05308674642344691,fall
10/07/2020, 21:11:38,-0.050249275,-0.79920274,9.8321085,0.02198,-0.037854444,-0.025643334,9.864664592296847,0.050731252156755835,fall
10/07/2020, 21:11:38,-0.04546363,-0.88295156,9.896714,0.02198,-0.037854444,-0.025643334,9.936127140854017,0.050731252156755835,fall
10/07/2020, 21:11:38,-0.04546363,-0.88295156,9.896714,0.035412222,-0.029306669,-0.023201112,9.936127140854017,0.0514897843960839,fall
10/07/2020, 21:11:38,-0.0526421,-0.94755775,9.923036,0.035412222,-0.029306669,-0.023201112,9.968313439275112,0.0514897843960839,fall
10/07/2020, 21:11:38,-0.0526421,-0.94755775,9.923036,0.048844445,-0.018316668,-0.024422223,9.968313439275112,0.057599697300899415,fall
10/07/2020, 21:11:38,-0.06699903,-1.0073783,9.911072,0.048844445,-0.018316668,-0.024422223,9.962361354896132,0.057599697300899415,fall
10/07/2020, 21:11:38,-0.06699903,-1.0073783,9.911072,0.064718895,-0.0036633336,-0.017095556,9.962361354896132,0.06703889461036565,fall
10/07/2020, 21:11:38,-0.04546363,-0.98584294,9.865608,0.064718895,-0.0036633336,-0.017095556,9.914846378468772,0.06703889461036565,fall
10/07/2020, 21:11:38,-0.04546363,-0.98584294,9.865608,0.06716111,0.0024422223,-0.018316668,9.914846378468772,0.06965687232248062,fall
10/07/2020, 21:11:38,-0.033499517,-0.91884387,9.769895,0.06716111,0.0024422223,-0.018316668,9.813064595732651,0.06965687232248062,fall
10/07/2020, 21:11:38,-0.033499517,-0.91884387,9.769895,0.047623336,0.0061055557,-0.02075889,9.813064595732651,0.05230861755107505,fall
10/07/2020, 21:11:39,-0.0526421,-0.68195444,9.454042,0.015874445,0.10013112,0.05372889,9.478752629463328,0.11473897400918716,fall
10/07/2020, 21:11:39,-0.0023928226,-0.6580262,9.561719,0.015874445,0.10013112,0.05372889,9.584334788149288,0.11473897400918716,fall
10/07/2020, 21:11:39,-0.0023928226,-0.6580262,9.561719,0.0012211112,0.106236674,0.06594,9.584334788149288,0.1250432149595172,fall
10/07/2020, 21:11:39,0.076570325,-0.59342,9.616755,0.0012211112,0.106236674,0.06594,9.635350438417495,0.1250432149595172,fall
10/07/2020, 21:11:39,0.076570325,-0.59342,9.616755,-0.023201112,0.11600556,0.07448778,9.635350438417495,0.13979989940889637,fall
10/07/2020, 21:11:39,0.15553348,-0.5910272,9.659825,-0.023201112,0.11600556,0.07448778,9.679138862720366,0.13979989940889637,fall
10/07/2020, 21:11:39,0.15553348,-0.5910272,9.659825,-0.05006556,0.11966889,0.09036223,9.679138862720366,0.1580902797285693,fall
10/07/2020, 21:11:39,0.15314065,-0.6436693,9.667004,-0.05006556,0.11966889,0.09036223,9.689619262319786,0.1580902797285693,fall
10/07/2020, 21:11:39,0.15314065,-0.6436693,9.667004,-0.059834447,0.11600556,0.11234222,9.689619262319786,0.17221564004865017,fall
10/07/2020, 21:11:39,0.16031912,-0.7369894,9.650253,-0.059834447,0.11600556,0.11234222,9.67968203195703,0.17221564004865017,fall
10/07/2020, 21:11:39,0.16031912,-0.7369894,9.650253,-0.02198,0.123332225,0.14409111,9.67968203195703,0.19093508674232018,fall
10/07/2020, 21:11:39,0.10049855,-0.7800602,9.487542,-0.02198,0.123332225,0.14409111,9.520086655288619,0.19093508674232018,fall
10/07/2020, 21:11:39,0.10049855,-0.7800602,9.487542,0.013432222,0.16851334,0.18805112,9.520086655288619,0.2528643802615603,fall
10/07/2020, 21:11:39,0.0741775,-0.6053841,9.413364,0.013432222,0.16851334,0.18805112,9.43310244550391,0.2528643802615603,fall
10/07/2020, 21:11:39,0.0741775,-0.6053841,9.413364,0.019537779,0.18072446,0.21980001,9.43310244550391,0.2852281519307034,fall
10/07/2020, 21:11:39,-0.02632105,-0.26799613,9.678967,0.019537779,0.18072446,0.21980001,9.68271274612579,0.2852281519307034,fall
10/07/2020, 21:11:39,-0.02632105,-0.26799613,9.678967,-0.07937223,0.123332225,0.21247335,9.68271274612579,0.25817767455435375,fall
10/07/2020, 21:11:39,-0.13160525,-0.083748795,9.753145,-0.07937223,0.123332225,0.21247335,9.75439262304709,0.25817767455435375,fall
10/07/2020, 21:11:39,-0.13160525,-0.083748795,9.753145,-0.21613668,0.03052778,0.18927222,9.75439262304709,0.28891345502323834,fall
10/07/2020, 21:11:39,-0.27038896,0.0,10.018748,-0.21613668,0.03052778,0.18927222,10.022396288113825,0.28891345502323834,fall
10/07/2020, 21:11:40,0.2416751,-0.17228323,10.796415,0.2735289,-0.36511225,0.36267,10.800494077535228,0.5827988887681411,fall
10/07/2020, 21:11:40,0.2416751,-0.043070808,10.817951,0.2735289,-0.36511225,0.36267,10.82073611926666,0.5827988887681411,fall
10/07/2020, 21:11:40,0.2416751,-0.043070808,10.817951,0.28940335,-0.36877558,0.37854445,10.82073611926666,0.6025326752129875,fall
10/07/2020, 21:11:40,0.23928227,0.06699903,10.839486,0.28940335,-0.36877558,0.37854445,10.842333893807334,0.6025326752129875,fall
10/07/2020, 21:11:40,0.23928227,0.06699903,10.839486,0.29673,-0.37854445,0.38831335,10.842333893807334,0.6181681490415959,fall
10/07/2020, 21:11:40,0.27996024,0.12921242,10.844273,0.29673,-0.37854445,0.38831335,10.84865531325127,0.6181681490415959,fall
10/07/2020, 21:11:40,0.27996024,0.12921242,10.844273,0.29184556,-0.37976557,0.41395667,10.84865531325127,0.6330527983282054,fall
10/07/2020, 21:11:40,0.2943172,0.15314065,10.8682,0.29184556,-0.37976557,0.41395667,10.873263193330214,0.6330527983282054,fall
10/07/2020, 21:11:40,0.2943172,0.15314065,10.8682,0.28329778,-0.36755446,0.45425335,10.873263193330214,0.6493843321023455,fall
10/07/2020, 21:11:40,0.31106696,0.2321038,10.872986,0.28329778,-0.36755446,0.45425335,10.87991065660497,0.6493843321023455,fall
10/07/2020, 21:11:40,0.31106696,0.2321038,10.872986,0.26986557,-0.3602278,0.5018767,10.87991065660497,0.6741451804065915,fall
10/07/2020, 21:11:40,0.31345975,0.28713873,10.844273,0.26986557,-0.3602278,0.5018767,10.852601263487918,0.6741451804065915,fall
10/07/2020, 21:11:40,0.31345975,0.28713873,10.844273,0.23933779,-0.36511225,0.5470578,10.852601263487918,0.6999012591058722,fall
10/07/2020, 21:11:40,0.27996024,0.3589234,10.805987,0.23933779,-0.36511225,0.5470578,10.81557055975055,0.6999012591058722,fall
10/07/2020, 21:11:40,0.27996024,0.3589234,10.805987,0.17706113,-0.36389112,0.5836911,10.81557055975055,0.7102553882968294,fall
10/07/2020, 21:11:40,0.28953153,0.4546363,10.767702,0.17706113,-0.36389112,0.5836911,10.781184130152488,0.7102553882968294,fall
10/07/2020, 21:11:40,0.28953153,0.4546363,10.767702,0.089141116,-0.35656446,0.6227667,10.781184130152488,0.7231339321848624,fall
10/07/2020, 21:11:40,0.27756742,0.5479564,10.69831,0.089141116,-0.35656446,0.6227667,10.715929011355593,0.7231339321848624,fall
10/07/2020, 21:11:40,0.27756742,0.5479564,10.69831,-0.0036633336,-0.3370267,0.64841,10.715929011355593,0.7307776431321642,fall
10/07/2020, 21:11:40,0.28953153,0.5814559,10.679168,-0.0036633336,-0.3370267,0.64841,10.698903833254851,0.7307776431321642,fall
10/07/2020, 21:11:41,6.3960147,1.5409778,-0.038285162,-0.94880337,0.0061055557,-1.0196278,6.579139941013183,1.392805073812875,fall
10/07/2020, 21:11:41,6.3960147,1.5409778,-0.038285162,-1.0037534,0.05006556,-1.0061955,6.579139941013183,1.4221311370202891,fall
10/07/2020, 21:11:41,6.3960147,1.5720844,0.10767702,-1.0037534,0.05006556,-1.0061955,6.587264053133506,1.4221311370202891,fall
10/07/2020, 21:11:41,6.3960147,1.5720844,0.10767702,-1.0086378,0.07693,-0.9976478,6.587264053133506,1.4207637329369225,fall
10/07/2020, 21:11:41,6.276374,1.5744773,0.21774685,-1.0086378,0.07693,-0.9976478,6.474508582012627,1.4207637329369225,fall
10/07/2020, 21:11:41,6.276374,1.5744773,0.21774685,-0.9952056,0.09036223,-0.9720045,6.474508582012627,1.3940560164850673,fall
10/07/2020, 21:11:41,6.0155563,1.4979069,0.26081768,-0.9952056,0.09036223,-0.9720045,6.204729569960145,1.3940560164850673,fall
10/07/2020, 21:11:41,6.0155563,1.4979069,0.26081768,-1.00009,0.07570889,-0.9414767,6.204729569960145,1.37560540549591,fall
10/07/2020, 21:11:41,5.6733823,1.3351951,0.26081768,-1.00009,0.07570889,-0.9414767,5.83421273536844,1.37560540549591,fall
10/07/2020, 21:11:41,5.6733823,1.3351951,0.26081768,-1.02207,0.03052778,-0.9085067,5.83421273536844,1.3678243824988068,fall
10/07/2020, 21:11:41,5.410172,1.2107682,0.24885355,-1.02207,0.03052778,-0.9085067,5.549580947463341,1.3678243824988068,fall
10/07/2020, 21:11:41,5.410172,1.2107682,0.24885355,-1.0587034,-0.02198,-0.87920004,5.549580947463341,1.376346166468299,fall
10/07/2020, 21:11:41,5.235496,1.2083755,0.26799613,-1.0587034,-0.02198,-0.87920004,5.37981523781975,1.376346166468299,fall
10/07/2020, 21:11:41,5.235496,1.2083755,0.26799613,-1.0892311,-0.081814446,-0.8523356,5.37981523781975,1.3854941332653097,fall
10/07/2020, 21:11:41,5.089534,1.282553,0.30149564,-1.0892311,-0.081814446,-0.8523356,5.257299313484802,1.3854941332653097,fall
10/07/2020, 21:11:41,5.089534,1.282553,0.30149564,-1.0892311,-0.13188,-0.81448114,5.257299313484802,1.3664539226213481,fall
10/07/2020, 21:11:41,5.048856,1.3447664,0.27756742,-1.0892311,-0.13188,-0.81448114,5.232244736830343,1.3664539226213481,fall
10/07/2020, 21:11:41,5.048856,1.3447664,0.27756742,-1.0806834,-0.17828223,-0.74976224,5.232244736830343,1.3273298272270828,fall
10/07/2020, 21:11:41,5.087141,1.4285151,0.18903299,-1.0806834,-0.17828223,-0.74976224,5.2872859506994425,1.3273298272270828,fall
10/07/2020, 21:11:41,5.087141,1.4285151,0.18903299,-1.0867889,-0.22712667,-0.6679478,5.2872859506994425,1.2957047985094454,fall
10/07/2020, 21:11:42,-0.74177504,-4.386044,9.674182,0.3370267,1.4470167,0.6337567,10.64788282099293,1.6152683722323926,fall
10/07/2020, 21:11:42,-0.74177504,-4.386044,9.674182,0.2515489,1.5581379,0.6581789,10.64788282099293,1.710049717376905,fall
10/07/2020, 21:11:42,-1.4261223,-4.517649,10.523634,0.2515489,1.5581379,0.6581789,11.540790724760372,1.710049717376905,fall
10/07/2020, 21:11:42,-1.4261223,-4.517649,10.523634,0.05250778,1.5129567,0.63986224,11.540790724760372,1.643538513348514,fall
10/07/2020, 21:11:42,-1.8424734,-4.359723,10.597812,0.05250778,1.5129567,0.63986224,11.606700927540606,1.643538513348514,fall
10/07/2020, 21:11:42,-1.8424734,-4.359723,10.597812,-0.07570889,1.4860923,0.62765115,11.606700927540606,1.6149762284776186,fall
10/07/2020, 21:11:42,-1.6342978,-4.1515474,10.523634,-0.07570889,1.4860923,0.62765115,11.43036076394183,1.6149762284776186,fall
10/07/2020, 21:11:42,-1.6342978,-4.1515474,10.523634,-0.17828223,1.6228567,0.66062117,11.43036076394183,1.7612123283035679,fall
10/07/2020, 21:11:42,-1.1988041,-4.1850467,10.691132,-0.17828223,1.6228567,0.66062117,11.54348481755431,1.7612123283035679,fall
10/07/2020, 21:11:42,-1.1988041,-4.1850467,10.691132,-0.25765446,1.9061545,0.7534256,11.54348481755431,2.065783381822115,fall
10/07/2020, 21:11:42,-1.0600204,-4.4841495,11.097912,-0.25765446,1.9061545,0.7534256,12.016442351324082,2.065783381822115,fall
10/07/2020, 21:11:42,-1.0600204,-4.4841495,11.097912,-0.3162678,2.229749,0.83768225,12.016442351324082,2.4028144549748673,fall
10/07/2020, 21:11:42,-1.5218352,-4.831109,11.5621195,-0.3162678,2.229749,0.83768225,12.622923749456568,2.4028144549748673,fall
10/07/2020, 21:11:42,-1.5218352,-4.831109,11.5621195,-0.39197668,2.3897145,0.87920004,12.622923749456568,2.5763100991431913,fall
10/07/2020, 21:11:42,-2.57707,-5.156533,11.815758,-0.39197668,2.3897145,0.87920004,13.14698639101325,2.5763100991431913,fall
10/07/2020, 21:11:42,-2.57707,-5.156533,11.815758,-0.4908867,2.3262167,0.85722005,13.14698639101325,2.5272673158428853,fall
10/07/2020, 21:11:42,-3.818945,-5.0775695,11.82533,-0.4908867,2.3262167,0.85722005,13.424026097924068,2.5272673158428853,fall
10/07/2020, 21:11:42,-3.818945,-5.0775695,11.82533,-0.6203245,2.0856578,0.70458114,13.424026097924068,2.2871829103903463,fall
10/07/2020, 21:11:42,-4.8885365,-4.914858,11.985648,-0.6203245,2.0856578,0.70458114,13.845915577610919,2.2871829103903463,fall
10/07/2020, 21:11:42,-4.8885365,-4.914858,11.985648,-0.74732006,1.7754956,0.44692668,13.845915577610919,1.9775276290404349,fall
10/07/2020, 21:11:43,1.3950156,-2.1798615,9.523434,0.14897557,-0.6325356,-0.22712667,9.86882232249692,0.6883905147106252,fall
10/07/2020, 21:11:43,1.3950156,-2.1798615,9.523434,0.16973445,-0.6288723,-0.21613668,9.86882232249692,0.6862981754624499,fall
10/07/2020, 21:11:43,1.4333007,-2.1774685,9.537791,0.16973445,-0.6288723,-0.21613668,9.887627733556013,0.6862981754624499,fall
10/07/2020, 21:11:43,1.4333007,-2.1774685,9.537791,0.16240779,-0.6288723,-0.2185789,9.887627733556013,0.6852980119634033,fall
10/07/2020, 21:11:43,1.5002998,-2.1104696,9.5665045,0.16240779,-0.6288723,-0.2185789,9.910751197921034,0.6852980119634033,fall
10/07/2020, 21:11:43,1.5002998,-2.1104696,9.5665045,0.13920668,-0.6337567,-0.23323223,9.910751197921034,0.6895094802928683,fall
10/07/2020, 21:11:43,1.6151553,-2.0291135,9.580862,0.13920668,-0.6337567,-0.23323223,9.925671061588991,0.6895094802928683,fall
10/07/2020, 21:11:43,1.6151553,-2.0291135,9.580862,0.123332225,-0.63742,-0.25765446,9.925671061588991,0.6984990423888493,fall
10/07/2020, 21:11:43,1.6893328,-1.9764715,9.585648,0.123332225,-0.63742,-0.25765446,9.932015143010977,0.6984990423888493,fall
10/07/2020, 21:11:43,1.6893328,-1.9764715,9.585648,0.11600556,-0.6227667,-0.2845189,9.932015143010977,0.6944397909313017,fall
10/07/2020, 21:11:43,1.7802601,-1.9381863,9.597611,0.11600556,-0.6227667,-0.2845189,9.951886111191136,0.6944397909313017,fall
10/07/2020, 21:11:43,1.7802601,-1.9381863,9.597611,0.1306589,-0.6203245,-0.2955089,9.951886111191136,0.6994281432619046,fall
10/07/2020, 21:11:43,1.9046868,-1.9477576,9.580862,0.1306589,-0.6203245,-0.2955089,9.96064802333522,0.6994281432619046,fall
10/07/2020, 21:11:43,1.9046868,-1.9477576,9.580862,0.17095557,-0.61544,-0.30283555,9.96064802333522,0.7068957393316819,fall
10/07/2020, 21:11:43,1.9980069,-1.98365,9.635897,0.17095557,-0.61544,-0.30283555,10.038794938247332,0.7068957393316819,fall
10/07/2020, 21:11:43,1.9980069,-1.98365,9.635897,0.23689556,-0.6020078,-0.3052778,10.038794938247332,0.7153512687120595,fall
10/07/2020, 21:11:43,2.0578275,-2.050649,9.724431,0.23689556,-0.6020078,-0.3052778,10.149107051504716,0.7153512687120595,fall
10/07/2020, 21:11:43,2.0578275,-2.050649,9.724431,0.32115224,-0.5653745,-0.2942878,10.149107051504716,0.7137173032698474,fall
10/07/2020, 21:11:43,2.0482562,-2.1367905,9.810573,0.32115224,-0.5653745,-0.2942878,10.247368550398596,0.7137173032698474,fall
10/07/2020, 21:11:43,2.0482562,-2.1367905,9.810573,0.4163989,-0.5226356,-0.27230778,10.247368550398596,0.7215868152227969,fall
10/07/2020, 21:11:44,7.676175,2.644069,3.8524444,-0.57148004,-0.5360678,0.13310112,8.986439395840696,0.7947792199491639,fall
10/07/2020, 21:11:44,7.5900335,2.5866413,3.859623,-0.57148004,-0.5360678,0.13310112,8.899214102207823,0.7947792199491639,fall
10/07/2020, 21:11:44,7.5900335,2.5866413,3.859623,-0.5739222,-0.44448447,0.13798556,8.899214102207823,0.738913507228134,fall
10/07/2020, 21:11:44,7.4416785,2.5124638,3.8787656,-0.5739222,-0.44448447,0.13798556,8.759901602746078,0.738913507228134,fall
10/07/2020, 21:11:44,7.4416785,2.5124638,3.8787656,-0.5678167,-0.40174556,0.13432223,8.759901602746078,0.7084191765390869,fall
10/07/2020, 21:11:44,7.257431,2.4335005,3.818945,-0.5678167,-0.40174556,0.13432223,8.554330503717232,0.7084191765390869,fall
10/07/2020, 21:11:44,7.257431,2.4335005,3.818945,-0.5678167,-0.38465002,0.11478445,8.554330503717232,0.6953753555829805,fall
10/07/2020, 21:11:44,7.1952176,2.3665016,3.7304106,-0.5678167,-0.38465002,0.11478445,8.443189515275419,0.6953753555829805,fall
10/07/2020, 21:11:44,7.1952176,2.3665016,3.7304106,-0.5775856,-0.4041878,0.09402556,8.443189515275419,0.7112057945563522,fall
10/07/2020, 21:11:44,7.257431,2.3306093,3.6993039,-0.5775856,-0.4041878,0.09402556,8.472714680542673,0.7112057945563522,fall
10/07/2020, 21:11:44,7.257431,2.3306093,3.6993039,-0.58247,-0.40052447,0.068382226,8.472714680542673,0.7101881992321272,fall
10/07/2020, 21:11:44,7.4177504,2.306681,3.6873398,-0.58247,-0.40052447,0.068382226,8.598852941625028,0.7101881992321272,fall
10/07/2020, 21:11:44,7.4177504,2.306681,3.6873398,-0.5922389,-0.35412225,0.05006556,8.598852941625028,0.6918497288176743,fall
10/07/2020, 21:11:44,7.5613194,2.3018954,3.6921253,-0.5922389,-0.35412225,0.05006556,8.72376421352203,0.6918497288176743,fall
10/07/2020, 21:11:44,7.5613194,2.3018954,3.6921253,-0.59956557,-0.27108666,0.03052778,8.72376421352203,0.6587099449975979,fall
10/07/2020, 21:11:44,7.645068,2.3234308,3.7088752,-0.59956557,-0.27108666,0.03052778,8.809151660196775,0.6587099449975979,fall
10/07/2020, 21:11:44,7.645068,2.3234308,3.7088752,-0.5922389,-0.19904111,0.009768889,8.809151660196775,0.6248677574057915,fall
10/07/2020, 21:11:44,7.6594253,2.309074,3.76391,-0.5922389,-0.19904111,0.009768889,8.841133218495035,0.6248677574057915,fall
10/07/2020, 21:11:44,7.6594253,2.309074,3.76391,-0.5470578,-0.14897557,-0.01099,8.841133218495035,0.5670861875131348,fall
10/07/2020, 21:11:44,7.6019974,2.2851455,3.8404803,-0.5470578,-0.14897557,-0.01099,8.818250580277052,0.5670861875131348,fall
10/07/2020, 21:11:45,-14.701502,-1.2059826,9.085547,1.7046711,8.034911,3.8635957,17.324425615349284,9.077063011248384,fall
10/07/2020, 21:11:45,-18.49652,-2.1391835,12.641282,1.7046711,8.034911,3.8635957,22.50554014469929,9.077063011248384,fall
10/07/2020, 21:11:45,-18.49652,-2.1391835,12.641282,3.0918534,3.6425745,1.9317979,22.50554014469929,5.1536152017296315,fall
10/07/2020, 21:11:45,-25.332813,-4.8095737,37.476387,3.0918534,3.6425745,1.9317979,45.49025182256383,5.1536152017296315,fall
10/07/2020, 21:11:45,-25.332813,-4.8095737,37.476387,-0.74609894,-1.8695211,-3.5558758,45.49025182256383,4.086077026749228,fall
10/07/2020, 21:11:45,-22.738993,-36.947575,57.954163,-0.74609894,-1.8695211,-3.5558758,72.39385347503683,4.086077026749228,fall
10/07/2020, 21:11:45,-22.738993,-36.947575,57.954163,0.62765115,-2.867169,-2.548459,72.39385347503683,3.8870614913746553,fall
10/07/2020, 21:11:45,-18.503698,-44.001617,68.193054,0.62765115,-2.867169,-2.548459,83.23954487026461,3.8870614913746553,fall
10/07/2020, 21:11:45,-18.503698,-44.001617,68.193054,2.5423534,-3.613268,-1.0782411,83.23954487026461,4.547732354234153,fall
10/07/2020, 21:11:45,-15.577275,-24.713072,49.615177,2.5423534,-3.613268,-1.0782411,57.576498921358514,4.547732354234153,fall
10/07/2020, 21:11:45,-15.577275,-24.713072,49.615177,2.019718,-4.3373866,-0.4371578,57.576498921358514,4.8045072653463,fall
10/07/2020, 21:11:45,-12.782458,-11.968899,19.228724,2.019718,-4.3373866,-0.4371578,26.007490971075455,4.8045072653463,fall
10/07/2020, 21:11:45,-12.782458,-11.968899,19.228724,-0.50798225,-5.173848,0.0012211112,26.007490971075455,5.198726013470634,fall
10/07/2020, 21:11:45,-6.398408,4.6707897,-11.205588,-0.50798225,-5.173848,0.0012211112,13.723013910030819,5.198726013470634,fall
10/07/2020, 21:11:45,-6.398408,4.6707897,-11.205588,-2.0026224,-3.1492457,-1.57157,13.723013910030819,4.049453969605345,fall
10/07/2020, 21:11:45,8.537591,26.108088,-15.139389,-2.0026224,-3.1492457,-1.57157,31.364371429642283,4.049453969605345,fall
10/07/2020, 21:11:45,8.537591,26.108088,-15.139389,-2.6534746,-1.5068512,-3.3910258,31.364371429642283,4.561861864357431,fall
10/07/2020, 21:11:45,12.313465,21.982862,-14.713467,-2.6534746,-1.5068512,-3.3910258,29.17796713962706,4.561861864357431,fall
10/07/2020, 21:11:45,12.313465,21.982862,-14.713467,-2.702319,0.06349778,0.21003112,29.17796713962706,2.711212369853357,fall
10/07/2020, 21:11:45,8.315059,6.829116,-5.6590257,-2.702319,0.06349778,0.21003112,12.157367987252753,2.711212369853357,fall
10/07/2020, 21:11:46,-6.759724,-2.4358935,8.544769,1.4335845,0.7167922,0.51164556,11.164252323283161,1.6824793162371734,fall
10/07/2020, 21:11:46,-6.242874,-1.9908284,8.52802,1.4335845,0.7167922,0.51164556,10.75471983810673,1.6824793162371734,fall
10/07/2020, 21:11:46,-6.242874,-1.9908284,8.52802,1.3249056,0.5678167,0.3724389,10.75471983810673,1.48879194476578,fall
10/07/2020, 21:11:46,-5.790631,-1.9310079,8.611769,1.3249056,0.5678167,0.3724389,10.555697852697966,1.48879194476578,fall
10/07/2020, 21:11:46,-5.790631,-1.9310079,8.611769,1.2027946,0.4566956,0.22590557,10.555697852697966,1.3062614279005318,fall
10/07/2020, 21:11:46,-5.556134,-2.1391835,8.6141615,1.2027946,0.4566956,0.22590557,10.471414033066756,1.3062614279005318,fall
10/07/2020, 21:11:46,-5.556134,-2.1391835,8.6141615,1.0916734,0.3614489,0.15630223,10.471414033066756,1.160528526076437,fall
10/07/2020, 21:11:46,-5.5250273,-2.4933212,8.554341,1.0916734,0.3614489,0.15630223,10.484242092456212,1.160528526076437,fall
10/07/2020, 21:11:46,-5.5250273,-2.4933212,8.554341,1.00009,0.27719223,0.15996556,10.484242092456212,1.050049774821726,fall
10/07/2020, 21:11:46,-5.558527,-2.7038896,8.482556,1.00009,0.27719223,0.15996556,10.495808851988878,1.050049774821726,fall
10/07/2020, 21:11:46,-5.558527,-2.7038896,8.482556,0.9292656,0.2075889,0.18194556,10.495808851988878,0.9693977134644347,fall
10/07/2020, 21:11:46,-5.5106707,-2.5986054,8.355737,0.9292656,0.2075889,0.18194556,10.341111037136855,0.9693977134644347,fall
10/07/2020, 21:11:46,-5.5106707,-2.5986054,8.355737,0.8718734,0.17095557,0.18194556,10.341111037136855,0.906914098832816,fall
10/07/2020, 21:11:46,-5.3072805,-2.2612174,8.286345,0.8718734,0.17095557,0.18194556,10.096724038273974,0.906914098832816,fall
10/07/2020, 21:11:46,-5.3072805,-2.2612174,8.286345,0.7937223,0.14164889,0.17339778,10.096724038273974,0.8246976673315832,fall
10/07/2020, 21:11:46,-5.1349974,-1.9094725,8.331808,0.7937223,0.14164889,0.17339778,9.971625199362755,0.8246976673315832,fall
10/07/2020, 21:11:46,-5.1349974,-1.9094725,8.331808,0.7326667,0.098910004,0.16362889,9.971625199362755,0.7572041033145673,fall
10/07/2020, 21:11:46,-5.0344987,-1.6534405,8.391629,0.7326667,0.098910004,0.16362889,9.924690596250867,0.7572041033145673,fall
10/07/2020, 21:11:46,-5.0344987,-1.6534405,8.391629,0.7021389,0.054950003,0.17706113,9.924690596250867,0.7262018871850856,fall
10/07/2020, 21:11:46,-5.06082,-1.5577276,8.372486,0.7021389,0.054950003,0.17706113,9.906408988538308,0.7262018871850856,fall
10/07/2020, 21:11:47,-1.4835501,-0.6029913,10.643275,0.037854444,-1.2699556,-0.08792,10.763077049915388,1.273558086959742,fall
10/07/2020, 21:11:47,-1.3710874,-0.6029913,10.612168,0.037854444,-1.2699556,-0.08792,10.717350209683255,1.273558086959742,fall
10/07/2020, 21:11:47,-1.3710874,-0.6029913,10.612168,-0.04151778,-1.295599,-0.09524667,10.717350209683255,1.2997585858040774,fall
10/07/2020, 21:11:47,-1.2394822,-0.67477596,10.485349,-0.04151778,-1.295599,-0.09524667,10.579894896499082,1.2997585858040774,fall
10/07/2020, 21:11:47,-1.2394822,-0.67477596,10.485349,-0.102573335,-1.3200212,-0.102573335,10.579894896499082,1.32796777868059,fall
10/07/2020, 21:11:47,-1.1509477,-0.77766734,10.370493,-0.102573335,-1.3200212,-0.102573335,10.463105217912085,1.32796777868059,fall
10/07/2020, 21:11:47,-1.1509477,-0.77766734,10.370493,-0.13920668,-1.34078,-0.10501556,10.463105217912085,1.3520716802545167,fall
10/07/2020, 21:11:47,-1.0839486,-0.93320084,10.234102,-0.13920668,-1.34078,-0.10501556,10.333569433672666,1.3520716802545167,fall
10/07/2020, 21:11:47,-1.0839486,-0.93320084,10.234102,-0.15386,-1.3468856,-0.102573335,10.333569433672666,1.3595201015456961,fall
10/07/2020, 21:11:47,-1.0360922,-1.1294123,10.155139,-0.15386,-1.3468856,-0.102573335,10.270146376038316,1.3595201015456961,fall
10/07/2020, 21:11:47,-1.0360922,-1.1294123,10.155139,-0.14287001,-1.3444434,-0.106236674,10.270146376038316,1.3561807530231893,fall
10/07/2020, 21:11:47,-0.9834501,-1.2777673,10.0881405,-0.14287001,-1.3444434,-0.106236674,10.216185291078014,1.3561807530231893,fall
10/07/2020, 21:11:47,-0.9834501,-1.2777673,10.0881405,-0.12455334,-1.3371167,-0.11478445,10.216185291078014,1.3478019595167374,fall
10/07/2020, 21:11:47,-0.89491564,-1.3423735,10.009177,-0.12455334,-1.3371167,-0.11478445,10.138366188443877,1.3478019595167374,fall
10/07/2020, 21:11:47,-0.89491564,-1.3423735,10.009177,-0.10867889,-1.3334534,-0.13554333,10.138366188443877,1.3447234329695505,fall
10/07/2020, 21:11:47,-0.72023964,-1.3447664,9.930214,-0.10867889,-1.3334534,-0.13554333,10.046705450581447,1.3447234329695505,fall
10/07/2020, 21:11:47,-0.72023964,-1.3447664,9.930214,-0.10013112,-1.32979,-0.15630223,10.046705450581447,1.3426831573614475,fall
10/07/2020, 21:11:47,-0.5288138,-1.3160524,9.9015,-0.10013112,-1.32979,-0.15630223,10.002566435366258,1.3426831573614475,fall
10/07/2020, 21:11:47,-0.5288138,-1.3160524,9.9015,-0.09646778,-1.3261267,-0.1746189,10.002566435366258,1.3410480240189182,fall
10/07/2020, 21:11:47,-0.31585258,-1.2753744,9.9015,-0.09646778,-1.3261267,-0.1746189,9.988295150334455,1.3410480240189182,fall
10/07/2020, 21:11:48,6.5515485,1.4380864,6.9942207,-0.035412222,-0.24055889,-0.106236674,9.690717395331152,0.26534663576576556,fall
10/07/2020, 21:11:48,6.5371914,1.4668003,6.977471,-0.035412222,-0.24055889,-0.106236674,9.673234945203216,0.26534663576576556,fall
10/07/2020, 21:11:48,6.5371914,1.4668003,6.977471,-0.05006556,-0.24544334,-0.08792,9.673234945203216,0.265478666135943,fall
10/07/2020, 21:11:48,6.558727,1.5433706,6.884151,-0.05006556,-0.24544334,-0.08792,9.632778656154676,0.265478666135943,fall
10/07/2020, 21:11:48,6.558727,1.5433706,6.884151,-0.08425667,-0.25643334,-0.06960334,9.632778656154676,0.2787505484261063,fall
10/07/2020, 21:11:48,6.587441,1.5816557,6.838687,-0.08425667,-0.25643334,-0.06960334,9.626196158836292,0.2787505484261063,fall
10/07/2020, 21:11:48,6.587441,1.5816557,6.838687,-0.13920668,-0.28329778,-0.058613338,9.626196158836292,0.32104774256180607,fall
10/07/2020, 21:11:48,6.640083,1.6031911,6.814759,-0.13920668,-0.28329778,-0.058613338,9.64893046357147,0.32104774256180607,fall
10/07/2020, 21:11:48,6.640083,1.6031911,6.814759,-0.20636779,-0.30161446,-0.054950003,9.64893046357147,0.36956522064590713,fall
10/07/2020, 21:11:48,6.719046,1.5433706,6.8721867,-0.20636779,-0.30161446,-0.054950003,9.734193496667192,0.36956522064590713,fall
10/07/2020, 21:11:48,6.719046,1.5433706,6.8721867,-0.25643334,-0.30772,-0.06105556,9.734193496667192,0.40518815377398076,fall
10/07/2020, 21:11:48,6.788438,1.4404793,6.991828,-0.25643334,-0.30772,-0.06105556,9.85106731241583,0.40518815377398076,fall
10/07/2020, 21:11:48,6.788438,1.4404793,6.991828,-0.27475002,-0.3052778,-0.07570889,9.85106731241583,0.41762895421797647,fall
10/07/2020, 21:11:48,6.8817577,1.3328022,7.051648,-0.27475002,-0.3052778,-0.07570889,9.942871449996778,0.41762895421797647,fall
10/07/2020, 21:11:48,6.8817577,1.3328022,7.051648,-0.2515489,-0.29184556,-0.10135223,9.942871449996778,0.3984004864470351,fall
10/07/2020, 21:11:48,6.943971,1.2035898,7.056434,-0.2515489,-0.29184556,-0.10135223,9.972994876500644,0.3984004864470351,fall
10/07/2020, 21:11:48,6.943971,1.2035898,7.056434,-0.19171445,-0.27719223,-0.11478445,9.972994876500644,0.3560413396842449,fall
10/07/2020, 21:11:48,6.9798636,1.1246266,7.082755,-0.19171445,-0.27719223,-0.11478445,10.007432298219202,0.3560413396842449,fall
10/07/2020, 21:11:48,6.9798636,1.1246266,7.082755,-0.12577444,-0.2625389,-0.11966889,10.007432298219202,0.3147483659096283,fall
10/07/2020, 21:11:48,6.963114,1.0839486,7.0468626,-0.12577444,-0.2625389,-0.11966889,9.965850225074346,0.3147483659096283,fall
10/07/2020, 21:11:49,4.486542,-0.0071784677,1.6941184,-1.8841745,0.014653334,-0.32725778,4.795742878154708,1.9124397493936867,fall
10/07/2020, 21:11:49,4.3908296,0.24646074,1.3806586,-1.8841745,0.014653334,-0.32725778,4.609375813483477,1.9124397493936867,fall
10/07/2020, 21:11:49,4.3908296,0.24646074,1.3806586,-2.1686933,-0.098910004,-0.3724389,4.609375813483477,2.2026630645348617,fall
10/07/2020, 21:11:49,4.5128636,0.7082755,1.0576276,-2.1686933,-0.098910004,-0.3724389,4.688941077665161,2.2026630645348617,fall
10/07/2020, 21:11:49,4.5128636,0.7082755,1.0576276,-2.5802078,-0.11234222,-0.3614489,4.688941077665161,2.607822561287918,fall
10/07/2020, 21:11:49,4.752146,1.2394822,0.7896315,-2.5802078,-0.11234222,-0.3614489,4.974205797133829,2.607822561287918,fall
10/07/2020, 21:11:49,4.752146,1.2394822,0.7896315,-3.0393457,-0.04396,-0.23323223,4.974205797133829,3.0485984139913604,fall
10/07/2020, 21:11:49,4.881358,1.5577276,0.65084773,-3.0393457,-0.04396,-0.23323223,5.165053274311108,3.0485984139913604,fall
10/07/2020, 21:11:49,4.881358,1.5577276,0.65084773,-3.4960413,0.026864445,0.026864445,5.165053274311108,3.496247724847769,fall
10/07/2020, 21:11:49,4.7688956,1.4859428,0.4331009,-3.4960413,0.026864445,0.026864445,5.013777818687541,3.496247724847769,fall
10/07/2020, 21:11:49,4.7688956,1.4859428,0.4331009,-3.9283147,0.017095556,0.3712178,5.013777818687541,3.9458524015065595,fall
10/07/2020, 21:11:49,4.462614,1.0193424,0.2321038,-3.9283147,0.017095556,0.3712178,4.58343270807264,3.9458524015065595,fall
10/07/2020, 21:11:49,4.462614,1.0193424,0.2321038,-4.2384768,-0.05372889,0.7106867,4.58343270807264,4.297981798893776,fall
10/07/2020, 21:11:49,4.1276193,0.37328035,0.18664017,-4.2384768,-0.05372889,0.7106867,4.148664071784949,4.297981798893776,fall
10/07/2020, 21:11:49,4.1276193,0.37328035,0.18664017,-4.338608,-0.11234222,0.99886894,4.148664071784949,4.4535241638324585,fall
10/07/2020, 21:11:49,3.9457645,-0.3924229,0.34456646,-4.338608,-0.11234222,0.99886894,3.9801733140891242,4.4535241638324585,fall
10/07/2020, 21:11:49,3.9457645,-0.3924229,0.34456646,-4.109039,-0.11356334,1.2223322,3.9801733140891242,4.288495405043837,fall
10/07/2020, 21:11:49,4.024728,-1.052842,0.64845496,-4.109039,-0.11356334,1.2223322,4.2103924042366305,4.288495405043837,fall
10/07/2020, 21:11:49,4.024728,-1.052842,0.64845496,-3.590067,-0.09524667,1.3737501,4.2103924042366305,3.845106195781525,fall
10/07/2020, 21:11:49,4.3094735,-1.6797615,0.9834501,-3.590067,-0.09524667,1.3737501,4.728671578258264,3.845106195781525,fall
10/07/2020, 21:11:50,2.4047868,-2.6201408,-9.035298,0.029306669,0.15141778,-0.06349778,9.710033659403797,0.16678786615702912,fall
10/07/2020, 21:11:50,2.4047868,-2.6201408,-9.035298,0.08059334,0.1306589,-0.06349778,9.710033659403797,0.16612947222072127,fall
10/07/2020, 21:11:50,2.4215364,-2.5531418,-8.937193,0.08059334,0.1306589,-0.06349778,9.604987725495134,0.16612947222072127,fall
10/07/2020, 21:11:50,2.4215364,-2.5531418,-8.937193,0.14531223,0.10745778,-0.06349778,9.604987725495134,0.1915588374384024,fall
10/07/2020, 21:11:50,2.4478576,-2.5196424,-8.898908,0.14531223,0.10745778,-0.06349778,9.567191963880951,0.1915588374384024,fall
10/07/2020, 21:11:50,2.4478576,-2.5196424,-8.898908,0.18438779,0.085477784,-0.028085556,9.567191963880951,0.20516848316086625,fall
10/07/2020, 21:11:50,2.5339992,-2.5124638,-8.872586,0.18438779,0.085477784,-0.028085556,9.563284641011593,0.20516848316086625,fall
10/07/2020, 21:11:50,2.5339992,-2.5124638,-8.872586,0.2283478,0.08425667,-0.02198,9.563284641011593,0.24438703273357032,fall
10/07/2020, 21:11:50,2.6416762,-2.6919255,-8.889337,0.2283478,0.08425667,-0.02198,9.656356510329637,0.24438703273357032,fall
10/07/2020, 21:11:50,2.6416762,-2.6919255,-8.889337,0.23689556,0.06960334,0.0024422223,9.656356510329637,0.2469212347128683,fall
10/07/2020, 21:11:50,2.5579274,-2.7278178,-8.992228,0.23689556,0.06960334,0.0024422223,9.738795542900474,0.2469212347128683,fall
10/07/2020, 21:11:50,2.5579274,-2.7278178,-8.992228,0.24300112,0.05006556,0.028085556,9.738795542900474,0.2496896114851942,fall
10/07/2020, 21:11:50,2.5268207,-2.7349963,-9.047262,0.24300112,0.05006556,0.028085556,9.78355664758933,0.2496896114851942,fall
10/07/2020, 21:11:50,2.5268207,-2.7349963,-9.047262,0.23201112,0.06105556,0.025643334,9.78355664758933,0.24127686134792206,fall
10/07/2020, 21:11:50,2.536392,-2.7613173,-9.064013,0.23201112,0.06105556,0.025643334,9.808898017290629,0.24127686134792206,fall
10/07/2020, 21:11:50,2.536392,-2.7613173,-9.064013,0.21980001,0.07570889,0.0048844446,9.808898017290629,0.2325247043460622,fall
10/07/2020, 21:11:50,2.507678,-2.8259234,-9.097511,0.21980001,0.07570889,0.0048844446,9.850837736741893,0.2325247043460622,fall
10/07/2020, 21:11:50,2.507678,-2.8259234,-9.097511,0.19049335,0.07570889,-0.012211111,9.850837736741893,0.20535009525955522,fall
10/07/2020, 21:11:50,2.5459633,-2.8498518,-9.090333,0.19049335,0.07570889,-0.012211111,9.860919753525303,0.20535009525955522,fall
10/07/2020, 21:11:50,2.5459633,-2.8498518,-9.090333,0.14287001,0.06960334,-0.014653334,9.860919753525303,0.1595969437122389,fall
10/07/2020, 21:11:51,-2.4358935,-11.035698,-2.5722845,4.0516467,-0.15508112,0.11966889,11.59037763048801,4.056379155965928,fall
10/07/2020, 21:11:51,-2.4358935,-11.035698,-2.5722845,4.5095634,0.08425667,0.11234222,11.59037763048801,4.511749376434965,fall
10/07/2020, 21:11:51,-2.5196424,-10.688739,-2.8115666,4.5095634,0.08425667,0.11234222,11.335900577783358,4.511749376434965,fall
10/07/2020, 21:11:51,-2.5196424,-10.688739,-2.8115666,4.7501225,0.24422224,0.12699556,11.335900577783358,4.758091696042235,fall
10/07/2020, 21:11:51,-2.754139,-10.183853,-2.8139594,4.7501225,0.24422224,0.12699556,10.918539901748026,4.758091696042235,fall
10/07/2020, 21:11:51,-2.754139,-10.183853,-2.8139594,4.8172836,0.31260446,0.12577444,10.918539901748026,4.82905397905373,fall
10/07/2020, 21:11:51,-3.0723844,-9.707682,-2.6871397,4.8172836,0.31260446,0.12577444,10.53087597521634,4.82905397905373,fall
10/07/2020, 21:11:51,-3.0723844,-9.707682,-2.6871397,4.7879767,0.28329778,0.10013112,10.53087597521634,4.797395663381883,fall
10/07/2020, 21:11:51,-3.3523445,-9.38465,-2.469393,4.7879767,0.28329778,0.10013112,10.266828894191354,4.797395663381883,fall
10/07/2020, 21:11:51,-3.3523445,-9.38465,-2.469393,4.680519,0.20148334,0.06227667,10.266828894191354,4.685267655358813,fall
10/07/2020, 21:11:51,-3.6251264,-9.312865,-2.009971,4.680519,0.20148334,0.06227667,10.193673698515083,4.685267655358813,fall
10/07/2020, 21:11:51,-3.6251264,-9.312865,-2.009971,4.5730615,0.12211112,-0.0024422223,10.193673698515083,4.574692149611056,fall
10/07/2020, 21:11:51,-3.7615173,-9.564112,-1.4644074,4.5730615,0.12211112,-0.0024422223,10.381027610539766,4.574692149611056,fall
10/07/2020, 21:11:51,-3.7615173,-9.564112,-1.4644074,4.5437546,0.07570889,-0.12211112,10.381027610539766,4.546025585393485,fall
10/07/2020, 21:11:51,-3.8524444,-10.164711,-0.83030945,4.5437546,0.07570889,-0.12211112,10.901930627287005,4.546025585393485,fall
10/07/2020, 21:11:51,-3.8524444,-10.164711,-0.83030945,4.723258,0.015874445,-0.31993112,10.901930627287005,4.734107542992926,fall
10/07/2020, 21:11:51,-3.926622,-10.975878,-0.2727818,4.723258,0.015874445,-0.31993112,11.660302834928629,4.734107542992926,fall
10/07/2020, 21:11:51,-3.926622,-10.975878,-0.2727818,5.210481,-0.05006556,-0.5678167,11.660302834928629,5.241568117100681,fall
10/07/2020, 21:11:51,-3.9026937,-11.832508,0.2440679,5.210481,-0.05006556,-0.5678167,12.461895332188975,5.241568117100681,fall
10/07/2020, 21:11:51,-3.9026937,-11.832508,0.2440679,6.007867,0.0012211112,-0.79128003,12.461895332188975,6.059751626890728,fall
10/07/2020, 21:11:52,6.235696,0.47138608,8.001599,-0.22224224,-0.5800278,-0.123332225,10.15537783513767,0.6332730214027276,fall
10/07/2020, 21:11:52,6.1734824,0.5312066,8.145168,-0.22224224,-0.5800278,-0.123332225,10.234150298583588,0.6332730214027276,fall
10/07/2020, 21:11:52,6.1734824,0.5312066,8.145168,-0.30405667,-0.6105556,-0.08669889,10.234150298583588,0.6875647505029331,fall
10/07/2020, 21:11:52,6.111269,0.567099,8.260024,-0.30405667,-0.6105556,-0.08669889,10.290636892481281,0.6875647505029331,fall
10/07/2020, 21:11:52,6.111269,0.567099,8.260024,-0.39564002,-0.67039,-0.070824444,10.290636892481281,0.7816456289151655,fall
10/07/2020, 21:11:52,6.0634127,0.57188463,8.346166,-0.39564002,-0.67039,-0.070824444,10.33201366478749,0.7816456289151655,fall
10/07/2020, 21:11:52,6.0634127,0.57188463,8.346166,-0.47501224,-0.73633003,-0.07448778,10.33201366478749,0.8794128593335532,fall
10/07/2020, 21:11:52,6.094519,0.45702913,8.429914,-0.47501224,-0.73633003,-0.07448778,10.412276273902524,0.8794128593335532,fall
10/07/2020, 21:11:52,6.094519,0.45702913,8.429914,-0.5018767,-0.78761667,-0.08425667,10.412276273902524,0.9377203419102446,fall
10/07/2020, 21:11:52,6.1998034,0.26799613,8.475378,-0.5018767,-0.78761667,-0.08425667,10.504352259726515,0.9377203419102446,fall
10/07/2020, 21:11:52,6.1998034,0.26799613,8.475378,-0.4371578,-0.81448114,-0.09768889,10.504352259726515,0.9295319231313132,fall
10/07/2020, 21:11:52,6.393622,0.06699903,8.504091,-0.4371578,-0.81448114,-0.09768889,10.639664390964143,0.9295319231313132,fall
10/07/2020, 21:11:52,6.393622,0.06699903,8.504091,-0.28574002,-0.80471224,-0.09768889,10.639664390964143,0.8595069865332309,fall
10/07/2020, 21:11:52,6.5443697,-0.15792629,8.549556,-0.28574002,-0.80471224,-0.09768889,10.767944068469381,0.8595069865332309,fall
10/07/2020, 21:11:52,6.5443697,-0.15792629,8.549556,-0.117226675,-0.75831,-0.08303556,10.767944068469381,0.7717973074086915,fall
10/07/2020, 21:11:52,6.6759753,-0.22013968,8.504091,-0.117226675,-0.75831,-0.08303556,10.813726286329732,0.7717973074086915,fall
10/07/2020, 21:11:52,6.6759753,-0.22013968,8.504091,0.018316668,-0.7021389,-0.048844445,10.813726286329732,0.7040740842561958,fall
10/07/2020, 21:11:52,6.7764735,-0.11006984,8.327023,0.018316668,-0.7021389,-0.048844445,10.736480492065484,0.7040740842561958,fall
10/07/2020, 21:11:52,6.7764735,-0.11006984,8.327023,0.08792,-0.6801589,-0.012211111,10.736480492065484,0.6859265159058877,fall
10/07/2020, 21:11:52,6.7812595,0.076570325,8.087741,0.08792,-0.6801589,-0.012211111,10.554757067531288,0.6859265159058877,fall
10/07/2020, 21:11:53,7.436893,0.050249275,5.1996036,-0.4823389,0.43349445,-0.10867889,9.074457528432784,0.6575555932707103,fall
10/07/2020, 21:11:53,7.3340015,0.07178468,5.252246,-0.4823389,0.43349445,-0.10867889,9.021020932898965,0.6575555932707103,fall
10/07/2020, 21:11:53,7.3340015,0.07178468,5.252246,-0.47257003,0.4261678,-0.064718895,9.021020932898965,0.6396326698082152,fall
10/07/2020, 21:11:53,7.176075,0.11724831,5.3910294,-0.47257003,0.4261678,-0.064718895,8.976246255939095,0.6396326698082152,fall
10/07/2020, 21:11:53,7.176075,0.11724831,5.3910294,-0.47501224,0.4383789,-0.046402223,8.976246255939095,0.6480477276871743,fall
10/07/2020, 21:11:53,6.977471,0.19381863,5.465207,-0.47501224,0.4383789,-0.046402223,8.865165205133733,0.6480477276871743,fall
10/07/2020, 21:11:53,6.977471,0.19381863,5.465207,-0.51653004,0.45059,-0.05617111,8.865165205133733,0.6877425637349225,fall
10/07/2020, 21:11:53,6.762117,0.32303107,5.304888,-0.51653004,0.45059,-0.05617111,8.600721390179139,0.6877425637349225,fall
10/07/2020, 21:11:53,6.762117,0.32303107,5.304888,-0.61544,0.42006224,-0.102573335,8.600721390179139,0.7521568885814041,fall
10/07/2020, 21:11:53,6.611369,0.44506502,5.0344987,-0.61544,0.42006224,-0.102573335,8.321926565490156,0.7521568885814041,fall
10/07/2020, 21:11:53,6.611369,0.44506502,5.0344987,-0.78029,0.36511225,-0.15141778,8.321926565490156,0.874692397720665,fall
10/07/2020, 21:11:53,6.573084,0.5383851,4.7952166,-0.78029,0.36511225,-0.15141778,8.154102772890766,0.874692397720665,fall
10/07/2020, 21:11:53,6.573084,0.5383851,4.7952166,-0.97566783,0.3174889,-0.17584,8.154102772890766,1.0409834953058832,fall
10/07/2020, 21:11:53,6.6855464,0.54317075,4.644469,-0.97566783,0.3174889,-0.17584,8.158593959404644,1.0409834953058832,fall
10/07/2020, 21:11:53,6.6855464,0.54317075,4.644469,-1.1783723,0.31504667,-0.14897557,8.158593959404644,1.228824362825498,fall
10/07/2020, 21:11:53,6.800402,0.43788654,4.5918264,-1.1783723,0.31504667,-0.14897557,8.217182258044065,1.228824362825498,fall
10/07/2020, 21:11:53,6.800402,0.43788654,4.5918264,-1.3615389,0.34557447,-0.06349778,8.217182258044065,1.4061443106445788,fall
10/07/2020, 21:11:53,6.786045,0.29192436,4.6229334,-1.3615389,0.34557447,-0.06349778,8.216272919683606,1.4061443106445788,fall
10/07/2020, 21:11:53,6.786045,0.29192436,4.6229334,-1.51662,0.37366003,0.04151778,8.216272919683606,1.562524203988578,fall
10/07/2020, 21:11:53,6.6161547,0.17228323,4.642076,-1.51662,0.37366003,0.04151778,8.084061718737306,1.562524203988578,fall
10/07/2020, 21:11:54,2.565106,-7.623533,6.1495543,0.085477784,0.04396,-0.12821667,10.124971001846582,0.16024496098423063,fall
10/07/2020, 21:11:54,2.565106,-7.623533,6.1495543,0.16118668,0.10745778,-0.089141116,10.124971001846582,0.21324741193357452,fall
10/07/2020, 21:11:54,2.8259234,-7.1856465,6.1710896,0.16118668,0.10745778,-0.089141116,9.884417376576287,0.21324741193357452,fall
10/07/2020, 21:11:54,2.8259234,-7.1856465,6.1710896,0.16607112,0.16729222,0.0048844446,9.884417376576287,0.23577565893238728,fall
10/07/2020, 21:11:54,2.8905299,-6.8051877,6.3744793,0.16607112,0.16729222,0.0048844446,9.762158002426345,0.23577565893238728,fall
10/07/2020, 21:11:54,2.8905299,-6.8051877,6.3744793,0.091583334,0.19171445,0.09524667,9.762158002426345,0.23283871308448037,fall
10/07/2020, 21:11:54,2.7565317,-6.6735826,6.640083,0.091583334,0.19171445,0.09524667,9.809478644257716,0.23283871308448037,fall
10/07/2020, 21:11:54,2.7565317,-6.6735826,6.640083,-0.04029667,0.15996556,0.12699556,9.809478644257716,0.20818423355898666,fall
10/07/2020, 21:11:54,2.481357,-6.6568327,6.7740808,-0.04029667,0.15996556,0.12699556,9.816247991358178,0.20818423355898666,fall
10/07/2020, 21:11:54,2.481357,-6.6568327,6.7740808,-0.17095557,0.081814446,0.08059334,9.816247991358178,0.20594828571449694,fall
10/07/2020, 21:11:54,2.2229323,-6.7764735,6.829116,-0.17095557,0.081814446,0.08059334,9.874150348901033,0.20594828571449694,fall
10/07/2020, 21:11:54,2.2229323,-6.7764735,6.829116,-0.26009667,-0.012211111,-0.01099,9.874150348901033,0.26061498167922187,fall
10/07/2020, 21:11:54,2.1391835,-7.0085773,6.814759,-0.26009667,-0.012211111,-0.01099,10.006857636686266,0.26061498167922187,fall
10/07/2020, 21:11:54,2.1391835,-7.0085773,6.814759,-0.30039334,-0.08669889,-0.09402556,10.006857636686266,0.32648685098161756,fall
10/07/2020, 21:11:54,2.2181466,-7.24786,6.719046,-0.30039334,-0.08669889,-0.09402556,10.129029015913288,0.32648685098161756,fall
10/07/2020, 21:11:54,2.2181466,-7.24786,6.719046,-0.2869611,-0.12211112,-0.14287001,10.129029015913288,0.343030090051459,fall
10/07/2020, 21:11:54,2.3952155,-7.3627152,6.539584,-0.2869611,-0.12211112,-0.14287001,10.13473206838742,0.343030090051459,fall
10/07/2020, 21:11:54,2.3952155,-7.3627152,6.539584,-0.23323223,-0.109900005,-0.13798556,10.13473206838742,0.29242998862869407,fall
10/07/2020, 21:11:54,2.6153553,-7.3196445,6.2548385,-0.23323223,-0.109900005,-0.13798556,9.976987633323041,0.29242998862869407,fall
10/07/2020, 21:11:54,2.6153553,-7.3196445,6.2548385,-0.15019667,-0.06227667,-0.09646778,9.976987633323041,0.1890593975898874,fall
10/07/2020, 21:11:55,-1.6965113,-4.6899323,8.788837,-0.6655056,0.7338878,0.3382478,10.105309461817006,1.0468526909705191,fall
10/07/2020, 21:11:55,-0.8805587,-4.15394,8.19781,-0.6655056,0.7338878,0.3382478,9.232263779837568,1.0468526909705191,fall
10/07/2020, 21:11:55,-0.8805587,-4.15394,8.19781,-0.7387723,0.93415004,0.4701278,9.232263779837568,1.2804065405121223,fall
10/07/2020, 21:11:55,-0.17228323,-4.074977,8.190632,-0.7387723,0.93415004,0.4701278,9.149949114133808,1.2804065405121223,fall
10/07/2020, 21:11:55,-0.17228323,-4.074977,8.190632,-0.8266923,1.2162267,0.67283225,9.149949114133808,1.6171984253283032,fall
10/07/2020, 21:11:55,0.016749758,-4.682754,8.427522,-0.8266923,1.2162267,0.67283225,9.641140391579915,1.6171984253283032,fall
10/07/2020, 21:11:55,0.016749758,-4.682754,8.427522,-0.84745115,1.4628912,0.8584412,9.641140391579915,1.8960868720153479,fall
10/07/2020, 21:11:55,-0.23928227,-5.625526,8.927621,-0.84745115,1.4628912,0.8584412,10.554914161077052,1.8960868720153479,fall
10/07/2020, 21:11:55,-0.23928227,-5.625526,8.927621,-0.7851745,1.6668167,0.9744467,10.554914161077052,2.084304038756389,fall
10/07/2020, 21:11:55,-0.9164511,-7.018149,10.090533,-0.7851745,1.6668167,0.9744467,12.325305593904272,2.084304038756389,fall
10/07/2020, 21:11:55,-0.9164511,-7.018149,10.090533,-0.80104893,1.74741,1.0074167,12.325305593904272,2.1702556917875464,fall
10/07/2020, 21:11:55,-1.8185452,-8.2049885,10.9352,-0.80104893,1.74741,1.0074167,13.791574818568646,2.1702556917875464,fall
10/07/2020, 21:11:55,-1.8185452,-8.2049885,10.9352,-0.6984756,1.6765857,0.94880337,13.791574818568646,2.0491548286782892,fall
10/07/2020, 21:11:55,-2.589034,-8.841479,11.038091,-0.6984756,1.6765857,0.94880337,14.37756238515703,2.0491548286782892,fall
10/07/2020, 21:11:55,-2.589034,-8.841479,11.038091,-0.4163989,1.5556957,0.8303556,14.37756238515703,1.8119236783118944,fall
10/07/2020, 21:11:55,-3.0053852,-8.874979,10.049855,-0.4163989,1.5556957,0.8303556,13.740348712540255,1.8119236783118944,fall
10/07/2020, 21:11:55,-3.0053852,-8.874979,10.049855,0.08669889,1.50563,0.75953114,13.740348712540255,1.6885869822643134,fall
10/07/2020, 21:11:55,-2.9096723,-8.571091,9.300901,0.08669889,1.50563,0.75953114,12.9783109653543,1.6885869822643134,fall
10/07/2020, 21:11:55,-2.9096723,-8.571091,9.300901,0.6520734,1.6619323,0.88286334,12.9783109653543,1.9916491941544612,fall
10/07/2020, 21:11:55,-2.7708886,-8.650054,9.442079,0.6520734,1.6619323,0.88286334,13.101683303280518,1.9916491941544612,fall
10/07/2020, 21:11:56,1.8065811,0.45702913,8.420342,-0.048844445,-1.1246433,0.06227667,8.624081280956613,1.1274248416713837,fall
10/07/2020, 21:11:56,1.8065811,0.45702913,8.420342,-0.06105556,-1.12098,0.05372889,8.624081280956613,1.1239265055669352,fall
10/07/2020, 21:11:56,1.9477576,0.41156548,8.422736,-0.06105556,-1.12098,0.05372889,8.654803890082668,1.1239265055669352,fall
10/07/2020, 21:11:56,1.9477576,0.41156548,8.422736,-0.048844445,-1.1038845,0.051286668,8.654803890082668,1.1061541483618729,fall
10/07/2020, 21:11:56,2.0458634,0.3493521,8.420342,-0.048844445,-1.1038845,0.051286668,8.67235670343679,1.1061541483618729,fall
10/07/2020, 21:11:56,2.0458634,0.3493521,8.420342,-0.023201112,-1.0696933,0.05372889,8.67235670343679,1.071293096632018,fall
10/07/2020, 21:11:56,2.1008983,0.32303107,8.410771,-0.023201112,-1.0696933,0.05372889,8.675205912916518,1.071293096632018,fall
10/07/2020, 21:11:56,2.1008983,0.32303107,8.410771,-0.007326667,-1.0391656,0.05617111,8.675205912916518,1.0407084372672368,fall
10/07/2020, 21:11:56,2.2037897,0.3924229,8.372486,-0.007326667,-1.0391656,0.05617111,8.666556904080167,1.0407084372672368,fall
10/07/2020, 21:11:56,2.2037897,0.3924229,8.372486,-0.0024422223,-1.0184067,0.04396,8.666556904080167,1.0193580097833972,fall
10/07/2020, 21:11:56,2.2779672,0.4642076,8.329415,-0.0024422223,-1.0184067,0.04396,8.647761728478047,1.0193580097833972,fall
10/07/2020, 21:11:56,2.2779672,0.4642076,8.329415,-0.023201112,-1.0147433,0.023201112,8.647761728478047,1.0152736601926002,fall
10/07/2020, 21:11:56,2.37368,0.55034924,8.300702,-0.023201112,-1.0147433,0.023201112,8.650947742222172,1.0152736601926002,fall
10/07/2020, 21:11:56,2.37368,0.55034924,8.300702,-0.057392225,-1.01108,0.0012211112,8.650947742222172,1.0127083384707543,fall
10/07/2020, 21:11:56,2.440679,0.5623133,8.298309,-0.057392225,-1.01108,0.0012211112,8.66804754715412,1.0127083384707543,fall
10/07/2020, 21:11:56,2.440679,0.5623133,8.298309,-0.08669889,-1.0025322,-0.024422223,8.66804754715412,1.0065704357671017,fall
10/07/2020, 21:11:56,2.5435705,0.5623133,8.32463,-0.08669889,-1.0025322,-0.024422223,8.722695012720559,1.0065704357671017,fall
10/07/2020, 21:11:56,2.5435705,0.5623133,8.32463,-0.106236674,-0.99398446,-0.054950003,8.722695012720559,1.0011547542892916,fall
10/07/2020, 21:11:56,2.6656044,0.5838487,8.336594,-0.106236674,-0.99398446,-0.054950003,8.771836706500887,1.0011547542892916,fall
10/07/2020, 21:11:56,2.6656044,0.5838487,8.336594,-0.12699556,-0.9866578,-0.08059334,8.771836706500887,0.9980564966702736,fall
10/07/2020, 21:11:57,7.3292155,0.19142582,6.4797635,-0.07570889,0.11844778,-0.25399113,9.784752382936508,0.29029847592897473,fall
10/07/2020, 21:11:57,7.3292155,0.19142582,6.4797635,-0.047623336,0.13554333,-0.24055889,9.784752382936508,0.2801937858558568,fall
10/07/2020, 21:11:57,7.3363943,0.31106696,6.474978,-0.047623336,0.13554333,-0.24055889,9.790034925169753,0.2801937858558568,fall
10/07/2020, 21:11:57,7.3363943,0.31106696,6.474978,-0.047623336,0.14042778,-0.23079,9.790034925169753,0.27432092600692326,fall
10/07/2020, 21:11:57,7.331609,0.39960137,6.4773707,-0.047623336,0.14042778,-0.23079,9.791246097150209,0.27432092600692326,fall
10/07/2020, 21:11:57,7.331609,0.39960137,6.4773707,-0.08425667,0.14409111,-0.21491556,9.791246097150209,0.2721215413914873,fall
10/07/2020, 21:11:57,7.2909307,0.38763726,6.458228,-0.08425667,0.14409111,-0.21491556,9.747648134424368,0.2721215413914873,fall
10/07/2020, 21:11:57,7.2909307,0.38763726,6.458228,-0.12455334,0.1526389,-0.21491556,9.747648134424368,0.2915490769474901,fall
10/07/2020, 21:11:57,7.2502527,0.3493521,6.3696938,-0.12455334,0.1526389,-0.21491556,9.657184371639858,0.2915490769474901,fall
10/07/2020, 21:11:57,7.2502527,0.3493521,6.3696938,-0.13920668,0.15019667,-0.22224224,9.657184371639858,0.30220713220930323,fall
10/07/2020, 21:11:57,7.2215385,0.30388847,6.352944,-0.13920668,0.15019667,-0.22224224,9.623038153405226,0.30220713220930323,fall
10/07/2020, 21:11:57,7.2215385,0.30388847,6.352944,-0.1306589,0.16240779,-0.23323223,9.623038153405226,0.3128023476766437,fall
10/07/2020, 21:11:57,7.2789664,0.23688944,6.4031935,-0.1306589,0.16240779,-0.23323223,9.69744066811475,0.3128023476766437,fall
10/07/2020, 21:11:57,7.2789664,0.23688944,6.4031935,-0.10501556,0.20026223,-0.22468445,9.69744066811475,0.31877316544457884,fall
10/07/2020, 21:11:57,7.3100734,0.20817557,6.4127645,-0.10501556,0.20026223,-0.22468445,9.72646179194585,0.31877316544457884,fall
10/07/2020, 21:11:57,7.3100734,0.20817557,6.4127645,-0.091583334,0.2503278,-0.19904111,9.72646179194585,0.33266932100623636,fall
10/07/2020, 21:11:57,7.381858,0.26799613,6.4534426,-0.091583334,0.2503278,-0.19904111,9.808698620081374,0.33266932100623636,fall
10/07/2020, 21:11:57,7.381858,0.26799613,6.4534426,-0.098910004,0.27475002,-0.18072446,9.808698620081374,0.3434124254126498,fall
10/07/2020, 21:11:57,7.475178,0.35653058,6.5252275,-0.098910004,0.27475002,-0.18072446,9.928947134774532,0.3434124254126498,fall
10/07/2020, 21:11:57,7.475178,0.35653058,6.5252275,-0.12699556,0.2845189,-0.17217667,9.928947134774532,0.3559827008110029,fall
10/07/2020, 21:11:58,-11.810972,-4.5726843,8.8701935,0.25643334,7.7418447,5.2690945,15.462497813422123,9.368312185695265,fall
10/07/2020, 21:11:58,-11.997613,-4.895715,8.293523,0.25643334,7.7418447,5.2690945,15.384838811763382,9.368312185695265,fall
10/07/2020, 21:11:58,-11.997613,-4.895715,8.293523,0.7900589,8.279134,5.3557935,15.384838811763382,9.89205606862498,fall
10/07/2020, 21:11:58,-12.918849,-5.501099,8.152347,0.7900589,8.279134,5.3557935,16.236363692122953,9.89205606862498,fall
10/07/2020, 21:11:58,-12.918849,-5.501099,8.152347,2.5545645,2.7169724,2.8000078,16.236363692122953,4.663451748586667,fall
10/07/2020, 21:11:58,-16.05584,-11.423335,25.146173,2.5545645,2.7169724,2.8000078,31.94702815719931,4.663451748586667,fall
10/07/2020, 21:11:58,-16.05584,-11.423335,25.146173,3.0820847,-0.05250778,0.31504667,31.94702815719931,3.098589565487038,fall
10/07/2020, 21:11:58,-14.517255,-44.82714,51.78786,3.0820847,-0.05250778,0.31504667,70.01575375827608,3.098589565487038,fall
10/07/2020, 21:11:58,-14.517255,-44.82714,51.78786,3.03324,-0.7863956,-2.13206,70.01575375827608,3.7900717008464873,fall
10/07/2020, 21:11:58,-16.905293,-61.52904,65.1111,3.03324,-0.7863956,-2.13206,91.16505405930798,3.7900717008464873,fall
10/07/2020, 21:11:58,-16.905293,-61.52904,65.1111,4.741575,-0.5971234,-3.4239957,91.16505405930798,5.879016445177428,fall
10/07/2020, 21:11:58,-13.849657,-38.043488,51.840504,4.741575,-0.5971234,-3.4239957,65.77657461913888,5.879016445177428,fall
10/07/2020, 21:11:58,-13.849657,-38.043488,51.840504,4.4240856,-2.3897145,-2.4556546,65.77657461913888,5.595847429893886,fall
10/07/2020, 21:11:58,-14.761323,-17.931812,25.04089,4.4240856,-2.3897145,-2.4556546,34.15395594687613,5.595847429893886,fall
10/07/2020, 21:11:58,-14.761323,-17.931812,25.04089,0.8303556,-4.7305846,-1.1734878,34.15395594687613,4.9441879852047155,fall
10/07/2020, 21:11:58,-13.524234,6.1471615,-3.6083765,0.8303556,-4.7305846,-1.1734878,15.287670707475877,4.9441879852047155,fall
10/07/2020, 21:11:58,-13.524234,6.1471615,-3.6083765,-3.0161445,-6.5707994,-0.7485411,15.287670707475877,7.26862061473263,fall
10/07/2020, 21:11:58,-4.1180477,26.72065,-17.680567,-3.0161445,-6.5707994,-0.7485411,32.30408457656631,7.26862061473263,fall
10/07/2020, 21:11:58,-4.1180477,26.72065,-17.680567,-9.030117,-6.2923856,-2.5081623,32.30408457656631,11.288401474573641,fall
10/07/2020, 21:11:58,3.493521,26.282764,-22.478176,-9.030117,-6.2923856,-2.5081623,34.75998844481718,11.288401474573641,fall
10/07/2020, 21:11:59,1.2610176,-6.1160545,7.5661054,-0.017095556,-0.034191113,-0.014653334,9.81031287822894,0.04093910680665245,fall
10/07/2020, 21:11:59,1.2610176,-6.1160545,7.5661054,-0.009768889,-0.048844445,-0.026864445,9.81031287822894,0.05659425280152777,fall
10/07/2020, 21:11:59,1.2394822,-6.1447687,7.501499,-0.009768889,-0.048844445,-0.026864445,9.77583697099157,0.05659425280152777,fall
10/07/2020, 21:11:59,1.2394822,-6.1447687,7.501499,0.015874445,-0.05250778,-0.039075557,9.77583697099157,0.067349567156745,fall
10/07/2020, 21:11:59,1.2490535,-6.151947,7.472785,0.015874445,-0.05250778,-0.039075557,9.759564659532105,0.067349567156745,fall
10/07/2020, 21:11:59,1.2490535,-6.151947,7.472785,0.035412222,-0.042738892,-0.042738892,9.759564659532105,0.07005177570736915,fall
10/07/2020, 21:11:59,1.2969099,-6.1447687,7.4536424,0.035412222,-0.042738892,-0.042738892,9.746637495906853,0.07005177570736915,fall
10/07/2020, 21:11:59,1.2969099,-6.1447687,7.4536424,0.05250778,-0.035412222,-0.039075557,9.746637495906853,0.07441768375602847,fall
10/07/2020, 21:11:59,1.3399807,-6.0753765,7.4033933,0.05250778,-0.035412222,-0.039075557,9.670366072132355,0.07441768375602847,fall
10/07/2020, 21:11:59,1.3399807,-6.0753765,7.4033933,0.07204556,-0.024422223,-0.025643334,9.670366072132355,0.08027819034062081,fall
10/07/2020, 21:11:59,1.3806586,-6.053841,7.432107,0.07204556,-0.024422223,-0.025643334,9.684597282105923,0.08027819034062081,fall
10/07/2020, 21:11:59,1.3806586,-6.053841,7.432107,0.07693,-0.01099,-0.012211111,9.684597282105923,0.07866458199388579,fall
10/07/2020, 21:11:59,1.3854443,-6.0227346,7.4775705,0.07693,-0.01099,-0.012211111,9.700868492984485,0.07866458199388579,fall
10/07/2020, 21:11:59,1.3854443,-6.0227346,7.4775705,0.068382226,-0.0048844446,-0.008547778,9.700868492984485,0.06908727187816721,fall
10/07/2020, 21:11:59,1.3208381,-5.9844494,7.5230346,0.068382226,-0.0048844446,-0.008547778,9.703313707760527,0.06908727187816721,fall
10/07/2020, 21:11:59,1.3208381,-5.9844494,7.5230346,0.05006556,-0.014653334,-0.008547778,9.703313707760527,0.05286156316271434,fall
10/07/2020, 21:11:59,1.2801601,-6.017949,7.578069,0.05006556,-0.014653334,-0.008547778,9.761232205918182,0.05286156316271434,fall
10/07/2020, 21:11:59,1.2801601,-6.017949,7.578069,0.03297,-0.018316668,-0.012211111,9.761232205918182,0.039643819873191204,fall
10/07/2020, 21:11:59,1.2801601,-6.017949,7.5732837,0.03297,-0.018316668,-0.012211111,9.75751745102876,0.039643819873191204,fall
10/07/2020, 21:11:59,1.2610176,-6.0083776,7.6019974,0.03297,-0.018316668,-0.012211111,9.771444631872253,0.039643819873191204,fall
10/07/2020, 21:12:00,-1.5146568,-3.6179478,9.6071825,1.0013112,-1.9818634,-0.38953447,10.37697871320138,2.2543610283297704,fall
10/07/2020, 21:12:00,-1.5146568,-3.6179478,9.6071825,0.9720045,-1.954999,-0.35656446,10.37697871320138,2.2122278102531427,fall
10/07/2020, 21:12:00,-1.4763715,-3.414558,9.365508,0.9720045,-1.954999,-0.35656446,10.077282389411856,2.2122278102531427,fall
10/07/2020, 21:12:00,-1.4763715,-3.414558,9.365508,0.8950745,-1.9464512,-0.33214223,10.077282389411856,2.1679827084642245,fall
10/07/2020, 21:12:00,-1.416551,-3.2279177,9.068798,0.8950745,-1.9464512,-0.33214223,9.729808197367285,2.1679827084642245,fall
10/07/2020, 21:12:00,-1.416551,-3.2279177,9.068798,0.79250115,-1.9488934,-0.32359445,9.729808197367285,2.128604481115508,fall
10/07/2020, 21:12:00,-1.3256238,-3.0699914,8.743374,0.79250115,-1.9488934,-0.32359445,9.36102087723252,2.128604481115508,fall
10/07/2020, 21:12:00,-1.3256238,-3.0699914,8.743374,0.69114894,-1.9537779,-0.34435335,9.36102087723252,2.1008365476269297,fall
10/07/2020, 21:12:00,-1.2059826,-2.9671001,8.463413,0.69114894,-1.9537779,-0.34435335,9.049167964868968,2.1008365476269297,fall
10/07/2020, 21:12:00,-1.2059826,-2.9671001,8.463413,0.59956557,-1.9537779,-0.3834289,9.049167964868968,2.0793616108501958,fall
10/07/2020, 21:12:00,-1.0097711,-2.9048867,8.219346,0.59956557,-1.9537779,-0.3834289,8.775856311153198,2.0793616108501958,fall
10/07/2020, 21:12:00,-1.0097711,-2.9048867,8.219346,0.51775116,-1.9317979,-0.4273889,8.775856311153198,2.0451333741548825,fall
10/07/2020, 21:12:00,-0.76331043,-2.845066,7.989635,0.51775116,-1.9317979,-0.4273889,8.515357364584736,2.0451333741548825,fall
10/07/2020, 21:12:00,-0.76331043,-2.845066,7.989635,0.46158,-1.8902801,-0.46768558,8.515357364584736,2.0012358348099157,fall
10/07/2020, 21:12:00,-0.46899325,-2.8283165,7.7503524,0.46158,-1.8902801,-0.46768558,8.263612446305219,2.0012358348099157,fall
10/07/2020, 21:12:00,-0.46899325,-2.8283165,7.7503524,0.43471557,-1.84632,-0.48966557,8.263612446305219,1.95899149024142,fall
10/07/2020, 21:12:00,-0.16510476,-2.7684958,7.5828547,0.43471557,-1.84632,-0.48966557,8.074126249465772,1.95899149024142,fall
10/07/2020, 21:12:00,-0.16510476,-2.7684958,7.5828547,0.42861003,-1.7767167,-0.49699223,8.074126249465772,1.894051239202465,fall
10/07/2020, 21:12:00,0.1052842,-2.7182465,7.475178,0.42861003,-1.7767167,-0.49699223,7.954761542398277,1.894051239202465,fall
10/07/2020, 21:12:00,0.1052842,-2.7182465,7.475178,0.4371578,-1.7071134,-0.4933289,7.954761542398277,1.8299498526665106,fall
10/07/2020, 21:12:01,7.4153576,1.0648061,5.2929235,-0.17584,-0.034191113,-0.10379445,9.172588450076029,0.20703146406750006,fall
10/07/2020, 21:12:01,7.3746796,1.0217353,5.400601,-0.17584,-0.034191113,-0.10379445,9.197626429069093,0.20703146406750006,fall
10/07/2020, 21:12:01,7.3746796,1.0217353,5.400601,-0.11356334,0.025643334,-0.109900005,9.197626429069093,0.160100665470577,fall
10/07/2020, 21:12:01,7.312466,0.9595219,5.639883,-0.11356334,0.025643334,-0.109900005,9.284456047212254,0.160100665470577,fall
10/07/2020, 21:12:01,7.312466,0.9595219,5.639883,-0.068382226,0.059834447,-0.10745778,9.284456047212254,0.1407247816998023,fall
10/07/2020, 21:12:01,7.1856465,0.8446664,5.773881,-0.068382226,0.059834447,-0.10745778,9.256601903406587,0.1407247816998023,fall
10/07/2020, 21:12:01,7.1856465,0.8446664,5.773881,-0.035412222,0.11356334,-0.09402556,9.256601903406587,0.1516293597567605,fall
10/07/2020, 21:12:01,7.0612197,0.8135597,5.8217373,-0.035412222,0.11356334,-0.09402556,9.18778145214576,0.1516293597567605,fall
10/07/2020, 21:12:01,7.0612197,0.8135597,5.8217373,-0.039075557,0.13432223,-0.08425667,9.18778145214576,0.1633050710987043,fall
10/07/2020, 21:12:01,6.9152575,0.8350951,5.771488,-0.039075557,0.13432223,-0.08425667,9.045896606553313,0.1633050710987043,fall
10/07/2020, 21:12:01,6.9152575,0.8350951,5.771488,-0.085477784,0.12699556,-0.07693,9.045896606553313,0.17132585872320877,fall
10/07/2020, 21:12:01,6.7764735,0.85902333,5.623133,-0.085477784,0.12699556,-0.07693,8.847493502187874,0.17132585872320877,fall
10/07/2020, 21:12:01,6.7764735,0.85902333,5.623133,-0.16240779,0.11600556,-0.070824444,8.847493502187874,0.21177743322314344,fall
10/07/2020, 21:12:01,6.661618,0.9068798,5.4963136,-0.16240779,0.11600556,-0.070824444,8.68383851184546,0.21177743322314344,fall
10/07/2020, 21:12:01,6.661618,0.9068798,5.4963136,-0.25399113,0.07570889,-0.06105556,8.68383851184546,0.2719763036763658,fall
10/07/2020, 21:12:01,6.582655,0.93320084,5.3383875,-0.25399113,0.07570889,-0.06105556,8.526464156792082,0.2719763036763658,fall
10/07/2020, 21:12:01,6.582655,0.93320084,5.3383875,-0.30772,0.08792,-0.058613338,8.526464156792082,0.32535680721077387,fall
10/07/2020, 21:12:01,6.5108705,0.98584294,5.2139606,-0.30772,0.08792,-0.058613338,8.39932771399329,0.32535680721077387,fall
10/07/2020, 21:12:01,6.5108705,0.98584294,5.2139606,-0.34191114,0.10013112,-0.070824444,8.39932771399329,0.3632431253835834,fall
10/07/2020, 21:12:01,6.518049,1.012164,5.0847483,-0.34191114,0.10013112,-0.070824444,8.328511306762227,0.3632431253835834,fall
10/07/2020, 21:12:02,2.9862428,-2.806781,3.751946,1.8585312,1.18692,0.13310112,5.556326515864116,2.209215576491303,fall
10/07/2020, 21:12:02,2.1008983,-1.0145568,5.003392,1.8585312,1.18692,0.13310112,5.520600751415363,2.209215576491303,fall
10/07/2020, 21:12:02,2.1008983,-1.0145568,5.003392,1.0171856,0.80227005,0.36511225,5.520600751415363,1.3459608737850297,fall
10/07/2020, 21:12:02,2.210968,-2.1248264,6.209375,1.0171856,0.80227005,0.36511225,6.925287260762287,1.3459608737850297,fall
10/07/2020, 21:12:02,2.210968,-2.1248264,6.209375,0.53484666,0.58613336,0.62154555,6.925287260762287,1.0079345935419175,fall
10/07/2020, 21:12:02,2.4047868,-4.634897,7.353144,0.53484666,0.58613336,0.62154555,9.018536532843058,1.0079345935419175,fall
10/07/2020, 21:12:02,2.4047868,-4.634897,7.353144,0.31260446,0.5458367,0.63742,9.018536532843058,0.8955241427614228,fall
10/07/2020, 21:12:02,2.361716,-6.8506513,7.9657063,0.31260446,0.5458367,0.63742,10.768546930238177,0.8955241427614228,fall
10/07/2020, 21:12:02,2.361716,-6.8506513,7.9657063,0.3602278,0.55316335,0.43105224,10.768546930238177,0.7883906304733834,fall
10/07/2020, 21:12:02,2.2325034,-8.042277,7.948957,0.3602278,0.55316335,0.43105224,11.525979919250686,0.7883906304733834,fall
10/07/2020, 21:12:02,2.2325034,-8.042277,7.948957,0.5788067,0.5372889,0.22468445,11.525979919250686,0.8210844422681041,fall
10/07/2020, 21:12:02,2.3353949,-8.255239,7.5230346,0.5788067,0.5372889,0.22468445,11.410481215379276,0.8210844422681041,fall
10/07/2020, 21:12:02,2.3353949,-8.255239,7.5230346,0.83768225,0.5739222,0.10867889,11.410481215379276,1.0212293375507753,fall
10/07/2020, 21:12:02,2.629712,-7.7072816,7.0301127,0.83768225,0.5739222,0.10867889,10.758255455169715,1.0212293375507753,fall
10/07/2020, 21:12:02,2.629712,-7.7072816,7.0301127,1.020849,0.6691689,0.10379445,10.758255455169715,1.225027734172823,fall
10/07/2020, 21:12:02,2.7708886,-6.7740808,6.927222,1.020849,0.6691689,0.10379445,10.077320825693317,1.225027734172823,fall
10/07/2020, 21:12:02,2.7708886,-6.7740808,6.927222,1.0257334,0.74609894,0.18194556,10.077320825693317,1.281365177526707,fall
10/07/2020, 21:12:02,2.5794628,-5.8241305,7.051648,1.0257334,0.74609894,0.18194556,9.50262417148101,1.281365177526707,fall
10/07/2020, 21:12:02,2.5794628,-5.8241305,7.051648,0.8266923,0.72534,0.27963445,9.50262417148101,1.134783539991317,fall
10/07/2020, 21:12:02,2.1798615,-4.8909297,6.9702926,0.8266923,0.72534,0.27963445,8.78965119696085,1.134783539991317,fall
10/07/2020, 21:12:03,1.6438692,-6.3050876,7.288538,0.059834447,-0.15386,-0.18683001,9.776462597141478,0.249316095739137,fall
10/07/2020, 21:12:03,1.6797615,-6.367301,7.2622166,0.059834447,-0.15386,-0.18683001,9.803260178980869,0.249316095739137,fall
10/07/2020, 21:12:03,1.6797615,-6.367301,7.2622166,0.07326667,-0.15874445,-0.20392556,9.803260178980869,0.26861392882730556,fall
10/07/2020, 21:12:03,1.7635103,-6.4438715,7.283752,0.07326667,-0.15874445,-0.20392556,9.883647672160116,0.26861392882730556,fall
10/07/2020, 21:12:03,1.7635103,-6.4438715,7.283752,0.09524667,-0.15630223,-0.21125223,9.883647672160116,0.2795171173566229,fall
10/07/2020, 21:12:03,1.7946169,-6.501299,7.300502,0.09524667,-0.15630223,-0.21125223,9.939057514235934,0.2795171173566229,fall
10/07/2020, 21:12:03,1.7946169,-6.501299,7.300502,0.10745778,-0.14287001,-0.20636779,9.939057514235934,0.27303237690143434,fall
10/07/2020, 21:12:03,1.8592232,-6.506085,7.331609,0.10745778,-0.14287001,-0.20636779,9.976890259157342,0.27303237690143434,fall
10/07/2020, 21:12:03,1.8592232,-6.506085,7.331609,0.12455334,-0.13676445,-0.20270446,9.976890259157342,0.27442147710370796,fall
10/07/2020, 21:12:03,1.8640088,-6.45105,7.3435726,0.12455334,-0.13676445,-0.20270446,9.950810575296169,0.27442147710370796,fall
10/07/2020, 21:12:03,1.8640088,-6.45105,7.3435726,0.12455334,-0.13676445,-0.20514667,9.950810575296169,0.27623034875926417,fall
10/07/2020, 21:12:03,1.8687944,-6.4127645,7.3698936,0.12455334,-0.13676445,-0.20514667,9.946420098655068,0.27623034875926417,fall
10/07/2020, 21:12:03,1.8687944,-6.4127645,7.3698936,0.089141116,-0.14409111,-0.20514667,9.946420098655068,0.26607056222473013,fall
10/07/2020, 21:12:03,1.8807586,-6.32423,7.432107,0.089141116,-0.14409111,-0.20514667,9.938277248147392,0.26607056222473013,fall
10/07/2020, 21:12:03,1.8807586,-6.32423,7.432107,0.05006556,-0.15141778,-0.21491556,9.938277248147392,0.26762399123011404,fall
10/07/2020, 21:12:03,1.8448663,-6.2380886,7.487142,0.05006556,-0.15141778,-0.21491556,9.918395922251767,0.26762399123011404,fall
10/07/2020, 21:12:03,1.8448663,-6.2380886,7.487142,0.0061055557,-0.1746189,-0.23811668,9.918395922251767,0.2953448696524711,fall
10/07/2020, 21:12:03,1.7994026,-6.259624,7.515856,0.0061055557,-0.1746189,-0.23811668,9.945291881949041,0.2953448696524711,fall
10/07/2020, 21:12:03,1.7994026,-6.259624,7.515856,-0.015874445,-0.20148334,-0.2735289,9.945291881949041,0.3400964497213441,fall
10/07/2020, 21:12:03,1.7874385,-6.3385873,7.391429,-0.015874445,-0.20148334,-0.2735289,9.899790254183461,0.3400964497213441,fall
10/07/2020, 21:12:04,-3.129812,-1.2059826,8.539984,0.85722005,0.29673,-1.2675134,9.175044389976971,1.5586741561771336,fall
10/07/2020, 21:12:04,-3.3020952,-0.96909314,8.374879,0.85722005,0.29673,-1.2675134,9.054367475201056,1.5586741561771336,fall
10/07/2020, 21:12:04,-3.3020952,-0.96909314,8.374879,0.9536878,0.41762,-1.2052367,9.054367475201056,1.5926463201452212,fall
10/07/2020, 21:12:04,-3.574877,-0.5599205,7.9657063,0.9536878,0.41762,-1.2052367,8.749041908614124,1.5926463201452212,fall
10/07/2020, 21:12:04,-3.574877,-0.5599205,7.9657063,0.8865267,0.47501224,-1.16494,8.749041908614124,1.5390423743478565,fall
10/07/2020, 21:12:04,-3.9290147,-0.10767702,7.4392858,0.8865267,0.47501224,-1.16494,8.413781745741565,1.5390423743478565,fall
10/07/2020, 21:12:04,-3.9290147,-0.10767702,7.4392858,0.71557117,0.4041878,-1.1368545,8.413781745741565,1.4028000890115584,fall
10/07/2020, 21:12:04,-4.1443686,0.22013968,6.987042,0.71557117,0.4041878,-1.1368545,8.126684944603557,1.4028000890115584,fall
10/07/2020, 21:12:04,-4.1443686,0.22013968,6.987042,0.5519422,0.2185789,-1.1527289,8.126684944603557,1.2966113195854758,fall
10/07/2020, 21:12:04,-4.1204405,0.36131623,6.896115,0.5519422,0.2185789,-1.1527289,8.041453779742984,1.2966113195854758,fall
10/07/2020, 21:12:04,-4.1204405,0.36131623,6.896115,0.5018767,0.07204556,-1.1893623,8.041453779742984,1.2929243779831772,fall
10/07/2020, 21:12:04,-3.7663028,0.43070808,7.207182,0.5018767,0.07204556,-1.1893623,8.143341930239016,1.2929243779831772,fall
10/07/2020, 21:12:04,-3.7663028,0.43070808,7.207182,0.6325356,0.102573335,-1.2150056,8.143341930239016,1.3736306785545596,fall
10/07/2020, 21:12:04,-3.2422748,0.4139583,7.884351,0.6325356,0.102573335,-1.2150056,8.535027491463708,1.3736306785545596,fall
10/07/2020, 21:12:04,-3.2422748,0.4139583,7.884351,0.8816423,0.27963445,-1.1918045,8.535027491463708,1.5086041794612657,fall
10/07/2020, 21:12:04,-2.8546374,0.23928227,8.547162,0.8816423,0.27963445,-1.1918045,9.01444339989929,1.5086041794612657,fall
10/07/2020, 21:12:04,-2.8546374,0.23928227,8.547162,1.1222012,0.5092034,-1.0965579,9.01444339989929,1.64956441223419,fall
10/07/2020, 21:12:04,-2.8091738,0.12203395,8.915657,1.1222012,0.5092034,-1.0965579,9.34854482616768,1.64956441223419,fall
10/07/2020, 21:12:04,-2.8091738,0.12203395,8.915657,1.295599,0.6801589,-0.94514006,9.34854482616768,1.7419766399062266,fall
10/07/2020, 21:12:04,-3.0173492,0.23688944,9.013762,1.295599,0.6801589,-0.94514006,9.508334607032028,1.7419766399062266,fall
10/07/2020, 21:12:05,4.610969,1.3615161,7.716853,-0.9500245,-1.4262578,-0.05617111,9.092006614873647,1.7146174990664542,fall
10/07/2020, 21:12:05,4.709075,1.0193424,7.6139617,-0.9500245,-1.4262578,-0.05617111,9.010375064516792,1.7146174990664542,fall
10/07/2020, 21:12:05,4.709075,1.0193424,7.6139617,-1.0855678,-1.4287001,-0.08059334,9.010375064516792,1.79614496907522,fall
10/07/2020, 21:12:05,4.8622155,0.66999036,7.719246,-1.0855678,-1.4287001,-0.08059334,9.147501531304304,1.79614496907522,fall
10/07/2020, 21:12:05,4.8622155,0.66999036,7.719246,-1.1527289,-1.4042778,-0.06716111,9.147501531304304,1.8180458495038976,fall
10/07/2020, 21:12:05,5.032106,0.4426722,7.8699937,-1.1527289,-1.4042778,-0.06716111,9.351729749949078,1.8180458495038976,fall
10/07/2020, 21:12:05,5.032106,0.4426722,7.8699937,-1.1832567,-1.3920667,-0.04029667,9.351729749949078,1.8274490668679986,fall
10/07/2020, 21:12:05,5.1589255,0.33260235,7.879565,-1.1832567,-1.3920667,-0.04029667,9.42404784702114,1.8274490668679986,fall
10/07/2020, 21:12:05,5.1589255,0.33260235,7.879565,-1.1600556,-1.3932878,-0.042738892,9.42404784702114,1.8135066933205608,fall
10/07/2020, 21:12:05,5.2019963,0.19860429,7.7503524,-1.1600556,-1.3932878,-0.042738892,9.336389639366523,1.8135066933205608,fall
10/07/2020, 21:12:05,5.2019963,0.19860429,7.7503524,-1.12098,-1.3786345,-0.06594,9.336389639366523,1.7780824652083849,fall
10/07/2020, 21:12:05,5.2283173,-0.011964113,7.5326056,-1.12098,-1.3786345,-0.06594,9.169274364303922,1.7780824652083849,fall
10/07/2020, 21:12:05,5.2283173,-0.011964113,7.5326056,-1.1075479,-1.3432223,-0.11600556,9.169274364303922,1.7448110603359313,fall
10/07/2020, 21:12:05,5.2235317,-0.20578274,7.4010005,-1.1075479,-1.3432223,-0.11600556,9.06103959791464,1.7448110603359313,fall
10/07/2020, 21:12:05,5.2235317,-0.20578274,7.4010005,-1.1234223,-1.32979,-0.1746189,9.06103959791464,1.749545878119386,fall
10/07/2020, 21:12:05,5.211568,-0.3062813,7.3028946,-1.1234223,-1.32979,-0.1746189,8.976999354701748,1.749545878119386,fall
10/07/2020, 21:12:05,5.211568,-0.3062813,7.3028946,-1.1185378,-1.3639811,-0.22346334,8.976999354701748,1.7780627534639888,fall
10/07/2020, 21:12:05,5.1996036,-0.34456646,7.271788,-1.1185378,-1.3639811,-0.22346334,8.946144737850508,1.7780627534639888,fall
10/07/2020, 21:12:05,5.1996036,-0.34456646,7.271788,-1.053819,-1.3981723,-0.26620224,8.946144737850508,1.7709555783892763,fall
10/07/2020, 21:12:05,5.2426744,-0.37806597,7.200003,-1.053819,-1.3981723,-0.26620224,8.914517011416764,1.7709555783892763,fall
10/07/2020, 21:12:06,7.233503,2.7302105,4.5535417,-0.6459678,0.06349778,0.13554333,8.972867710778827,0.6630824517323,fall
10/07/2020, 21:12:06,7.233503,2.7302105,4.5535417,-0.57514334,0.013432222,0.18072446,8.972867710778827,0.6030187495476156,fall
10/07/2020, 21:12:06,7.1569324,3.0029924,4.4243293,-0.57514334,0.013432222,0.18072446,8.933886814186305,0.6030187495476156,fall
10/07/2020, 21:12:06,7.1569324,3.0029924,4.4243293,-0.59468114,-0.047623336,0.20270446,8.933886814186305,0.6300815366114255,fall
10/07/2020, 21:12:06,7.1162543,3.225525,4.369294,-0.59468114,-0.047623336,0.20270446,8.951861152538466,0.6300815366114255,fall
10/07/2020, 21:12:06,7.1162543,3.225525,4.369294,-0.73633003,-0.09036223,0.21613668,8.951861152538466,0.772698073571917,fall
10/07/2020, 21:12:06,7.1569324,3.4648073,4.4458647,-0.73633003,-0.09036223,0.21613668,9.110010037380452,0.772698073571917,fall
10/07/2020, 21:12:06,7.1569324,3.4648073,4.4458647,-1.0232911,-0.117226675,0.2613178,9.110010037380452,1.0626164775407918,fall
10/07/2020, 21:12:06,7.1569324,3.5724843,4.386044,-1.0232911,-0.117226675,0.2613178,9.122593198391678,1.0626164775407918,fall
10/07/2020, 21:12:06,7.1569324,3.5724843,4.386044,-1.3798556,-0.18805112,0.3602278,9.122593198391678,1.438446680980178,fall
10/07/2020, 21:12:06,7.056434,3.615555,4.2664027,-1.3798556,-0.18805112,0.3602278,9.003759962548562,1.438446680980178,fall
10/07/2020, 21:12:06,7.056434,3.615555,4.2664027,-1.7022289,-0.32359445,0.48966557,9.003759962548562,1.8005746243574101,fall
10/07/2020, 21:12:06,6.9678993,3.548556,4.132405,-1.7022289,-0.32359445,0.48966557,8.844243368105591,1.8005746243574101,fall
10/07/2020, 21:12:06,6.9678993,3.548556,4.132405,-1.9244711,-0.44204223,0.5800278,8.844243368105591,2.0580142791688676,fall
10/07/2020, 21:12:06,6.9248285,3.333202,4.091727,-1.9244711,-0.44204223,0.5800278,8.706647633292947,2.0580142791688676,fall
10/07/2020, 21:12:06,6.9248285,3.333202,4.091727,-2.0087278,-0.5092034,0.6105556,8.706647633292947,2.1603364399991833,fall
10/07/2020, 21:12:06,6.9559355,2.9742785,4.208975,-2.0087278,-0.5092034,0.6105556,8.657184291922691,2.1603364399991833,fall
10/07/2020, 21:12:06,6.9559355,2.9742785,4.208975,-2.0270445,-0.53484666,0.5971234,8.657184291922691,2.1797997236689532,fall
10/07/2020, 21:12:06,7.0612197,2.5316064,4.35733,-2.0270445,-0.53484666,0.5971234,8.6750318771439,2.1797997236689532,fall
10/07/2020, 21:12:06,7.0612197,2.5316064,4.35733,-2.0184968,-0.5592689,0.5788067,8.6750318771439,2.1730457943491195,fall
10/07/2020, 21:12:07,1.8185452,-1.4356936,-10.408778,-0.2845189,0.048844445,-0.017095556,10.663535357566335,0.28918686166728386,fall
10/07/2020, 21:12:07,1.8041883,-1.4524434,-9.932607,-0.2845189,0.048844445,-0.017095556,10.199086369057552,0.28918686166728386,fall
10/07/2020, 21:12:07,1.8041883,-1.4524434,-9.932607,-0.35656446,0.045181114,-0.02198,10.199086369057552,0.3600870300427,fall
10/07/2020, 21:12:07,1.7515461,-1.39023,-9.473185,-0.35656446,0.045181114,-0.02198,9.73354402958101,0.3600870300427,fall
10/07/2020, 21:12:07,1.7515461,-1.39023,-9.473185,-0.4041878,0.037854444,-0.026864445,9.73354402958101,0.4068444835574253,fall
10/07/2020, 21:12:07,1.7587247,-1.2993027,-9.303294,-0.4041878,0.037854444,-0.026864445,9.55680818400465,0.4068444835574253,fall
10/07/2020, 21:12:07,1.7587247,-1.2993027,-9.303294,-0.3834289,0.023201112,-0.025643334,9.55680818400465,0.38498518751654776,fall
10/07/2020, 21:12:07,1.7922242,-1.2251252,-9.379865,-0.3834289,0.023201112,-0.025643334,9.627817035250938,0.38498518751654776,fall
10/07/2020, 21:12:07,1.7922242,-1.2251252,-9.379865,-0.3284789,0.0012211112,-0.023201112,9.627817035250938,0.32929951736352897,fall
10/07/2020, 21:12:07,1.8520447,-1.1413764,-9.583255,-0.3284789,0.0012211112,-0.023201112,9.82708412712359,0.32929951736352897,fall
10/07/2020, 21:12:07,1.8520447,-1.1413764,-9.583255,-0.2283478,-0.028085556,-0.008547778,9.82708412712359,0.23022723042928578,fall
10/07/2020, 21:12:07,1.8855443,-1.0193424,-9.585648,-0.2283478,-0.028085556,-0.008547778,9.822371193732373,0.23022723042928578,fall
10/07/2020, 21:12:07,1.8855443,-1.0193424,-9.585648,-0.09036223,-0.06105556,0.0024422223,9.822371193732373,0.10908289575772268,fall
10/07/2020, 21:12:07,1.861616,-0.9236295,-9.667004,-0.09036223,-0.06105556,0.0024422223,9.887854413199967,0.10908289575772268,fall
10/07/2020, 21:12:07,1.861616,-0.9236295,-9.667004,0.078151114,-0.07693,0.01099,9.887854413199967,0.11021162317680287,fall
10/07/2020, 21:12:07,1.8113668,-0.96430755,-9.784252,0.078151114,-0.07693,0.01099,9.997126045940048,0.11021162317680287,fall
10/07/2020, 21:12:07,1.8113668,-0.96430755,-9.784252,0.2075889,-0.06594,0.015874445,9.997126045940048,0.21838780057590876,fall
10/07/2020, 21:12:07,1.7826529,-1.0408778,-9.798609,0.2075889,-0.06594,0.015874445,10.013691220376288,0.21838780057590876,fall
10/07/2020, 21:12:07,1.7826529,-1.0408778,-9.798609,0.22468445,-0.04029667,0.015874445,10.013691220376288,0.22882071667848514,fall
10/07/2020, 21:12:07,1.7395821,-1.1700903,-9.88475,0.22468445,-0.04029667,0.015874445,10.104629973609486,0.22882071667848514,fall
10/07/2020, 21:12:08,3.2207394,-6.233303,-6.802795,3.8208568,0.61666113,0.29917222,9.772678656486885,3.881845144944724,fall
10/07/2020, 21:12:08,3.2207394,-6.233303,-6.802795,3.9307568,0.63986224,0.3809867,9.772678656486885,4.0006778953152216,fall
10/07/2020, 21:12:08,3.2805598,-6.242874,-6.350551,3.9307568,0.63986224,0.3809867,9.490260780892443,4.0006778953152216,fall
10/07/2020, 21:12:08,3.2805598,-6.242874,-6.350551,4.0699635,0.6471889,0.49821335,9.490260780892443,4.151104978713207,fall
10/07/2020, 21:12:08,3.3355947,-6.2548385,-6.0107703,4.0699635,0.6471889,0.49821335,9.294006444514764,4.151104978713207,fall
10/07/2020, 21:12:08,3.3355947,-6.2548385,-6.0107703,4.211612,0.60933447,0.6252089,9.294006444514764,4.301145453438606,fall
10/07/2020, 21:12:08,3.3499517,-6.518049,-5.65424,4.211612,0.60933447,0.6252089,9.25621779299634,4.301145453438606,fall
10/07/2020, 21:12:08,3.3499517,-6.518049,-5.65424,4.327618,0.5739222,0.7778478,9.25621779299634,4.434265729851902,fall
10/07/2020, 21:12:08,3.3930225,-6.814759,-5.2953167,4.327618,0.5739222,0.7778478,9.273290572822171,4.434265729851902,fall
10/07/2020, 21:12:08,3.3930225,-6.814759,-5.2953167,4.411875,0.54095227,0.9500245,9.273290572822171,4.545306906308811,fall
10/07/2020, 21:12:08,3.400201,-7.159325,-5.127819,4.411875,0.54095227,0.9500245,9.439906352249798,4.545306906308811,fall
10/07/2020, 21:12:08,3.400201,-7.159325,-5.127819,4.4521713,0.52996224,1.1063267,9.439906352249798,4.618078415997521,fall
10/07/2020, 21:12:08,3.3643086,-7.4919276,-4.974678,4.4521713,0.52996224,1.1063267,9.601821360736345,4.618078415997521,fall
10/07/2020, 21:12:08,3.3643086,-7.4919276,-4.974678,4.525438,0.52141446,1.2638501,9.601821360736345,4.7274493826255455,fall
10/07/2020, 21:12:08,3.3714871,-7.826923,-4.8933225,4.525438,0.52141446,1.2638501,9.827118209052605,4.7274493826255455,fall
10/07/2020, 21:12:08,3.3714871,-7.826923,-4.8933225,4.6158004,0.51653004,1.4128256,9.827118209052605,4.854739186150788,fall
10/07/2020, 21:12:08,3.2805598,-8.271988,-4.699504,4.6158004,0.51653004,1.4128256,10.063458322969037,4.854739186150788,fall
10/07/2020, 21:12:08,3.2805598,-8.271988,-4.699504,4.7586703,0.53118336,1.5691278,10.063458322969037,5.038775756159168,fall
10/07/2020, 21:12:08,3.1154552,-8.60459,-4.5678983,4.7586703,0.53118336,1.5691278,10.227938778586632,5.038775756159168,fall
10/07/2020, 21:12:08,3.1154552,-8.60459,-4.5678983,4.9161935,0.57270116,1.6582689,10.227938778586632,5.21984682132313,fall
10/07/2020, 21:12:09,-8.377272,-3.7686956,2.6919255,-0.058613338,0.091583334,0.048844445,9.572262524745144,0.11920071412418003,fall
10/07/2020, 21:12:09,-8.377272,-3.7686956,2.6919255,-0.048844445,0.089141116,0.035412222,9.572262524745144,0.10763802215807829,fall
10/07/2020, 21:12:09,-8.238488,-3.7423747,2.7326035,-0.048844445,0.089141116,0.035412222,9.452257826781173,0.10763802215807829,fall
10/07/2020, 21:12:09,-8.238488,-3.7423747,2.7326035,-0.051286668,0.085477784,0.037854444,9.452257826781173,0.10662894928269609,fall
10/07/2020, 21:12:09,-8.281559,-3.9864426,2.7828526,-0.051286668,0.085477784,0.037854444,9.603135556369997,0.10662894928269609,fall
10/07/2020, 21:12:09,-8.281559,-3.9864426,2.7828526,-0.047623336,0.07937223,0.039075557,9.603135556369997,0.10047304005149545,fall
10/07/2020, 21:12:09,-8.386844,-4.141976,2.7469604,-0.047623336,0.07937223,0.039075557,9.748892376599468,0.10047304005149545,fall
10/07/2020, 21:12:09,-8.386844,-4.141976,2.7469604,-0.023201112,0.05617111,0.02075889,9.748892376599468,0.06422162314216733,fall
10/07/2020, 21:12:09,-8.4347,-3.792624,2.6249263,-0.023201112,0.05617111,0.02075889,9.613448876829796,0.06422162314216733,fall
10/07/2020, 21:12:09,-8.4347,-3.792624,2.6249263,-0.037854444,0.03297,-0.017095556,9.613448876829796,0.05303053746368545,fall
10/07/2020, 21:12:09,-8.544769,-3.7256248,2.6153553,-0.037854444,0.03297,-0.017095556,9.681603452880223,0.05303053746368545,fall
10/07/2020, 21:12:09,-8.544769,-3.7256248,2.6153553,-0.036633335,0.007326667,-0.029306669,9.681603452880223,0.04748222956907216,fall
10/07/2020, 21:12:09,-8.422736,-3.6729827,2.6081767,-0.036633335,0.007326667,-0.029306669,9.55174707352007,0.04748222956907216,fall
10/07/2020, 21:12:09,-8.422736,-3.6729827,2.6081767,-0.037854444,-0.0012211112,-0.039075557,9.55174707352007,0.05441828026359012,fall
10/07/2020, 21:12:09,-8.355737,-3.8620157,2.7637103,-0.037854444,-0.0012211112,-0.039075557,9.611014316906722,0.05441828026359012,fall
10/07/2020, 21:12:09,-8.355737,-3.8620157,2.7637103,-0.03297,-0.008547778,-0.05006556,9.611014316906722,0.060552832757783726,fall
10/07/2020, 21:12:09,-8.496913,-4.1036906,2.7708886,-0.03297,-0.008547778,-0.05006556,9.834410504748236,0.060552832757783726,fall
10/07/2020, 21:12:09,-8.496913,-4.1036906,2.7708886,-0.039075557,-0.02198,-0.05617111,9.834410504748236,0.07186941902951657,fall
10/07/2020, 21:12:09,-8.516056,-3.9625144,2.6632116,-0.039075557,-0.02198,-0.05617111,9.763064434192858,0.07186941902951657,fall
10/07/2020, 21:12:09,-8.516056,-3.9625144,2.6632116,-0.045181114,-0.06594,-0.06349778,9.763064434192858,0.10208518494758353,fall
10/07/2020, 21:12:10,-7.1186476,-2.3258235,2.9479575,-1.7413045,0.56293225,0.5653745,8.04829497356477,1.9153804999400166,fall
10/07/2020, 21:12:10,-6.9655066,-2.4358935,2.8163524,-1.7413045,0.56293225,0.5653745,7.898335237450471,1.9153804999400166,fall
10/07/2020, 21:12:10,-6.9655066,-2.4358935,2.8163524,-1.7852645,0.61666113,0.72534,7.898335237450471,2.0232544046042826,fall
10/07/2020, 21:12:10,-6.869794,-2.684747,2.7278178,-1.7852645,0.61666113,0.72534,7.864027230029344,2.0232544046042826,fall
10/07/2020, 21:12:10,-6.869794,-2.684747,2.7278178,-1.8475412,0.6789378,0.8779789,7.864027230029344,2.1552753990931754,fall
10/07/2020, 21:12:10,-6.8051877,-2.9599216,2.5627131,-1.8475412,0.6789378,0.8779789,7.8510645265799806,2.1552753990931754,fall
10/07/2020, 21:12:10,-6.8051877,-2.9599216,2.5627131,-1.8963857,0.72900337,1.0330601,7.8510645265799806,2.2792405835397753,fall
10/07/2020, 21:12:10,-6.778867,-3.2470603,2.4143581,-1.8963857,0.72900337,1.0330601,7.894653916738363,2.2792405835397753,fall
10/07/2020, 21:12:10,-6.778867,-3.2470603,2.4143581,-1.9366823,0.76441556,1.1966889,7.894653916738363,2.4014857800461242,fall
10/07/2020, 21:12:10,-6.74776,-3.4791641,2.2755744,-1.9366823,0.76441556,1.1966889,7.925596799727735,2.4014857800461242,fall
10/07/2020, 21:12:10,-6.74776,-3.4791641,2.2755744,-1.9806423,0.79616445,1.3786345,7.925596799727735,2.541152255473185,fall
10/07/2020, 21:12:10,-6.728617,-3.6131623,2.309074,-1.9806423,0.79616445,1.3786345,7.978787712038466,2.541152255473185,fall
10/07/2020, 21:12:10,-6.728617,-3.6131623,2.309074,-2.0368135,0.8450089,1.5850023,7.978787712038466,2.7156733202205494,fall
10/07/2020, 21:12:10,-6.721439,-3.7304106,2.3353949,-2.0368135,0.8450089,1.5850023,8.034162862095673,2.7156733202205494,fall
10/07/2020, 21:12:10,-6.721439,-3.7304106,2.3353949,-2.0881002,0.92193896,1.812129,8.034162862095673,2.9144374156761432,fall
10/07/2020, 21:12:10,-6.8243303,-3.7950168,2.3282163,-2.0881002,0.92193896,1.812129,8.148265331278461,2.9144374156761432,fall
10/07/2020, 21:12:10,-6.8243303,-3.7950168,2.3282163,-2.163809,1.02207,2.0465822,8.148265331278461,3.1488403629947777,fall
10/07/2020, 21:12:10,-6.95115,-3.802195,2.254039,-2.163809,1.02207,2.0465822,8.237467140883508,3.1488403629947777,fall
10/07/2020, 21:12:10,-6.95115,-3.802195,2.254039,-2.31889,1.1136534,2.273709,8.237467140883508,3.433253282013632,fall
10/07/2020, 21:12:10,-7.1377897,-3.8404803,2.0817556,-2.31889,1.1136534,2.273709,8.368454926678515,3.433253282013632,fall
10/07/2020, 21:12:11,-8.709874,-2.2325034,5.063213,0.7815111,-0.12455334,-0.08669889,10.319016612078014,0.796109210170997,fall
10/07/2020, 21:12:11,-8.709874,-2.2325034,5.063213,0.48844448,-0.17706113,-0.11844778,10.319016612078014,0.5328775904153634,fall
10/07/2020, 21:12:11,-8.985049,-2.239682,4.9842496,0.48844448,-0.17706113,-0.11844778,10.516179403953089,0.5328775904153634,fall
10/07/2020, 21:12:11,-8.985049,-2.239682,4.9842496,0.24666445,-0.27719223,-0.16607112,10.516179403953089,0.40651998929919714,fall
10/07/2020, 21:12:11,-9.274581,-2.3449662,4.9052863,0.24666445,-0.27719223,-0.16607112,10.7507465813892,0.40651998929919714,fall
10/07/2020, 21:12:11,-9.274581,-2.3449662,4.9052863,0.09280445,-0.4273889,-0.24055889,10.7507465813892,0.49914178695577527,fall
10/07/2020, 21:12:11,-9.4636135,-2.455036,4.855037,0.09280445,-0.4273889,-0.24055889,10.915977665572198,0.49914178695577527,fall
10/07/2020, 21:12:11,-9.4636135,-2.455036,4.855037,0.014653334,-0.6203245,-0.35168,10.915977665572198,0.7132292941076723,fall
10/07/2020, 21:12:11,-9.449257,-2.5172493,4.9459643,0.014653334,-0.6203245,-0.35168,10.95844712496739,0.7132292941076723,fall
10/07/2020, 21:12:11,-9.449257,-2.5172493,4.9459643,-0.03052778,-0.8071545,-0.4921078,10.95844712496739,0.9458331722776974,fall
10/07/2020, 21:12:11,-9.18126,-2.605784,5.1996036,-0.03052778,-0.8071545,-0.4921078,10.868372660286267,0.9458331722776974,fall
10/07/2020, 21:12:11,-9.18126,-2.605784,5.1996036,-0.018316668,-0.96956223,-0.62154555,10.868372660286267,1.1518269391278446,fall
10/07/2020, 21:12:11,-8.846265,-2.8809586,5.8935223,-0.018316668,-0.96956223,-0.62154555,11.013170682056913,1.1518269391278446,fall
10/07/2020, 21:12:11,-8.846265,-2.8809586,5.8935223,0.10501556,-1.0819045,-0.72778225,11.013170682056913,1.3081332821373284,fall
10/07/2020, 21:12:11,-8.573483,-3.4576287,6.6735826,0.10501556,-1.0819045,-0.72778225,11.401601610186066,1.3081332821373284,fall
10/07/2020, 21:12:11,-8.573483,-3.4576287,6.6735826,0.3162678,-1.0611455,-0.8205867,11.401601610186066,1.3781936298222974,fall
10/07/2020, 21:12:11,-8.362915,-4.273581,7.3196445,0.3162678,-1.0611455,-0.8205867,11.907100303787328,1.3781936298222974,fall
10/07/2020, 21:12:11,-8.362915,-4.273581,7.3196445,0.62765115,-0.9463611,-0.8962956,11.907100303787328,1.4466828144585264,fall
10/07/2020, 21:12:11,-8.415557,-5.180461,7.6163545,0.62765115,-0.9463611,-0.8962956,12.476683407692247,1.4466828144585264,fall
10/07/2020, 21:12:11,-8.415557,-5.180461,7.6163545,1.0184067,-0.8218078,-0.94514006,12.476683407692247,1.6142521826054785,fall
10/07/2020, 21:12:12,5.096712,-1.4285151,8.580662,0.09402556,-0.8999589,-0.5690378,10.081908854748637,1.0689110604669267,fall
10/07/2020, 21:12:12,5.096712,-1.4285151,8.580662,0.10379445,-0.90240115,-0.56049,10.081908854748637,1.0673566299048836,fall
10/07/2020, 21:12:12,5.1589255,-1.3375878,8.482556,0.10379445,-0.90240115,-0.56049,10.017854859382563,1.0673566299048836,fall
10/07/2020, 21:12:12,5.1589255,-1.3375878,8.482556,0.08425667,-0.91094893,-0.5592689,10.017854859382563,1.0722447654530003,fall
10/07/2020, 21:12:12,5.2019963,-1.2107682,8.3581295,0.08425667,-0.91094893,-0.5592689,9.91892404603157,1.0722447654530003,fall
10/07/2020, 21:12:12,5.2019963,-1.2107682,8.3581295,0.036633335,-0.9414767,-0.5653745,9.91892404603157,1.0988033040347565,fall
10/07/2020, 21:12:12,5.235496,-1.0719845,8.310273,0.036633335,-0.9414767,-0.5653745,9.880294015247436,1.0988033040347565,fall
10/07/2020, 21:12:12,5.235496,-1.0719845,8.310273,-0.028085556,-0.9854367,-0.56659555,9.880294015247436,1.1370597024235376,fall
10/07/2020, 21:12:12,5.304888,-0.95473623,8.195417,-0.028085556,-0.9854367,-0.56659555,9.809088743208056,1.1370597024235376,fall
10/07/2020, 21:12:12,5.304888,-0.95473623,8.195417,-0.10379445,-1.020849,-0.57270116,9.809088743208056,1.1751138502422351,fall
10/07/2020, 21:12:12,5.395815,-0.8853444,8.133204,-0.10379445,-1.020849,-0.57270116,9.800391209559363,1.1751138502422351,fall
10/07/2020, 21:12:12,5.395815,-0.8853444,8.133204,-0.16851334,-1.06603,-0.58247,9.800391209559363,1.2264126803673812,fall
10/07/2020, 21:12:12,5.5130634,-0.83030945,8.1020975,-0.16851334,-1.06603,-0.58247,9.835002097516137,1.2264126803673812,fall
10/07/2020, 21:12:12,5.5130634,-0.83030945,8.1020975,-0.2075889,-1.1160955,-0.59468114,9.835002097516137,1.2815646973329042,fall
10/07/2020, 21:12:12,5.54417,-0.86859465,8.154739,-0.2075889,-1.1160955,-0.59468114,9.899093439542328,1.2815646973329042,fall
10/07/2020, 21:12:12,5.54417,-0.86859465,8.154739,-0.23201112,-1.1392968,-0.59590226,9.899093439542328,1.306493704776211,fall
10/07/2020, 21:12:12,5.613562,-0.95473623,8.188239,-0.23201112,-1.1392968,-0.59590226,9.973507924679303,1.306493704776211,fall
10/07/2020, 21:12:12,5.613562,-0.95473623,8.188239,-0.25277,-1.1429601,-0.5922389,9.973507924679303,1.3118678743436272,fall
10/07/2020, 21:12:12,5.615955,-0.9834501,8.085348,-0.25277,-1.1429601,-0.5922389,9.893380497501774,1.3118678743436272,fall
10/07/2020, 21:12:12,5.615955,-0.9834501,8.085348,-0.28329778,-1.1588345,-0.59956557,9.893380497501774,1.335153098951968,fall
10/07/2020, 21:12:13,1.0983056,-5.477171,5.493921,-0.5702589,2.0478034,3.2811258,7.8351032217958725,3.9095371098831215,fall
10/07/2020, 21:12:13,1.0983056,-5.477171,5.493921,-0.43227336,2.273709,3.2554824,7.8351032217958725,3.9943433785906777,fall
10/07/2020, 21:12:13,1.2131611,-5.613562,5.13739,-0.43227336,2.273709,3.2554824,7.705622416645891,3.9943433785906777,fall
10/07/2020, 21:12:13,1.2131611,-5.613562,5.13739,-0.20881,2.5277002,3.1700046,7.705622416645891,4.0597782020167985,fall
10/07/2020, 21:12:13,1.3399807,-5.252246,4.508078,-0.20881,2.5277002,3.1700046,7.050134998707941,4.0597782020167985,fall
10/07/2020, 21:12:13,1.3399807,-5.252246,4.508078,0.11966889,2.6730123,3.0772002,7.050134998707941,4.0778028497017,fall
10/07/2020, 21:12:13,1.3615161,-4.7688956,4.2017965,0.11966889,2.6730123,3.0772002,6.500091209025874,4.0778028497017,fall
10/07/2020, 21:12:13,1.3615161,-4.7688956,4.2017965,0.3858711,2.8354201,3.0344613,6.500091209025874,4.170906253559323,fall
10/07/2020, 21:12:13,1.1676974,-4.4171505,4.3645086,0.3858711,2.8354201,3.0344613,6.318518131294361,4.170906253559323,fall
10/07/2020, 21:12:13,1.1676974,-4.4171505,4.3645086,0.5690378,3.053999,3.0784214,6.318518131294361,4.373487351752681,fall
10/07/2020, 21:12:13,0.4953143,-4.302295,4.345366,0.5690378,3.053999,3.0784214,6.134923471095441,4.373487351752681,fall
10/07/2020, 21:12:13,0.4953143,-4.302295,4.345366,0.8315767,3.260367,3.2261758,6.134923471095441,4.661515037370321,fall
10/07/2020, 21:12:13,-0.53359944,-4.4051867,4.278367,0.8315767,3.260367,3.2261758,6.163994026447882,4.661515037370321,fall
10/07/2020, 21:12:13,-0.53359944,-4.4051867,4.278367,1.2394278,3.5180213,3.3922467,6.163994026447882,5.041824401882497,fall
10/07/2020, 21:12:13,-1.5744773,-4.508078,4.3262234,1.2394278,3.5180213,3.3922467,6.443442839996409,5.041824401882497,fall
10/07/2020, 21:12:13,-1.5744773,-4.508078,4.3262234,1.625299,3.85749,3.4618502,6.443442839996409,5.4319640023011955,fall
10/07/2020, 21:12:13,-2.6273193,-4.517649,4.1228333,1.625299,3.85749,3.4618502,6.656554286818682,5.4319640023011955,fall
10/07/2020, 21:12:13,-2.6273193,-4.517649,4.1228333,1.976979,4.1945167,3.480167,6.656554286818682,5.797756270438887,fall
10/07/2020, 21:12:13,-3.8620157,-4.4554358,3.8285162,1.976979,4.1945167,3.480167,7.030192731294351,5.797756270438887,fall
10/07/2020, 21:12:13,-3.8620157,-4.4554358,3.8285162,2.3274379,4.5816092,3.5912879,7.030192731294351,6.26940657614864,fall
10/07/2020, 21:12:14,-8.355737,-3.1561332,3.5964124,-0.014653334,0.014653334,0.06105556,9.628795109303004,0.06447652118199719,fall
10/07/2020, 21:12:14,-8.336594,-3.1393833,3.574877,-0.014653334,0.014653334,0.06105556,9.59865962813686,0.06447652118199719,fall
10/07/2020, 21:12:14,-8.336594,-3.1393833,3.574877,-0.0048844446,0.014653334,0.05006556,9.59865962813686,0.05239406594845708,fall
10/07/2020, 21:12:14,-8.403593,-3.2350962,3.644269,-0.0048844446,0.014653334,0.05006556,9.714263758557994,0.05239406594845708,fall
10/07/2020, 21:12:14,-8.403593,-3.2350962,3.644269,0.0,0.012211111,0.05372889,9.714263758557994,0.055099045605059335,fall
10/07/2020, 21:12:14,-8.408379,-3.1609187,3.505485,0.0,0.012211111,0.05372889,9.642648147549702,0.055099045605059335,fall
10/07/2020, 21:12:14,-8.408379,-3.1609187,3.505485,-0.009768889,0.008547778,0.054950003,9.642648147549702,0.05646236352099232,fall
10/07/2020, 21:12:14,-8.379665,-3.1202407,3.5724843,-0.009768889,0.008547778,0.054950003,9.628984240147725,0.05646236352099232,fall
10/07/2020, 21:12:14,-8.379665,-3.1202407,3.5724843,-0.018316668,0.008547778,0.06227667,9.628984240147725,0.06547479136878746,fall
10/07/2020, 21:12:14,-8.327023,-3.2183464,3.5892339,-0.018316668,0.008547778,0.06227667,9.62183234508582,0.06547479136878746,fall
10/07/2020, 21:12:14,-8.327023,-3.2183464,3.5892339,0.0024422223,0.015874445,0.059834447,9.62183234508582,0.061952590637383224,fall
10/07/2020, 21:12:14,-8.343773,-3.2422748,3.6514473,0.0024422223,0.015874445,0.059834447,9.66767598718579,0.061952590637383224,fall
10/07/2020, 21:12:14,-8.343773,-3.2422748,3.6514473,0.019537779,0.029306669,0.05617111,9.66767598718579,0.06630082521053554,fall
10/07/2020, 21:12:14,-8.293523,-3.1609187,3.6514473,0.019537779,0.029306669,0.05617111,9.597238950617728,0.06630082521053554,fall
10/07/2020, 21:12:14,-8.293523,-3.1609187,3.6514473,0.026864445,0.035412222,0.05617111,9.597238950617728,0.07163042419547976,fall
10/07/2020, 21:12:14,-8.267202,-3.0173492,3.6801612,0.026864445,0.035412222,0.05617111,9.539109934284726,0.07163042419547976,fall
10/07/2020, 21:12:14,-8.267202,-3.0173492,3.6801612,0.017095556,0.03174889,0.06227667,9.539109934284726,0.07196272372546275,fall
10/07/2020, 21:12:14,-8.365308,-3.1537402,3.7040894,0.017095556,0.03174889,0.06227667,9.677020722964231,0.07196272372546275,fall
10/07/2020, 21:12:14,-8.365308,-3.1537402,3.7040894,0.019537779,0.035412222,0.07448778,9.677020722964231,0.08475954275090707,fall
10/07/2020, 21:12:14,-8.499306,-3.330809,3.65384,0.019537779,0.035412222,0.07448778,9.832753144412058,0.08475954275090707,fall
10/07/2020, 21:12:15,-7.972885,-2.804388,4.4147577,0.33458444,-0.39564002,-0.16851334,9.535280564383513,0.5448619268242519,fall
10/07/2020, 21:12:15,-7.9657063,-3.0675986,4.56072,0.33458444,-0.39564002,-0.16851334,9.677954603205201,0.5448619268242519,fall
10/07/2020, 21:12:15,-7.9657063,-3.0675986,4.56072,0.35656446,-0.39686114,-0.1526389,9.677954603205201,0.5549194625324148,fall
10/07/2020, 21:12:15,-8.020741,-3.1322048,4.613362,0.35656446,-0.39686114,-0.1526389,9.768628755582535,0.5549194625324148,fall
10/07/2020, 21:12:15,-8.020741,-3.1322048,4.613362,0.4041878,-0.4041878,-0.15752333,9.768628755582535,0.5929158065656748,fall
10/07/2020, 21:12:15,-8.10449,-3.048456,4.6492543,0.4041878,-0.4041878,-0.15752333,9.828093006947707,0.5929158065656748,fall
10/07/2020, 21:12:15,-8.10449,-3.048456,4.6492543,0.43105224,-0.41884112,-0.16485001,9.828093006947707,0.623225035402159,fall
10/07/2020, 21:12:15,-8.142776,-2.9192436,4.6325045,0.43105224,-0.41884112,-0.16485001,9.81258753181841,0.623225035402159,fall
10/07/2020, 21:12:15,-8.142776,-2.9192436,4.6325045,0.43227336,-0.44326335,-0.17095557,9.81258753181841,0.6423149240836946,fall
10/07/2020, 21:12:15,-8.195417,-2.833102,4.5966125,0.43227336,-0.44326335,-0.17095557,9.814284454276688,0.6423149240836946,fall
10/07/2020, 21:12:15,-8.195417,-2.833102,4.5966125,0.42372558,-0.47501224,-0.18683001,9.814284454276688,0.6633893638111694,fall
10/07/2020, 21:12:15,-8.12124,-2.7326035,4.658826,0.42372558,-0.47501224,-0.18683001,9.753271981184705,0.6633893638111694,fall
10/07/2020, 21:12:15,-8.12124,-2.7326035,4.658826,0.41273558,-0.5092034,-0.19904111,9.753271981184705,0.6850227013790283,fall
10/07/2020, 21:12:15,-8.030313,-2.7326035,4.7042894,0.41273558,-0.5092034,-0.19904111,9.699658794123781,0.6850227013790283,fall
10/07/2020, 21:12:15,-8.030313,-2.7326035,4.7042894,0.41151446,-0.53973114,-0.19537778,9.699658794123781,0.7062763893266178,fall
10/07/2020, 21:12:15,-7.9776707,-2.8115666,4.706682,0.41151446,-0.53973114,-0.19537778,9.679927344238804,0.7062763893266178,fall
10/07/2020, 21:12:15,-7.9776707,-2.8115666,4.706682,0.41884112,-0.5568267,-0.18438779,9.679927344238804,0.7207515029337477,fall
10/07/2020, 21:12:15,-7.850851,-2.9096723,4.7449675,0.41884112,-0.5568267,-0.18438779,9.623760762545013,0.7207515029337477,fall
10/07/2020, 21:12:15,-7.850851,-2.9096723,4.7449675,0.44326335,-0.5678167,-0.17339778,9.623760762545013,0.7409216997457807,fall
10/07/2020, 21:12:15,-7.6833534,-2.969493,4.895715,0.44326335,-0.5678167,-0.17339778,9.582266729425797,0.7409216997457807,fall
10/07/2020, 21:12:16,-0.62452674,-5.4221363,6.6735826,-0.98910004,-1.8280034,0.13798556,8.621270201091152,2.0830159277965894,fall
10/07/2020, 21:12:16,-0.62452674,-5.4221363,6.6735826,-0.9854367,-1.7535156,0.14653334,8.621270201091152,2.0167732717176907,fall
10/07/2020, 21:12:16,-0.5982057,-5.5896335,6.678368,-0.9854367,-1.7535156,0.14653334,8.729401622101028,2.0167732717176907,fall
10/07/2020, 21:12:16,-0.5982057,-5.5896335,6.678368,-1.0123012,-1.6973445,0.123332225,8.729401622101028,1.9801371324381212,fall
10/07/2020, 21:12:16,-0.49292147,-5.773881,6.6041903,-1.0123012,-1.6973445,0.123332225,8.786125600867496,1.9801371324381212,fall
10/07/2020, 21:12:16,-0.49292147,-5.773881,6.6041903,-1.1234223,-1.6118667,0.081814446,8.786125600867496,1.9664398003014718,fall
10/07/2020, 21:12:16,-0.37806597,-5.8839507,6.5347986,-1.1234223,-1.6118667,0.081814446,8.801556843726217,1.9664398003014718,fall
10/07/2020, 21:12:16,-0.37806597,-5.8839507,6.5347986,-1.2772822,-1.5386001,0.04151778,8.801556843726217,2.0001159640746122,fall
10/07/2020, 21:12:16,-0.28953153,-5.8169518,6.3457656,-1.2772822,-1.5386001,0.04151778,8.61333252113656,2.0001159640746122,fall
10/07/2020, 21:12:16,-0.28953153,-5.8169518,6.3457656,-1.3627601,-1.5007457,0.018316668,8.61333252113656,2.0272365473224077,fall
10/07/2020, 21:12:16,-0.18185452,-5.6757755,6.1399827,-1.3627601,-1.5007457,0.018316668,8.363425522438826,2.0272365473224077,fall
10/07/2020, 21:12:16,-0.18185452,-5.6757755,6.1399827,-1.3725289,-1.4689968,0.0012211112,8.363425522438826,2.0104200038859923,fall
10/07/2020, 21:12:16,0.09810573,-5.4436717,5.948557,-1.3725289,-1.4689968,0.0012211112,8.064026013136798,2.0104200038859923,fall
10/07/2020, 21:12:16,0.09810573,-5.4436717,5.948557,-1.3688656,-1.45068,-0.02198,8.064026013136798,1.9946800970293985,fall
10/07/2020, 21:12:16,0.46181476,-5.2929235,5.8360944,-1.3688656,-1.45068,-0.02198,7.892294288210401,1.9946800970293985,fall
10/07/2020, 21:12:16,0.46181476,-5.2929235,5.8360944,-1.3920667,-1.4751023,-0.07326667,7.892294288210401,2.0295675798977673,fall
10/07/2020, 21:12:16,0.9068798,-5.369494,5.812166,-1.3920667,-1.4751023,-0.07326667,7.964620043672561,2.0295675798977673,fall
10/07/2020, 21:12:16,0.9068798,-5.369494,5.812166,-1.3847401,-1.5630223,-0.14531223,7.964620043672561,2.0932413625546604,fall
10/07/2020, 21:12:16,1.3280165,-5.8193445,6.0777693,-1.3847401,-1.5630223,-0.14531223,8.518666441401125,2.0932413625546604,fall
10/07/2020, 21:12:16,1.3280165,-5.8193445,6.0777693,-1.3334534,-1.5850023,-0.19537778,8.518666441401125,2.0805054177870965,fall
10/07/2020, 21:12:17,-6.8913293,-0.8255238,0.96430755,1.9635468,6.850434,4.4533925,7.00726750885959,8.40337219637482,fall
10/07/2020, 21:12:17,-8.422736,-0.9762716,1.430908,1.9635468,6.850434,4.4533925,8.599016714246025,8.40337219637482,fall
10/07/2020, 21:12:17,-8.422736,-0.9762716,1.430908,2.42879,7.327888,4.6646447,8.599016714246025,9.019749130405291,fall
10/07/2020, 21:12:17,-10.191031,-1.1246266,1.9214365,2.42879,7.327888,4.6646447,10.431386562556035,9.019749130405291,fall
10/07/2020, 21:12:17,-10.191031,-1.1246266,1.9214365,3.008818,7.844418,4.9357314,10.431386562556035,9.744194389945303,fall
10/07/2020, 21:12:17,-12.102897,-1.1102697,2.4119651,3.008818,7.844418,4.9357314,12.390737783730819,9.744194389945303,fall
10/07/2020, 21:12:17,-12.102897,-1.1102697,2.4119651,3.6535647,8.37438,5.120119,12.390737783730819,10.473509285615263,fall
10/07/2020, 21:12:17,-14.388042,-1.160519,3.0819557,3.6535647,8.37438,5.120119,14.760115875556615,10.473509285615263,fall
10/07/2020, 21:12:17,-14.388042,-1.160519,3.0819557,4.317849,8.860383,5.0920334,14.760115875556615,11.09409810995241,fall
10/07/2020, 21:12:17,-17.288143,-1.6342978,4.3788652,4.317849,8.860383,5.0920334,17.9088046533785,11.09409810995241,fall
10/07/2020, 21:12:17,-17.288143,-1.6342978,4.3788652,5.1372147,9.267013,4.8917713,17.9088046533785,11.670386606260706,fall
10/07/2020, 21:12:17,-20.56631,-2.9168508,6.465407,5.1372147,9.267013,4.8917713,21.755060290712887,11.670386606260706,fall
10/07/2020, 21:12:17,-20.56631,-2.9168508,6.465407,6.2337723,9.645557,4.58283,21.755060290712887,12.365234522987107,fall
10/07/2020, 21:12:17,-23.732016,-4.2592244,8.752945,6.2337723,9.645557,4.58283,25.650801210675912,12.365234522987107,fall
10/07/2020, 21:12:17,-23.732016,-4.2592244,8.752945,7.514718,9.92397,4.18719,25.650801210675912,13.133496602099529,fall
10/07/2020, 21:12:17,-26.21098,-4.8526444,10.250853,7.514718,9.92397,4.18719,28.55947445509682,13.133496602099529,fall
10/07/2020, 21:12:17,-26.21098,-4.8526444,10.250853,8.712628,9.235264,3.3812568,28.55947445509682,13.138983545195126,fall
10/07/2020, 21:12:17,-30.376883,-5.419743,11.739188,8.712628,9.235264,3.3812568,33.01419615791727,13.138983545195126,fall
10/07/2020, 21:12:17,-30.376883,-5.419743,11.739188,6.1837068,3.855048,1.0061955,33.01419615791727,7.356089545599719,fall
10/07/2020, 21:12:17,-39.69932,1.0193424,27.921848,6.1837068,3.855048,1.0061955,48.54590423979801,7.356089545599719,fall
10/07/2020, 21:12:18,-9.24826,-1.4883357,1.9310079,0.029306669,0.12699556,-0.058613338,9.564216601724254,0.1429065335377831,fall
10/07/2020, 21:12:18,-9.24826,-1.4883357,1.9310079,0.019537779,0.12577444,-0.058613338,9.564216601724254,0.1401301490862208,fall
10/07/2020, 21:12:18,-9.221938,-1.5074782,1.9573289,0.019537779,0.12577444,-0.058613338,9.547134127716905,0.1401301490862208,fall
10/07/2020, 21:12:18,-9.221938,-1.5074782,1.9573289,0.019537779,0.117226675,-0.05617111,9.547134127716905,0.13144965559297647,fall
10/07/2020, 21:12:18,-9.188439,-1.4596218,1.8640088,0.019537779,0.117226675,-0.05617111,9.488542698998286,0.13144965559297647,fall
10/07/2020, 21:12:18,-9.188439,-1.4596218,1.8640088,0.025643334,0.10379445,-0.057392225,9.488542698998286,0.12134552102266667,fall
10/07/2020, 21:12:18,-9.140582,-1.3591232,1.8329022,0.025643334,0.10379445,-0.057392225,9.42109267813247,0.12134552102266667,fall
10/07/2020, 21:12:18,-9.140582,-1.3591232,1.8329022,0.025643334,0.08425667,-0.07448778,9.42109267813247,0.11534815584419056,fall
10/07/2020, 21:12:18,-9.23151,-1.430908,1.7659031,0.025643334,0.08425667,-0.07448778,9.507191556586292,0.11534815584419056,fall
10/07/2020, 21:12:18,-9.23151,-1.430908,1.7659031,0.023201112,0.059834447,-0.081814446,9.507191556586292,0.10398103723589619,fall
10/07/2020, 21:12:18,-9.327223,-1.4883357,1.6630118,0.023201112,0.059834447,-0.081814446,9.590507654078374,0.10398103723589619,fall
10/07/2020, 21:12:18,-9.327223,-1.4883357,1.6630118,0.02198,0.026864445,-0.09036223,9.590507654078374,0.09679954109615202,fall
10/07/2020, 21:12:18,-9.360723,-1.4859428,1.6247265,0.02198,0.026864445,-0.09036223,9.6161784998053,0.09679954109615202,fall
10/07/2020, 21:12:18,-9.360723,-1.4859428,1.6247265,0.02198,-0.0012211112,-0.10013112,9.6161784998053,0.1025224467840189,fall
10/07/2020, 21:12:18,-9.391829,-1.4548361,1.6295122,0.02198,-0.0012211112,-0.10013112,9.642525676074879,0.1025224467840189,fall
10/07/2020, 21:12:18,-9.391829,-1.4548361,1.6295122,0.014653334,-0.034191113,-0.102573335,9.642525676074879,0.10911022638930053,fall
10/07/2020, 21:12:18,-9.360723,-1.5314065,1.6007984,0.014653334,-0.034191113,-0.102573335,9.619297679985818,0.10911022638930053,fall
10/07/2020, 21:12:18,-9.360723,-1.5314065,1.6007984,0.02075889,-0.051286668,-0.109900005,9.619297679985818,0.12304172017912422,fall
10/07/2020, 21:12:18,-9.315259,-1.5553347,1.6893328,0.02075889,-0.051286668,-0.109900005,9.59411076149629,0.12304172017912422,fall
10/07/2020, 21:12:18,-9.315259,-1.5553347,1.6893328,0.026864445,-0.06349778,-0.109900005,9.59411076149629,0.1297369562560121,fall
10/07/2020, 21:12:19,-11.016556,-0.083748795,5.895915,-3.0552201,-2.920898,-1.8817323,12.495332300804751,4.626762533185927,fall
10/07/2020, 21:12:19,-10.4566345,-0.41156548,5.9437714,-3.0552201,-2.920898,-1.8817323,12.034907962661508,4.626762533185927,fall
10/07/2020, 21:12:19,-10.4566345,-0.41156548,5.9437714,-3.448418,-2.955089,-1.9379034,12.034907962661508,4.937570979145071,fall
10/07/2020, 21:12:19,-9.765109,-1.0097711,6.2237315,-3.448418,-2.955089,-1.9379034,11.623761297184844,4.937570979145071,fall
10/07/2020, 21:12:19,-9.765109,-1.0097711,6.2237315,-3.768349,-2.9074657,-1.9379034,11.623761297184844,5.1389960162297035,fall
10/07/2020, 21:12:19,-9.004191,-1.5122639,6.558727,-3.768349,-2.9074657,-1.9379034,11.241854913771368,5.1389960162297035,fall
10/07/2020, 21:12:19,-9.004191,-1.5122639,6.558727,-4.0418777,-2.7975657,-1.8988279,11.241854913771368,5.269601217343979,fall
10/07/2020, 21:12:19,-8.248059,-1.7826529,6.855437,-4.0418777,-2.7975657,-1.8988279,10.87222823128741,5.269601217343979,fall
10/07/2020, 21:12:19,-8.248059,-1.7826529,6.855437,-4.2799945,-2.7169724,-1.8499835,10.87222823128741,5.3965480032081405,fall
10/07/2020, 21:12:19,-7.515856,-1.8376877,7.152147,-4.2799945,-2.7169724,-1.8499835,10.536526397298102,5.3965480032081405,fall
10/07/2020, 21:12:19,-7.515856,-1.8376877,7.152147,-4.4753723,-2.6644645,-1.7925912,10.536526397298102,5.508331103507493,fall
10/07/2020, 21:12:19,-6.798009,-1.7587247,7.3866434,-4.4753723,-2.6644645,-1.7925912,10.19159156635816,5.508331103507493,fall
10/07/2020, 21:12:19,-6.798009,-1.7587247,7.3866434,-4.5620713,-2.614399,-1.7217667,10.19159156635816,5.5328163955684,fall
10/07/2020, 21:12:19,-6.0514483,-1.5218352,7.3603225,-4.5620713,-2.614399,-1.7217667,9.6493707782905,5.5328163955684,fall
10/07/2020, 21:12:19,-6.0514483,-1.5218352,7.3603225,-4.464382,-2.6217256,-1.6655957,9.6493707782905,5.438599263952076,fall
10/07/2020, 21:12:19,-5.194818,-1.2753744,7.2382884,-4.464382,-2.6217256,-1.6655957,9.000307391988565,5.438599263952076,fall
10/07/2020, 21:12:19,-5.194818,-1.2753744,7.2382884,-4.2042856,-2.691329,-1.6643745,9.000307391988565,5.262072953329519,fall
10/07/2020, 21:12:19,-4.1587257,-1.2251252,7.1066833,-4.2042856,-2.691329,-1.6643745,8.324714913099413,5.262072953329519,fall
10/07/2020, 21:12:19,-4.1587257,-1.2251252,7.1066833,-3.8941236,-2.756048,-1.6949023,8.324714913099413,5.062873931412823,fall
10/07/2020, 21:12:19,-2.9862428,-1.4404793,7.0085773,-3.8941236,-2.756048,-1.6949023,7.753243377214086,5.062873931412823,fall
10/07/2020, 21:12:20,-6.448657,-14.569897,-20.573488,6.7380915,0.54095227,-0.18683001,26.021827098250338,6.762352508519831,fall
10/07/2020, 21:12:20,-6.448657,-14.569897,-20.573488,8.839623,0.9878789,-0.25521225,26.021827098250338,8.898313368762869,fall
10/07/2020, 21:12:20,-6.4127645,-9.056833,-16.125233,8.839623,0.9878789,-0.25521225,19.574802872867107,8.898313368762869,fall
10/07/2020, 21:12:20,-6.4127645,-9.056833,-16.125233,9.157112,1.5349368,-0.22468445,19.574802872867107,9.287583993916797,fall
10/07/2020, 21:12:20,-6.2811594,-5.235496,-13.050455,9.157112,1.5349368,-0.22468445,15.400576625336045,9.287583993916797,fall
10/07/2020, 21:12:20,-6.2811594,-5.235496,-13.050455,7.4964013,1.9159234,-0.08669889,15.400576625336045,7.7378492882384595,fall
10/07/2020, 21:12:20,-5.910272,-2.510071,-9.640682,7.4964013,1.9159234,-0.08669889,11.583372861435903,7.7378492882384595,fall
10/07/2020, 21:12:20,-5.910272,-2.510071,-9.640682,4.6817403,2.3127844,-0.08792,11.583372861435903,5.222584977632207,fall
10/07/2020, 21:12:20,-5.505885,-0.4426722,-5.8360944,4.6817403,2.3127844,-0.08792,8.03559128359672,5.222584977632207,fall
10/07/2020, 21:12:20,-5.505885,-0.4426722,-5.8360944,1.922029,2.9099078,-0.36267,8.03559128359672,3.506178630357786,fall
10/07/2020, 21:12:20,-5.682954,0.13399807,-2.1296122,1.922029,2.9099078,-0.36267,6.070351548398518,3.506178630357786,fall
10/07/2020, 21:12:20,-5.682954,0.13399807,-2.1296122,-0.14897557,3.437428,-0.96589893,6.070351548398518,3.573662785272467,fall
10/07/2020, 21:12:20,-6.3864436,-1.7611175,0.1268196,-0.14897557,3.437428,-0.96589893,6.626030482799951,3.573662785272467,fall
10/07/2020, 21:12:20,-6.3864436,-1.7611175,0.1268196,-1.3017045,3.7072935,-1.4946401,6.626030482799951,4.203856433035103,fall
10/07/2020, 21:12:20,-7.7096744,-4.634897,0.27996024,-1.3017045,3.7072935,-1.4946401,8.999984933460398,4.203856433035103,fall
10/07/2020, 21:12:20,-7.7096744,-4.634897,0.27996024,-1.2394278,3.1333714,-1.5215045,8.999984933460398,3.6971845137837023,fall
10/07/2020, 21:12:20,-9.47797,-7.1425757,0.40677986,-1.2394278,3.1333714,-1.5215045,11.874922135411962,3.6971845137837023,fall
10/07/2020, 21:12:20,-9.47797,-7.1425757,0.40677986,-0.2503278,1.9232501,-1.0672512,11.874922135411962,2.213725368652128,fall
10/07/2020, 21:12:20,-10.310673,-8.573483,0.8757731,-0.2503278,1.9232501,-1.0672512,13.43806422066605,2.213725368652128,fall
10/07/2020, 21:12:20,-10.310673,-8.573483,0.8757731,1.1588345,0.95735115,-0.40296668,13.43806422066605,1.5562135663744494,fall
10/07/2020, 21:12:21,-6.458228,-7.647461,-0.6723832,-0.14531223,-0.11234222,0.10379445,10.032171663247667,0.21097324050469643,fall
10/07/2020, 21:12:21,-6.458228,-7.647461,-0.6723832,-0.11478445,-0.091583334,0.08425667,10.032171663247667,0.16929903582187053,fall
10/07/2020, 21:12:21,-6.4845495,-7.7551384,-0.7848458,-0.11478445,-0.091583334,0.08425667,10.139405162225126,0.16929903582187053,fall
10/07/2020, 21:12:21,-6.4845495,-7.7551384,-0.7848458,-0.1306589,-0.070824444,0.068382226,10.139405162225126,0.16359699727443516,fall
10/07/2020, 21:12:21,-6.539584,-7.908279,-0.9403793,-0.1306589,-0.070824444,0.068382226,10.304918732256578,0.16359699727443516,fall
10/07/2020, 21:12:21,-6.539584,-7.908279,-0.9403793,-0.17950334,-0.04396,0.024422223,10.304918732256578,0.1864145233401877,fall
10/07/2020, 21:12:21,-6.6185474,-8.140383,-1.1174482,-0.17950334,-0.04396,0.024422223,10.550814769595352,0.1864145233401877,fall
10/07/2020, 21:12:21,-6.6185474,-8.140383,-1.1174482,-0.21247335,-0.0024422223,-0.036633335,10.550814769595352,0.21562209813744357,fall
10/07/2020, 21:12:21,-6.73101,-8.353344,-1.2155539,-0.21247335,-0.0024422223,-0.036633335,10.796407814320117,0.21562209813744357,fall
10/07/2020, 21:12:21,-6.73101,-8.353344,-1.2155539,-0.16973445,0.03297,-0.081814446,10.796407814320117,0.19128619215523857,fall
10/07/2020, 21:12:21,-6.8339014,-8.516056,-1.2466606,-0.16973445,0.03297,-0.081814446,10.98997642742947,0.19128619215523857,fall
10/07/2020, 21:12:21,-6.8339014,-8.516056,-1.2466606,-0.054950003,0.05372889,-0.11356334,10.98997642742947,0.1371237680010189,fall
10/07/2020, 21:12:21,-6.8578296,-8.623733,-1.3064811,-0.054950003,0.05372889,-0.11356334,11.095291016042534,0.1371237680010189,fall
10/07/2020, 21:12:21,-6.8578296,-8.623733,-1.3064811,0.08669889,0.06716111,-0.13798556,11.095291016042534,0.17625925964810937,fall
10/07/2020, 21:12:21,-6.814759,-8.707481,-1.3064811,0.08669889,0.06716111,-0.13798556,11.134094582827204,0.17625925964810937,fall
10/07/2020, 21:12:21,-6.814759,-8.707481,-1.3064811,0.24666445,0.08669889,-0.15752333,11.134094582827204,0.30524358949293673,fall
10/07/2020, 21:12:21,-6.7238317,-8.671589,-1.1844472,0.24666445,0.08669889,-0.15752333,11.036724206645722,0.30524358949293673,fall
10/07/2020, 21:12:21,-6.7238317,-8.671589,-1.1844472,0.39197668,0.13310112,-0.18805112,11.036724206645722,0.454670048373132,fall
10/07/2020, 21:12:21,-6.5850477,-8.532805,-1.0456635,0.39197668,0.13310112,-0.18805112,10.82889811241566,0.454670048373132,fall
10/07/2020, 21:12:21,-6.5850477,-8.532805,-1.0456635,0.47379112,0.18194556,-0.24178001,10.82889811241566,0.5621741633826104,fall
10/07/2020, 21:12:22,3.249453,-6.4965134,5.5800624,0.085477784,-0.4041878,-0.88408446,9.159734026308149,0.9758481264983647,fall
10/07/2020, 21:12:22,3.249453,-6.4965134,5.5800624,0.028085556,-0.39930335,-0.88042116,9.159734026308149,0.9671470328531109,fall
10/07/2020, 21:12:22,3.4025939,-6.5443697,5.5776696,0.028085556,-0.39930335,-0.88042116,9.247530375703489,0.9671470328531109,fall
10/07/2020, 21:12:22,3.4025939,-6.5443697,5.5776696,0.0024422223,-0.38953447,-0.89019006,9.247530375703489,0.9716899825001248,fall
10/07/2020, 21:12:22,3.5102708,-6.680761,5.65424,0.0024422223,-0.38953447,-0.89019006,9.430005220864427,0.9716899825001248,fall
10/07/2020, 21:12:22,3.5102708,-6.680761,5.65424,0.019537779,-0.37610224,-0.8975167,9.430005220864427,0.973329797622726,fall
10/07/2020, 21:12:22,3.5940197,-6.8482585,5.7930236,0.019537779,-0.37610224,-0.8975167,9.663060795872637,0.973329797622726,fall
10/07/2020, 21:12:22,3.5940197,-6.8482585,5.7930236,0.070824444,-0.34435335,-0.8987378,9.663060795872637,0.9650517821024922,fall
10/07/2020, 21:12:22,3.6777685,-7.001399,5.953343,0.070824444,-0.34435335,-0.8987378,9.898881820162146,0.9650517821024922,fall
10/07/2020, 21:12:22,3.6777685,-7.001399,5.953343,0.11112112,-0.30405667,-0.8816423,9.898881820162146,0.9391972516240726,fall
10/07/2020, 21:12:22,3.7758741,-7.02772,6.058627,0.11112112,-0.30405667,-0.8816423,10.017636259555283,0.9391972516240726,fall
10/07/2020, 21:12:22,3.7758741,-7.02772,6.058627,0.12211112,-0.27230778,-0.8718734,10.017636259555283,0.921534504467755,fall
10/07/2020, 21:12:22,3.8620157,-7.003792,6.1328044,0.12211112,-0.27230778,-0.8718734,10.078668309405685,0.921534504467755,fall
10/07/2020, 21:12:22,3.8620157,-7.003792,6.1328044,0.11356334,-0.2613178,-0.8718734,10.078668309405685,0.9172495882248135,fall
10/07/2020, 21:12:22,3.952943,-6.8889365,6.1567326,0.11356334,-0.2613178,-0.8718734,10.049306504582605,0.9172495882248135,fall
10/07/2020, 21:12:22,3.952943,-6.8889365,6.1567326,0.098910004,-0.2613178,-0.88896894,10.049306504582605,0.931845459495759,fall
10/07/2020, 21:12:22,4.0295134,-6.71426,6.202196,0.098910004,-0.2613178,-0.88896894,9.989269409977007,0.931845459495759,fall
10/07/2020, 21:12:22,4.0295134,-6.71426,6.202196,0.09524667,-0.26742333,-0.9060645,9.989269409977007,0.9494946360629409,fall
10/07/2020, 21:12:22,4.130012,-6.5778694,6.233303,0.09524667,-0.26742333,-0.9060645,9.958887117551932,0.9494946360629409,fall
10/07/2020, 21:12:22,4.130012,-6.5778694,6.233303,0.09036223,-0.26742333,-0.9182756,9.958887117551932,0.9606823817115697,fall
10/07/2020, 21:12:23,-9.092726,-5.06082,-1.8831514,3.6157103,3.6279213,-1.2076789,10.575245670238303,5.262476822058205,fall
10/07/2020, 21:12:23,-10.60499,-6.5491557,-1.3950156,3.6157103,3.6279213,-1.2076789,12.54206211414758,5.262476822058205,fall
10/07/2020, 21:12:23,-10.60499,-6.5491557,-1.3950156,3.9112191,2.6180623,-0.5226356,12.54206211414758,4.73550767489057,fall
