DATE,TIME,ax,ay,az,gx,gy,gz,ma,mg,label
10/07/2020, 21:36:34,2.1966112,2.9503503,9.174082,0.028085556,0.12699556,0.037854444,9.883999409795628,0.13546080816244846,fall
10/07/2020, 21:36:34,2.1966112,2.9503503,9.174082,-0.109900005,0.12211112,0.064718895,9.883999409795628,0.17657200209726626,fall
10/07/2020, 21:36:34,1.9549361,3.0843484,9.3104725,-0.109900005,0.12211112,0.064718895,10.000993880385668,0.17657200209726626,fall
10/07/2020, 21:36:34,1.9549361,3.0843484,9.3104725,-0.14287001,0.06960334,0.08669889,10.000993880385668,0.18103359277837464,fall
10/07/2020, 21:36:34,1.8233309,3.0652058,9.4229355,-0.14287001,0.06960334,0.08669889,10.075303238021615,0.18103359277837464,fall
10/07/2020, 21:36:34,1.8233309,3.0652058,9.4229355,-0.08425667,0.017095556,0.09524667,10.075303238021615,0.1283096776116055,fall
10/07/2020, 21:36:34,1.7970098,3.048456,9.482756,-0.08425667,0.017095556,0.09524667,10.121510902090861,0.1283096776116055,fall
10/07/2020, 21:36:34,1.7970098,3.048456,9.482756,0.0048844446,-0.017095556,0.064718895,10.121510902090861,0.06711669819794722,fall
10/07/2020, 21:36:34,1.8568304,2.9575288,9.516255,0.0048844446,-0.017095556,0.064718895,10.136760438676092,0.06711669819794722,fall
10/07/2020, 21:36:34,1.8568304,2.9575288,9.516255,0.08792,-0.048844445,0.042738892,10.136760438676092,0.10928092066397958,fall
10/07/2020, 21:36:34,1.9357935,2.8977082,9.461221,0.08792,-0.048844445,0.042738892,10.08259426664046,0.10928092066397958,fall
10/07/2020, 21:36:34,1.9357935,2.8977082,9.461221,0.11844778,-0.047623336,0.026864445,10.08259426664046,0.1304590253275487,fall
10/07/2020, 21:36:34,2.0075781,2.8426733,9.298509,0.11844778,-0.047623336,0.026864445,9.92841500295624,0.1304590253275487,fall
10/07/2020, 21:36:34,2.0075781,2.8426733,9.298509,0.11478445,-0.034191113,0.008547778,9.92841500295624,0.12007317156096756,fall
10/07/2020, 21:36:34,2.053042,2.8187451,9.162118,0.11478445,-0.034191113,0.008547778,9.803301015856642,0.12007317156096756,fall
10/07/2020, 21:36:34,2.053042,2.8187451,9.162118,0.09280445,-0.015874445,0.0036633336,9.803301015856642,0.09422358186747411,fall
10/07/2020, 21:36:34,2.036292,2.8378878,9.030513,0.09280445,-0.015874445,0.0036633336,9.682471481356556,0.09422358186747411,fall
10/07/2020, 21:36:34,2.036292,2.8378878,9.030513,0.06227667,-0.01099,0.009768889,9.682471481356556,0.06398902083761102,fall
10/07/2020, 21:36:34,1.9908284,2.8307092,8.977871,0.06227667,-0.01099,0.009768889,9.621771095618243,0.06398902083761102,fall
10/07/2020, 21:36:34,1.9908284,2.8307092,8.977871,0.029306669,0.009768889,0.018316668,9.621771095618243,0.03591395749049285,fall
10/07/2020, 21:36:35,-4.1347976,5.237889,7.1473613,1.4116045,0.7485411,0.18805112,9.778384500205613,1.6088207974013724,fall
10/07/2020, 21:36:35,-4.1347976,5.237889,7.1473613,1.1905833,0.9744467,0.20514667,9.778384500205613,1.5521340998181041,fall
10/07/2020, 21:36:35,-3.8069808,5.168497,6.9583282,1.1905833,0.9744467,0.20514667,9.467037408659202,1.5521340998181041,fall
10/07/2020, 21:36:35,-3.8069808,5.168497,6.9583282,0.8975167,1.1942468,0.23811668,9.467037408659202,1.5127660675873331,fall
10/07/2020, 21:36:35,-3.656233,5.259424,6.843473,0.8975167,1.1942468,0.23811668,9.37351083729388,1.5127660675873331,fall
10/07/2020, 21:36:35,-3.656233,5.259424,6.843473,0.6777167,1.339559,0.16240779,9.37351083729388,1.5099981395930255,fall
10/07/2020, 21:36:35,-3.6753755,5.2498527,6.5443697,0.6777167,1.339559,0.16240779,9.159591281580495,1.5099981395930255,fall
10/07/2020, 21:36:35,-3.6753755,5.2498527,6.5443697,0.6056711,1.4250367,0.13554333,9.159591281580495,1.5543291134318005,fall
10/07/2020, 21:36:35,-3.900301,4.938786,6.3696938,0.6056711,1.4250367,0.13554333,8.954158459979727,1.5543291134318005,fall
10/07/2020, 21:36:35,-3.900301,4.938786,6.3696938,0.6777167,1.3969512,0.17950334,8.954158459979727,1.5630079932991543,fall
10/07/2020, 21:36:35,-4.26401,4.6037908,6.4797635,0.6777167,1.3969512,0.17950334,9.02019985117905,1.5630079932991543,fall
10/07/2020, 21:36:35,-4.26401,4.6037908,6.4797635,0.89263225,1.3432223,0.29917222,9.02019985117905,1.6402872877792283,fall
10/07/2020, 21:36:35,-4.668397,4.625326,6.7645097,0.89263225,1.3432223,0.29917222,9.431127361981083,1.6402872877792283,fall
10/07/2020, 21:36:35,-4.668397,4.625326,6.7645097,1.1624979,1.2382067,0.40296668,9.431127361981083,1.7455484529479197,fall
10/07/2020, 21:36:35,-5.0512486,4.9674997,6.745367,1.1624979,1.2382067,0.40296668,9.782184937766722,1.7455484529479197,fall
10/07/2020, 21:36:35,-5.0512486,4.9674997,6.745367,1.2821667,1.0990001,0.5250778,9.782184937766722,1.7684624465948053,fall
10/07/2020, 21:36:35,-5.276174,5.271388,6.6017976,1.2821667,1.0990001,0.5250778,9.960385339539732,1.7684624465948053,fall
10/07/2020, 21:36:35,-5.276174,5.271388,6.6017976,1.23088,0.9866578,0.6667267,9.960385339539732,1.712624811018549,fall
10/07/2020, 21:36:35,-5.2905307,5.4053864,6.393622,1.23088,0.9866578,0.6667267,9.903853735786745,1.712624811018549,fall
10/07/2020, 21:36:35,-5.2905307,5.4053864,6.393622,1.119759,0.9060645,0.79128003,9.903853735786745,1.6434528046825205,fall
10/07/2020, 21:36:36,-2.115255,7.623533,1.4859428,1.6729223,3.9148824,0.13676445,8.049880885078535,4.259539617849706,fall
10/07/2020, 21:36:36,-2.115255,7.623533,1.4859428,1.8902801,4.19818,0.08059334,8.049880885078535,4.604820433793873,fall
10/07/2020, 21:36:36,-2.0841484,7.7240314,1.3782659,1.8902801,4.19818,0.08059334,8.118124978844522,4.604820433793873,fall
10/07/2020, 21:36:36,-2.0841484,7.7240314,1.3782659,2.012391,4.536428,-0.0036633336,8.118124978844522,4.962752269694268,fall
10/07/2020, 21:36:36,-2.1272194,7.587641,1.713261,2.012391,4.536428,-0.0036633336,8.064280387012122,4.962752269694268,fall
10/07/2020, 21:36:36,-2.1272194,7.587641,1.713261,1.9745368,4.660981,-0.16362889,8.064280387012122,5.064614046523224,fall
10/07/2020, 21:36:36,-2.6344976,7.8484583,2.0482562,1.9745368,4.660981,-0.16362889,8.528436471713258,5.064614046523224,fall
10/07/2020, 21:36:36,-2.6344976,7.8484583,2.0482562,1.6973445,4.4680457,-0.54339445,8.528436471713258,4.810373010202634,fall
10/07/2020, 21:36:36,-3.306881,8.303095,2.4239295,1.6973445,4.4680457,-0.54339445,9.260252692826967,4.810373010202634,fall
10/07/2020, 21:36:36,-3.306881,8.303095,2.4239295,1.0684723,4.0137925,-0.8645467,9.260252692826967,4.242594060244322,fall
10/07/2020, 21:36:36,-4.168297,8.518449,2.5339992,1.0684723,4.0137925,-0.8645467,9.81630382383226,4.242594060244322,fall
10/07/2020, 21:36:36,-4.168297,8.518449,2.5339992,0.3309211,3.2591457,-1.0135223,9.81630382383226,3.429105875117348,fall
10/07/2020, 21:36:36,-5.0775695,8.595019,2.0841484,0.3309211,3.2591457,-1.0135223,10.198026471735687,3.429105875117348,fall
10/07/2020, 21:36:36,-5.0775695,8.595019,2.0841484,-0.21369445,2.2004423,-1.17593,10.198026471735687,2.5040812919483306,fall
10/07/2020, 21:36:36,-5.197211,9.784252,1.268196,-0.21369445,2.2004423,-1.17593,11.151273985772892,2.5040812919483306,fall
10/07/2020, 21:36:36,-5.197211,9.784252,1.268196,-0.68138003,1.0611455,-1.8646368,11.151273985772892,2.2510395226818436,fall
10/07/2020, 21:36:36,-4.85743,11.569298,0.55752766,-0.68138003,1.0611455,-1.8646368,12.560020480939123,2.2510395226818436,fall
10/07/2020, 21:36:36,-4.85743,11.569298,0.55752766,-1.1563922,0.09402556,-2.7963445,12.560020480939123,3.027478560078208,fall
10/07/2020, 21:36:36,-5.6183476,11.057234,-0.11006984,-1.1563922,0.09402556,-2.7963445,12.40324010757784,3.027478560078208,fall
10/07/2020, 21:36:36,-5.6183476,11.057234,-0.11006984,-1.34078,-0.7570889,-3.140698,12.40324010757784,3.4978362332536554,fall
10/07/2020, 21:36:37,3.278167,-3.9553359,-19.788643,1.4262578,1.5654645,-6.5952215,20.444594587169064,6.926892335826274,fall
10/07/2020, 21:36:37,3.278167,-3.9553359,-19.788643,2.0014012,0.6423045,-5.7636447,20.444594587169064,6.13496225952999,fall
10/07/2020, 21:36:37,4.5248275,-1.9405792,-18.546768,2.0014012,0.6423045,-5.7636447,19.189125084324136,6.13496225952999,fall
10/07/2020, 21:36:37,4.5248275,-1.9405792,-18.546768,2.4202423,0.62643003,-6.0689225,19.189125084324136,6.563673359884367,fall
10/07/2020, 21:36:37,5.4891353,-1.2179468,-12.016755,2.4202423,0.62643003,-6.0689225,13.267117377998701,6.563673359884367,fall
10/07/2020, 21:36:37,5.4891353,-1.2179468,-12.016755,1.7840434,0.54339445,-6.5195127,13.267117377998701,6.781012736033696,fall
10/07/2020, 21:36:37,5.0799623,-3.8572302,-11.7463665,1.7840434,0.54339445,-6.5195127,13.366426866648208,6.781012736033696,fall
10/07/2020, 21:36:37,5.0799623,-3.8572302,-11.7463665,-0.057392225,0.16729222,-5.2080393,13.366426866648208,5.211041521253712,fall
10/07/2020, 21:36:37,5.838487,-5.541777,-11.090733,-0.057392225,0.16729222,-5.2080393,13.704144446889739,5.211041521253712,fall
10/07/2020, 21:36:37,5.838487,-5.541777,-11.090733,-1.6485001,-1.1673822,-3.8953445,13.704144446889739,4.38794286261206,fall
10/07/2020, 21:36:37,7.554141,-6.506085,-10.052248,-1.6485001,-1.1673822,-3.8953445,14.157749742472456,4.38794286261206,fall
10/07/2020, 21:36:37,7.554141,-6.506085,-10.052248,-1.4946401,-1.5459267,-2.4324534,14.157749742472456,3.2466394793709297,fall
10/07/2020, 21:36:37,9.269794,-5.0105705,-8.908479,-1.4946401,-1.5459267,-2.4324534,13.798402074498318,3.2466394793709297,fall
10/07/2020, 21:36:37,9.269794,-5.0105705,-8.908479,-0.83890337,-0.39075556,-2.2798145,13.798402074498318,2.4604883340389896,fall
10/07/2020, 21:36:37,8.635697,-3.414558,-9.882358,-0.83890337,-0.39075556,-2.2798145,13.560806264444093,2.4604883340389896,fall
10/07/2020, 21:36:37,8.635697,-3.414558,-9.882358,-0.3492378,0.20148334,-1.7962545,13.560806264444093,1.840948902498179,fall
10/07/2020, 21:36:37,6.8721867,-4.8526444,-11.303694,-0.3492378,0.20148334,-1.7962545,14.090727464268866,1.840948902498179,fall
10/07/2020, 21:36:37,6.8721867,-4.8526444,-11.303694,-0.14653334,-0.17095557,-0.56293225,14.090727464268866,0.6062924604105384,fall
10/07/2020, 21:36:37,7.068398,-3.4313076,-11.286944,-0.14653334,-0.17095557,-0.56293225,13.752499243756558,0.6062924604105384,fall
10/07/2020, 21:36:37,7.068398,-3.4313076,-11.286944,-0.08425667,-0.40540892,-0.23689556,13.752499243756558,0.4770483047704698,fall
10/07/2020, 21:36:38,-1.6151553,-5.912665,-7.075577,-0.68626446,1.680249,-1.2027946,9.36120289684623,2.1773631431421094,fall
10/07/2020, 21:36:38,-0.9499506,-5.032106,-6.0394845,-0.68626446,1.680249,-1.2027946,7.918324895469328,2.1773631431421094,fall
10/07/2020, 21:36:38,-0.9499506,-5.032106,-6.0394845,-0.43471557,1.6387311,-1.5984346,7.918324895469328,2.330109521597294,fall
10/07/2020, 21:36:38,-0.634098,-5.168497,-6.391229,-0.43471557,1.6387311,-1.5984346,8.243982803889105,2.330109521597294,fall
10/07/2020, 21:36:38,-0.634098,-5.168497,-6.391229,-0.5641534,1.4445745,-1.7986968,8.243982803889105,2.37494725510797,fall
10/07/2020, 21:36:38,-0.32063824,-5.4293146,-6.4606214,-0.5641534,1.4445745,-1.7986968,8.445110678331455,2.37494725510797,fall
10/07/2020, 21:36:38,-0.32063824,-5.4293146,-6.4606214,-0.66428447,1.34078,-2.0111701,8.445110678331455,2.5067449577160668,fall
10/07/2020, 21:36:38,0.23688944,-5.3814583,-6.948757,-0.66428447,1.34078,-2.0111701,8.792123525153107,2.5067449577160668,fall
10/07/2020, 21:36:38,0.23688944,-5.3814583,-6.948757,-0.79128003,1.2382067,-2.3359857,8.792123525153107,2.7597298845103073,fall
10/07/2020, 21:36:38,0.6652047,-5.623133,-7.173682,-0.79128003,1.2382067,-2.3359857,9.139137846485115,2.7597298845103073,fall
10/07/2020, 21:36:38,0.6652047,-5.623133,-7.173682,-0.7228978,1.1624979,-2.5875347,9.139137846485115,2.9273397878932474,fall
10/07/2020, 21:36:38,1.0887343,-5.6733823,-7.3603225,-0.7228978,1.1624979,-2.5875347,9.356653021877126,2.9273397878932474,fall
10/07/2020, 21:36:38,1.0887343,-5.6733823,-7.3603225,-0.63742,1.10999,-2.8708324,9.356653021877126,3.14325642821684,fall
10/07/2020, 21:36:38,1.3280165,-5.9437714,-7.125826,-0.63742,1.10999,-2.8708324,9.37387008569696,3.14325642821684,fall
10/07/2020, 21:36:38,1.3280165,-5.9437714,-7.125826,-0.5702589,0.9304867,-2.9868379,9.37387008569696,3.1799687287644542,fall
10/07/2020, 21:36:38,1.5050855,-6.3074803,-7.219146,-0.5702589,0.9304867,-2.9868379,9.70389901867581,3.1799687287644542,fall
10/07/2020, 21:36:38,1.5050855,-6.3074803,-7.219146,-0.64841,0.68260115,-2.8598423,9.70389901867581,3.0108267760611693,fall
10/07/2020, 21:36:38,1.7635103,-6.472585,-7.3770723,-0.64841,0.68260115,-2.8598423,9.971234836009987,3.0108267760611693,fall
10/07/2020, 21:36:38,1.7635103,-6.472585,-7.3770723,-0.78395337,0.43227336,-2.5679967,9.971234836009987,2.719568053712028,fall
10/07/2020, 21:36:38,2.4119651,-6.4941206,-7.645068,-0.78395337,0.43227336,-2.5679967,10.31689126817087,2.719568053712028,fall
10/07/2020, 21:36:39,13.158132,-3.8620157,4.065406,-1.0990001,3.986928,1.0525978,14.303115651194009,4.267476775004987,fall
10/07/2020, 21:36:39,13.158132,-3.8620157,4.065406,-0.80104893,4.1517777,1.5898868,14.303115651194009,4.517375102989057,fall
10/07/2020, 21:36:39,12.607782,-3.7591243,3.7040894,-0.80104893,4.1517777,1.5898868,13.66775291651619,4.517375102989057,fall
10/07/2020, 21:36:39,12.607782,-3.7591243,3.7040894,-0.45059,4.083396,2.0807734,13.66775291651619,4.6050810698031945,fall
10/07/2020, 21:36:39,11.653047,-3.4504502,3.4169507,-0.45059,4.083396,2.0807734,12.62436746178604,4.6050810698031945,fall
10/07/2020, 21:36:39,11.653047,-3.4504502,3.4169507,-0.03297,3.7036302,2.4642024,12.62436746178604,4.448624195600404,fall
10/07/2020, 21:36:39,10.360922,-3.6394832,3.1250265,-0.03297,3.7036302,2.4642024,11.417544843268756,4.448624195600404,fall
10/07/2020, 21:36:39,10.360922,-3.6394832,3.1250265,0.4689067,3.2689145,2.6437056,11.417544843268756,4.230231031720636,fall
10/07/2020, 21:36:39,9.765109,-3.4097722,4.0295134,0.4689067,3.2689145,2.6437056,11.100490037592792,4.230231031720636,fall
10/07/2020, 21:36:39,9.765109,-3.4097722,4.0295134,0.93415004,3.1797736,2.4727502,11.100490037592792,4.134983643887507,fall
10/07/2020, 21:36:39,9.226724,-3.306881,4.8358946,0.93415004,3.1797736,2.4727502,10.929490736432118,4.134983643887507,fall
10/07/2020, 21:36:39,9.226724,-3.306881,4.8358946,1.4580067,3.2762413,2.1283967,10.929490736432118,4.170085544467503,fall
10/07/2020, 21:36:39,8.800801,-3.2805598,5.4317074,1.4580067,3.2762413,2.1283967,10.849867310910948,4.170085544467503,fall
10/07/2020, 21:36:39,8.800801,-3.2805598,5.4317074,1.9269134,3.2945578,1.7266512,10.849867310910948,4.189084706301828,fall
10/07/2020, 21:36:39,8.537591,-3.2279177,5.7140603,1.9269134,3.2945578,1.7266512,10.768490954157494,4.189084706301828,fall
10/07/2020, 21:36:39,8.537591,-3.2279177,5.7140603,2.0954268,3.3898046,1.4103833,10.768490954157494,4.22738333711217,fall
10/07/2020, 21:36:39,8.432307,-3.0317063,5.8169518,2.0954268,3.3898046,1.4103833,10.683256826382122,4.22738333711217,fall
10/07/2020, 21:36:39,8.432307,-3.0317063,5.8169518,1.9147023,3.4239957,1.2772822,10.683256826382122,4.125685589112348,fall
10/07/2020, 21:36:39,8.10449,-2.969493,5.828916,1.9147023,3.4239957,1.2772822,10.415225078772872,4.125685589112348,fall
10/07/2020, 21:36:39,8.10449,-2.969493,5.828916,1.5117356,3.2872312,1.2980411,10.415225078772872,3.8439750412056326,fall
10/07/2020, 21:36:40,4.476971,-5.087141,4.261617,1.1515079,-0.42128336,-0.17706113,8.005226769020428,1.2388707172788302,fall
10/07/2020, 21:36:40,4.476971,-5.087141,4.261617,1.2504178,-0.23201112,-0.35900667,8.005226769020428,1.3214611985211324,fall
10/07/2020, 21:36:40,4.15394,-5.063213,4.098905,1.2504178,-0.23201112,-0.35900667,7.72608352807501,1.3214611985211324,fall
10/07/2020, 21:36:40,4.15394,-5.063213,4.098905,1.3615389,-0.18805112,-0.4481478,7.72608352807501,1.4456790163192292,fall
10/07/2020, 21:36:40,3.8811584,-5.1014977,3.818945,1.3615389,-0.18805112,-0.4481478,7.461434769077662,1.4456790163192292,fall
10/07/2020, 21:36:40,3.8811584,-5.1014977,3.818945,1.3664234,-0.26620224,-0.46646446,7.461434769077662,1.46818443916756,fall
10/07/2020, 21:36:40,3.6370904,-5.1326046,3.6059837,1.3664234,-0.26620224,-0.46646446,7.2508741240230465,1.46818443916756,fall
10/07/2020, 21:36:40,3.6370904,-5.1326046,3.6059837,1.2382067,-0.40785113,-0.43960002,7.2508741240230465,1.3757712977000796,fall
10/07/2020, 21:36:40,3.4456646,-5.156533,3.4073794,1.2382067,-0.40785113,-0.43960002,7.076204440980086,1.3757712977000796,fall
10/07/2020, 21:36:40,3.4456646,-5.156533,3.4073794,1.0880101,-0.54095227,-0.36389112,7.076204440980086,1.2683895388487587,fall
10/07/2020, 21:36:40,3.2590244,-5.2235317,3.3786657,1.0880101,-0.54095227,-0.36389112,7.022955602660739,1.2683895388487587,fall
10/07/2020, 21:36:40,3.2590244,-5.2235317,3.3786657,0.9829945,-0.6801589,-0.24300112,7.022955602660739,1.2198130477236802,fall
10/07/2020, 21:36:40,3.1226335,-5.2953167,3.4121652,0.9829945,-0.6801589,-0.24300112,7.030938040795841,1.2198130477236802,fall
10/07/2020, 21:36:40,3.1226335,-5.2953167,3.4121652,0.9365923,-0.82425004,-0.12943779,7.030938040795841,1.2543314451689174,fall
10/07/2020, 21:36:40,3.0915267,-5.1613183,3.3236306,0.9365923,-0.82425004,-0.12943779,6.873373583397001,1.2543314451689174,fall
10/07/2020, 21:36:40,3.0915267,-5.1613183,3.3236306,0.9610145,-0.9426978,-0.037854444,6.873373583397001,1.3467223289981027,fall
10/07/2020, 21:36:40,3.1657043,-5.0751767,3.4121652,0.9610145,-0.9426978,-0.037854444,6.886361391227529,1.3467223289981027,fall
10/07/2020, 21:36:40,3.1657043,-5.0751767,3.4121652,1.0306178,-1.0904523,0.029306669,6.886361391227529,1.500705916116291,fall
10/07/2020, 21:36:40,3.2925239,-4.955536,3.3355947,1.0306178,-1.0904523,0.029306669,6.820868054365683,1.500705916116291,fall
10/07/2020, 21:36:40,3.2925239,-4.955536,3.3355947,1.0403867,-1.2137845,0.058613338,6.820868054365683,1.5997226843493924,fall
10/07/2020, 21:36:41,0.33260235,0.031106694,-0.09092726,0.057392225,-0.61666113,-1.1502867,0.3462076214569106,1.3064165690701297,fall
10/07/2020, 21:36:41,0.33260235,0.031106694,-0.09092726,-0.31138334,-0.59956557,-1.1698245,0.3462076214569106,1.3508988734297185,fall
10/07/2020, 21:36:41,0.31345975,-0.06460621,-0.02632105,-0.31138334,-0.59956557,-1.1698245,0.321128911299415,1.3508988734297185,fall
10/07/2020, 21:36:41,0.31345975,-0.06460621,-0.02632105,-0.68626446,-0.6984756,-1.1624979,0.321128911299415,1.5199435456501762,fall
10/07/2020, 21:36:41,0.30388847,-0.14356937,-0.11724831,-0.68626446,-0.6984756,-1.1624979,0.3559600136940284,1.5199435456501762,fall
10/07/2020, 21:36:41,0.30388847,-0.14356937,-0.11724831,-1.0293967,-0.72534,-1.1588345,0.3559600136940284,1.7113365821757363,fall
10/07/2020, 21:36:41,0.33020952,-0.11964113,-0.050249275,-1.0293967,-0.72534,-1.1588345,0.3547919384829094,1.7113365821757363,fall
10/07/2020, 21:36:41,0.33020952,-0.11964113,-0.050249275,-1.3346745,-0.70458114,-1.2040156,0.3547919384829094,1.930658991485478,fall
10/07/2020, 21:36:41,0.40917268,-0.0071784677,0.08853444,-1.3346745,-0.70458114,-1.2040156,0.41870295228116156,1.930658991485478,fall
10/07/2020, 21:36:41,0.40917268,-0.0071784677,0.08853444,-1.5569167,-0.6252089,-1.2516389,0.41870295228116156,2.0931974940695413,fall
10/07/2020, 21:36:41,0.3924229,-0.033499517,0.08135597,-1.5569167,-0.6252089,-1.2516389,0.40216508394361833,2.0931974940695413,fall
10/07/2020, 21:36:41,0.3924229,-0.033499517,0.08135597,-1.68147,-0.6203245,-1.2430911,0.40216508394361833,2.1811509481134523,fall
10/07/2020, 21:36:41,0.3900301,-0.0741775,0.014356935,-1.68147,-0.6203245,-1.2430911,0.397280620782047,2.1811509481134523,fall
10/07/2020, 21:36:41,0.3900301,-0.0741775,0.014356935,-1.7278723,-0.69237006,-1.2321012,0.397280620782047,2.2322616757025244,fall
10/07/2020, 21:36:41,0.3493521,-0.11246266,0.031106694,-1.7278723,-0.69237006,-1.2321012,0.3683237171867021,2.2322616757025244,fall
10/07/2020, 21:36:41,0.3493521,-0.11246266,0.031106694,-1.7278723,-0.7082445,-1.2125634,0.3683237171867021,2.2265360505339538,fall
10/07/2020, 21:36:41,0.39481574,-0.043070808,0.09332009,-1.7278723,-0.7082445,-1.2125634,0.4079745138677666,2.2265360505339538,fall
10/07/2020, 21:36:41,0.39481574,-0.043070808,0.09332009,-1.6521634,-0.6789378,-1.2125634,0.4079745138677666,2.158914164516018,fall
10/07/2020, 21:36:41,0.38524446,-0.031106694,0.22971097,-1.6521634,-0.6789378,-1.2125634,0.4496087716845696,2.158914164516018,fall
10/07/2020, 21:36:41,0.38524446,-0.031106694,0.22971097,-1.4812078,-0.65451556,-1.2259957,0.4496087716845696,2.031116114305534,fall
10/07/2020, 21:36:42,8.176275,-3.2638102,-4.4913282,0.02075889,0.0,-0.0061055557,9.883115051341827,0.021638144752225707,fall
10/07/2020, 21:36:42,8.176275,-3.2638102,-4.4913282,0.019537779,0.0012211112,-0.0012211112,9.883115051341827,0.01961394953681452,fall
10/07/2020, 21:36:42,8.188239,-3.2757742,-4.479364,0.019537779,0.0012211112,-0.0012211112,9.891544748252278,0.01961394953681452,fall
10/07/2020, 21:36:42,8.188239,-3.2757742,-4.479364,0.02075889,-0.0036633336,0.0,9.891544748252278,0.021079646845335778,fall
10/07/2020, 21:36:42,8.185846,-3.2877383,-4.493721,0.02075889,-0.0036633336,0.0,9.9000420150638,0.021079646845335778,fall
10/07/2020, 21:36:42,8.185846,-3.2877383,-4.493721,0.017095556,-0.009768889,0.007326667,9.9000420150638,0.02100879105382652,fall
10/07/2020, 21:36:42,8.212168,-3.2973096,-4.4985065,0.017095556,-0.009768889,0.007326667,9.927160267419554,0.02100879105382652,fall
10/07/2020, 21:36:42,8.212168,-3.2973096,-4.4985065,0.015874445,-0.014653334,0.009768889,9.927160267419554,0.023709690523418443,fall
10/07/2020, 21:36:42,8.212168,-3.3020952,-4.493721,0.015874445,-0.014653334,0.009768889,9.926583502471674,0.023709690523418443,fall
10/07/2020, 21:36:42,8.212168,-3.3020952,-4.493721,0.012211111,-0.025643334,0.014653334,9.926583502471674,0.0319595371972354,fall
10/07/2020, 21:36:42,8.190632,-3.333202,-4.493721,0.012211111,-0.025643334,0.014653334,9.9191841237014,0.0319595371972354,fall
10/07/2020, 21:36:42,8.190632,-3.333202,-4.493721,0.007326667,-0.028085556,0.017095556,9.9191841237014,0.03368585092925577,fall
10/07/2020, 21:36:42,8.200203,-3.3786657,-4.505685,0.007326667,-0.028085556,0.017095556,9.947859372479055,0.03368585092925577,fall
10/07/2020, 21:36:42,8.200203,-3.3786657,-4.505685,0.007326667,-0.019537779,0.008547778,9.947859372479055,0.022549265100630034,fall
10/07/2020, 21:36:42,8.224132,-3.4193435,-4.493721,0.007326667,-0.019537779,0.008547778,9.97606027399694,0.022549265100630034,fall
10/07/2020, 21:36:42,8.224132,-3.4193435,-4.493721,0.018316668,-0.01099,-0.0036633336,9.97606027399694,0.021672573211290378,fall
10/07/2020, 21:36:42,8.228917,-3.4360933,-4.496114,0.018316668,-0.01099,-0.0036633336,9.986834006388952,0.021672573211290378,fall
10/07/2020, 21:36:42,8.228917,-3.4360933,-4.496114,0.02198,0.0048844446,-0.017095556,9.986834006388952,0.02827076723272266,fall
10/07/2020, 21:36:42,8.23131,-3.4121652,-4.5272202,0.02198,0.0048844446,-0.017095556,9.994651410376514,0.02827076723272266,fall
10/07/2020, 21:36:42,8.23131,-3.4121652,-4.5272202,0.20636779,2.064899,1.4384689,9.994651410376514,2.524992729402077,fall
10/07/2020, 21:36:43,11.006984,-1.0408778,-3.2350962,0.117226675,3.0356824,-2.0294867,11.51967732141738,3.6534813611610604,fall
10/07/2020, 21:36:43,11.006984,-1.0408778,-3.2350962,0.064718895,2.997828,-1.6839123,11.51967732141738,3.4390001236878414,fall
10/07/2020, 21:36:43,10.928021,-0.6891329,-2.9359934,0.064718895,2.997828,-1.6839123,11.336516838427807,3.4390001236878414,fall
10/07/2020, 21:36:43,10.928021,-0.6891329,-2.9359934,0.019537779,2.968521,-1.5178412,11.336516838427807,3.334117772756569,fall
10/07/2020, 21:36:43,10.983056,-0.45224348,-2.5962126,0.019537779,2.968521,-1.5178412,11.294793701589922,3.334117772756569,fall
10/07/2020, 21:36:43,10.983056,-0.45224348,-2.5962126,0.015874445,2.9306667,-1.4726601,11.294793701589922,3.279906535764818,fall
10/07/2020, 21:36:43,10.968699,-0.23449662,-2.3114667,0.015874445,2.9306667,-1.4726601,11.212057557963425,3.279906535764818,fall
10/07/2020, 21:36:43,10.968699,-0.23449662,-2.3114667,-0.0036633336,2.8488524,-1.4250367,11.212057557963425,3.185388971794976,fall
10/07/2020, 21:36:43,10.997413,-0.038285162,-2.1272194,-0.0036633336,2.8488524,-1.4250367,11.20132197476606,3.185388971794976,fall
10/07/2020, 21:36:43,10.997413,-0.038285162,-2.1272194,-0.06349778,2.8036711,-1.3432223,11.20132197476606,3.1094774106595824,fall
10/07/2020, 21:36:43,11.107483,0.0,-1.8544376,-0.06349778,2.8036711,-1.3432223,11.261221753135978,3.1094774106595824,fall
10/07/2020, 21:36:43,11.107483,0.0,-1.8544376,-0.048844445,2.79146,-1.23088,11.261221753135978,3.0511801893685817,fall
10/07/2020, 21:36:43,11.392229,0.033499517,-1.4859428,-0.048844445,2.79146,-1.23088,11.488778514656266,3.0511801893685817,fall
10/07/2020, 21:36:43,11.392229,0.033499517,-1.4859428,0.04029667,2.812219,-1.0684723,11.488778514656266,3.0086262599482287,fall
10/07/2020, 21:36:43,11.612369,-0.02632105,-1.134198,0.04029667,2.812219,-1.0684723,11.667656230429879,3.0086262599482287,fall
10/07/2020, 21:36:43,11.612369,-0.02632105,-1.134198,0.14775445,2.8549578,-0.8083756,11.667656230429879,2.9708730417546723,fall
10/07/2020, 21:36:43,11.700903,-0.023928227,-0.83988076,0.14775445,2.8549578,-0.8083756,11.731031576243117,2.9708730417546723,fall
10/07/2020, 21:36:43,11.700903,-0.023928227,-0.83988076,0.22590557,2.86839,-0.5030978,11.731031576243117,2.9209249158832176,fall
10/07/2020, 21:36:43,11.629118,0.069391854,-0.57906306,0.22590557,2.86839,-0.5030978,11.643732817037927,2.9209249158832176,fall
10/07/2020, 21:36:43,11.629118,0.069391854,-0.57906306,0.24910668,2.8305357,-0.20392556,11.643732817037927,2.848784273877306,fall
10/07/2020, 21:36:44,7.001399,-4.831109,2.7589245,-0.015874445,-0.064718895,0.51653004,8.942643202857944,0.5208107260714808,fall
10/07/2020, 21:36:44,6.8721867,-5.015356,2.5292134,-0.015874445,-0.064718895,0.51653004,8.875678369253475,0.5208107260714808,fall
10/07/2020, 21:36:44,6.8721867,-5.015356,2.5292134,-0.024422223,-0.014653334,0.5470578,8.875678369253475,0.5477986946497262,fall
10/07/2020, 21:36:44,6.7740808,-5.1469617,2.2085752,-0.024422223,-0.014653334,0.5470578,8.789606891654728,0.5477986946497262,fall
10/07/2020, 21:36:44,6.7740808,-5.1469617,2.2085752,-0.089141116,-0.028085556,0.6203245,8.789606891654728,0.6273256035496669,fall
10/07/2020, 21:36:44,6.6185474,-5.1852465,1.9381863,-0.089141116,-0.028085556,0.6203245,8.628355418391806,0.6273256035496669,fall
10/07/2020, 21:36:44,6.6185474,-5.1852465,1.9381863,-0.14775445,-0.07937223,0.7351089,8.628355418391806,0.7540002912161402,fall
10/07/2020, 21:36:44,6.4414787,-5.285745,1.6247265,-0.14775445,-0.07937223,0.7351089,8.489492697178155,0.7540002912161402,fall
10/07/2020, 21:36:44,6.4414787,-5.285745,1.6247265,-0.14531223,-0.12821667,0.83768225,8.489492697178155,0.859806203153351,fall
10/07/2020, 21:36:44,6.24766,-5.24746,1.4859428,-0.14531223,-0.12821667,0.83768225,8.293197144774595,0.859806203153351,fall
10/07/2020, 21:36:44,6.24766,-5.24746,1.4859428,-0.048844445,-0.15752333,0.8999589,8.293197144774595,0.9149455818306215,fall
10/07/2020, 21:36:44,6.058627,-5.288138,1.4907285,-0.048844445,-0.15752333,0.8999589,8.17885301988986,0.9149455818306215,fall
10/07/2020, 21:36:44,6.058627,-5.288138,1.4907285,0.13432223,-0.1306589,0.8767578,8.17885301988986,0.8965592273079538,fall
10/07/2020, 21:36:44,5.881558,-5.316852,1.5960127,0.13432223,-0.1306589,0.8767578,8.087576680930571,0.8965592273079538,fall
10/07/2020, 21:36:44,5.881558,-5.316852,1.5960127,0.3602278,-0.06105556,0.7815111,8.087576680930571,0.8627001145538895,fall
10/07/2020, 21:36:44,5.6685967,-5.3407803,1.8017955,0.3602278,-0.06105556,0.7815111,7.993959580807037,0.8627001145538895,fall
10/07/2020, 21:36:44,5.6685967,-5.3407803,1.8017955,0.58124894,0.037854444,0.63742,7.993959580807037,0.86347411238206,fall
10/07/2020, 21:36:44,5.4987063,-5.3336015,2.0458634,0.58124894,0.037854444,0.63742,7.928974279453794,0.86347411238206,fall
10/07/2020, 21:36:44,5.4987063,-5.3336015,2.0458634,0.72411895,0.15630223,0.4713489,7.928974279453794,0.8780366927858609,fall
10/07/2020, 21:36:44,5.343173,-5.3359947,2.2707887,0.72411895,0.15630223,0.4713489,7.885354705754187,0.8780366927858609,fall
10/07/2020, 21:36:45,0.4426722,-0.09092726,-0.47377887,-1.8512045,-2.5850923,-1.0513767,0.6547464073358396,3.348888375552991,fall
10/07/2020, 21:36:45,0.4426722,-0.09092726,-0.47377887,-2.1601458,-2.6351578,-1.0013112,0.6547464073358396,3.551465970958749,fall
10/07/2020, 21:36:45,0.4546363,-0.17228323,-0.53599226,-2.1601458,-2.6351578,-1.0013112,0.7236459011931218,3.551465970958749,fall
10/07/2020, 21:36:45,0.4546363,-0.17228323,-0.53599226,-2.4751923,-2.679118,-0.9426978,0.7236459011931218,3.767350390910832,fall
10/07/2020, 21:36:45,0.44506502,-0.18903299,-0.57906306,-2.4751923,-2.679118,-0.9426978,0.754407296149369,3.767350390910832,fall
10/07/2020, 21:36:45,0.44506502,-0.18903299,-0.57906306,-2.734068,-2.70354,-0.8962956,0.754407296149369,3.948113750893085,fall
10/07/2020, 21:36:45,0.44745782,-0.2536392,-0.33020952,-2.734068,-2.70354,-0.8962956,0.6112198210269455,3.948113750893085,fall
10/07/2020, 21:36:45,0.44745782,-0.2536392,-0.33020952,-2.9306667,-2.7511635,-0.84745115,0.6112198210269455,4.108026433687993,fall
10/07/2020, 21:36:45,0.46181476,-0.17467605,-0.36370903,-2.9306667,-2.7511635,-0.84745115,0.6132445311151308,4.108026433687993,fall
10/07/2020, 21:36:45,0.46181476,-0.17467605,-0.36370903,-3.0833056,-2.7279623,-0.80471224,0.6132445311151308,4.194772134018468,fall
10/07/2020, 21:36:45,0.4881358,-0.17706887,-0.43070808,-3.0833056,-2.7279623,-0.80471224,0.6746402081250001,4.194772134018468,fall
10/07/2020, 21:36:45,0.4881358,-0.17706887,-0.43070808,-3.1052856,-2.7951233,-0.76930004,0.6746402081250001,4.2482156218499885,fall
10/07/2020, 21:36:45,0.4235296,-0.31345975,-0.3804588,-3.1052856,-2.7951233,-0.76930004,0.6499101748210191,4.2482156218499885,fall
10/07/2020, 21:36:45,0.4235296,-0.31345975,-0.3804588,-3.0344613,-2.7816913,-0.69481224,0.6499101748210191,4.174748584466804,fall
10/07/2020, 21:36:45,0.48095736,-0.18424734,-0.5910272,-3.0344613,-2.7816913,-0.69481224,0.7839516673189079,4.174748584466804,fall
10/07/2020, 21:36:45,0.48095736,-0.18424734,-0.5910272,-2.8806012,-2.8366413,-0.63986224,0.7839516673189079,4.093143132548192,fall
10/07/2020, 21:36:45,0.45942193,-0.16749759,-0.4546363,-2.8806012,-2.8366413,-0.63986224,0.667696132461259,4.093143132548192,fall
10/07/2020, 21:36:45,0.45942193,-0.16749759,-0.4546363,-2.6546957,-2.8488524,-0.5592689,0.667696132461259,3.933973969012493,fall
10/07/2020, 21:36:45,0.43070808,-0.13878371,-0.39481574,-2.6546957,-2.8488524,-0.5592689,0.6005412885026212,3.933973969012493,fall
10/07/2020, 21:36:45,0.43070808,-0.13878371,-0.39481574,-2.35186,-2.8842645,-0.5092034,0.6005412885026212,3.756263473487758,fall
10/07/2020, 21:36:46,6.5371914,-3.4600215,-6.606583,0.01099,0.035412222,-0.019537779,9.917336362896,0.04191098156972944,fall
10/07/2020, 21:36:46,6.5371914,-3.4600215,-6.606583,0.0061055557,0.028085556,-0.02075889,9.917336362896,0.03545430520370909,fall
10/07/2020, 21:36:46,6.5371914,-3.4648073,-6.613762,0.0061055557,0.028085556,-0.02075889,9.923789961939608,0.03545430520370909,fall
10/07/2020, 21:36:46,6.5371914,-3.4648073,-6.613762,-0.0024422223,0.013432222,-0.035412222,9.923789961939608,0.03795279339329981,fall
10/07/2020, 21:36:46,6.546763,-3.4432719,-6.5922265,-0.0024422223,0.013432222,-0.035412222,9.908263043543398,0.03795279339329981,fall
10/07/2020, 21:36:46,6.546763,-3.4432719,-6.5922265,-0.008547778,-0.0012211112,-0.04151778,9.908263043543398,0.0424061507049372,fall
10/07/2020, 21:36:46,6.5443697,-3.400201,-6.6185474,-0.008547778,-0.0012211112,-0.04151778,9.909354789691696,0.0424061507049372,fall
10/07/2020, 21:36:46,6.5443697,-3.400201,-6.6185474,-0.0048844446,-0.014653334,-0.026864445,9.909354789691696,0.030988326910834627,fall
10/07/2020, 21:36:46,6.5539412,-3.35713,-6.6424756,-0.0048844446,-0.014653334,-0.026864445,9.917003087962433,0.030988326910834627,fall
10/07/2020, 21:36:46,6.5539412,-3.35713,-6.6424756,-0.0024422223,-0.025643334,-0.015874445,9.917003087962433,0.030257941698776734,fall
10/07/2020, 21:36:46,6.5611196,-3.3044882,-6.6089764,-0.0024422223,-0.025643334,-0.015874445,9.88162438877637,0.030257941698776734,fall
10/07/2020, 21:36:46,6.5611196,-3.3044882,-6.6089764,-0.0036633336,-0.03174889,-0.012211111,9.88162438877637,0.03421291168480446,fall
10/07/2020, 21:36:46,6.5252275,-3.2925239,-6.606583,-0.0036633336,-0.03174889,-0.012211111,9.852220481279781,0.03421291168480446,fall
10/07/2020, 21:36:46,6.5252275,-3.2925239,-6.606583,-0.0012211112,-0.02075889,-0.017095556,9.852220481279781,0.02691989342454838,fall
10/07/2020, 21:36:46,6.491728,-3.290131,-6.5611196,-0.0012211112,-0.02075889,-0.017095556,9.798764342624608,0.02691989342454838,fall
10/07/2020, 21:36:46,6.491728,-3.290131,-6.5611196,0.009768889,-0.019537779,-0.0024422223,9.798764342624608,0.02198000089265406,fall
10/07/2020, 21:36:46,6.506085,-3.2997024,-6.558727,0.009768889,-0.019537779,-0.0024422223,9.809896738221706,0.02198000089265406,fall
10/07/2020, 21:36:46,6.506085,-3.2997024,-6.558727,0.015874445,-0.012211111,0.007326667,9.809896738221706,0.02132578981387731,fall
10/07/2020, 21:36:46,6.5108705,-3.3236306,-6.5946193,0.015874445,-0.012211111,0.007326667,9.845148939941758,0.02132578981387731,fall
10/07/2020, 21:36:46,6.5108705,-3.3236306,-6.5946193,0.02075889,-0.0036633336,0.0061055557,9.845148939941758,0.021946054801999154,fall
10/07/2020, 21:36:47,16.074982,1.5888343,1.8951155,-0.81081784,1.2467545,-0.36389112,16.26409829785046,1.5310908423197138,fall
10/07/2020, 21:36:47,16.074982,1.5888343,1.8951155,-0.57636446,1.3444434,-0.21980001,16.26409829785046,1.4792012023609473,fall
10/07/2020, 21:36:47,15.873985,1.6223338,1.7060826,-0.57636446,1.3444434,-0.21980001,16.0476195626409,1.4792012023609473,fall
10/07/2020, 21:36:47,15.873985,1.6223338,1.7060826,-0.37488112,1.2650712,0.0012211112,16.0476195626409,1.3194477511145322,fall
10/07/2020, 21:36:47,15.672988,1.7156538,1.5361922,-0.37488112,1.2650712,0.0012211112,15.84127220886464,1.3194477511145322,fall
10/07/2020, 21:36:47,15.672988,1.7156538,1.5361922,-0.3370267,1.2736189,0.2869611,15.84127220886464,1.3483467135695215,fall
10/07/2020, 21:36:47,15.531812,1.7108682,1.5146568,-0.3370267,1.2736189,0.2869611,15.698994567322226,1.3483467135695215,fall
10/07/2020, 21:36:47,15.531812,1.7108682,1.5146568,-0.33336335,1.2553023,0.62154555,15.698994567322226,1.4398728728972825,fall
10/07/2020, 21:36:47,15.050855,1.6893328,1.4117653,-0.33336335,1.2553023,0.62154555,15.211020791091798,1.4398728728972825,fall
10/07/2020, 21:36:47,15.050855,1.6893328,1.4117653,-0.18438779,1.0025322,0.9170545,15.211020791091798,1.3711523128655396,fall
10/07/2020, 21:36:47,14.486148,1.7180467,1.4596218,-0.18438779,1.0025322,0.9170545,14.660513651381866,1.3711523128655396,fall
10/07/2020, 21:36:47,14.486148,1.7180467,1.4596218,0.0024422223,0.7338878,1.0745778,14.660513651381866,1.3012742683315286,fall
10/07/2020, 21:36:47,14.005191,1.7994026,1.7108682,0.0024422223,0.7338878,1.0745778,14.223582198425378,1.3012742683315286,fall
10/07/2020, 21:36:47,14.005191,1.7994026,1.7108682,0.10379445,0.64108336,1.0843467,14.223582198425378,1.2639496917718684,fall
10/07/2020, 21:36:47,13.430914,1.9381863,1.9645073,0.10379445,0.64108336,1.0843467,13.711502618102456,1.2639496917718684,fall
10/07/2020, 21:36:47,13.430914,1.9381863,1.9645073,0.15752333,0.5189722,1.009859,13.711502618102456,1.1462813331866617,fall
10/07/2020, 21:36:47,12.68196,1.9525433,1.9740787,0.15752333,0.5189722,1.009859,12.982354325837406,1.1462813331866617,fall
10/07/2020, 21:36:47,12.68196,1.9525433,1.9740787,0.19293556,0.3944189,0.9597934,12.982354325837406,1.0554590200617167,fall
10/07/2020, 21:36:47,12.19861,1.9118652,2.3114667,0.19293556,0.3944189,0.9597934,12.562014183392387,1.0554590200617167,fall
10/07/2020, 21:36:47,12.19861,1.9118652,2.3114667,0.11112112,0.41762,1.0293967,12.562014183392387,1.1164281613887146,fall
10/07/2020, 21:36:48,7.271788,-4.6301117,2.5722845,0.5250778,-0.045181114,0.45059,8.996303913920931,0.6933825863714077,fall
10/07/2020, 21:36:48,7.271788,-4.6301117,2.5722845,0.29917222,0.0012211112,0.20636779,8.996303913920931,0.36344624765490213,fall
10/07/2020, 21:36:48,7.5254273,-4.3334017,2.672783,0.29917222,0.0012211112,0.20636779,9.08593392070098,0.36344624765490213,fall
10/07/2020, 21:36:48,7.5254273,-4.3334017,2.672783,0.09402556,0.16240779,-0.15874445,9.08593392070098,0.24579848762752454,fall
10/07/2020, 21:36:48,7.8723865,-4.211368,2.8091738,0.09402556,0.16240779,-0.15874445,9.359569819619068,0.24579848762752454,fall
10/07/2020, 21:36:48,7.8723865,-4.211368,2.8091738,-0.07204556,0.37366003,-0.4798967,9.359569819619068,0.6124648693108404,fall
10/07/2020, 21:36:48,8.147561,-4.3405805,2.8354948,-0.07204556,0.37366003,-0.4798967,9.657298831340098,0.6124648693108404,fall
10/07/2020, 21:36:48,8.147561,-4.3405805,2.8354948,-0.22590557,0.49699223,-0.6386411,9.657298831340098,0.840176815533941,fall
10/07/2020, 21:36:48,8.262417,-4.735396,2.7756743,-0.22590557,0.49699223,-0.6386411,9.919469466617937,0.840176815533941,fall
10/07/2020, 21:36:48,8.262417,-4.735396,2.7756743,-0.33580557,0.49455002,-0.5922389,9.919469466617937,0.841482036430684,fall
10/07/2020, 21:36:48,8.19781,-5.0368915,2.6656044,-0.33580557,0.49455002,-0.5922389,9.98397785372249,0.841482036430684,fall
10/07/2020, 21:36:48,8.19781,-5.0368915,2.6656044,-0.3370267,0.4041878,-0.44570556,9.98397785372249,0.6896435397486519,fall
10/07/2020, 21:36:48,8.082955,-4.9842496,2.644069,-0.3370267,0.4041878,-0.44570556,9.857383628434114,0.6896435397486519,fall
10/07/2020, 21:36:48,8.082955,-4.9842496,2.644069,-0.21613668,0.3858711,-0.38465002,9.857383628434114,0.5861460727839107,fall
10/07/2020, 21:36:48,7.9944205,-4.8215375,2.778067,-0.21613668,0.3858711,-0.38465002,9.740412736434912,0.5861460727839107,fall
10/07/2020, 21:36:48,7.9944205,-4.8215375,2.778067,-0.068382226,0.45425335,-0.31260446,9.740412736434912,0.555647170020707,fall
10/07/2020, 21:36:48,7.8293157,-4.766503,2.833102,-0.068382226,0.45425335,-0.31260446,9.593966859569727,0.555647170020707,fall
10/07/2020, 21:36:48,7.8293157,-4.766503,2.833102,0.054950003,0.5250778,-0.19171445,9.593966859569727,0.5616766420892932,fall
10/07/2020, 21:36:48,7.692925,-4.773681,2.8235307,0.054950003,0.5250778,-0.19171445,9.483746728595465,0.5616766420892932,fall
10/07/2020, 21:36:48,7.692925,-4.773681,2.8235307,0.14531223,0.46768558,-0.009768889,9.483746728595465,0.48983760446271696,fall
10/07/2020, 21:36:49,0.34456646,-0.18903299,0.22013968,0.5580478,0.06594,-0.26498112,0.45046753291357455,0.6212732033764197,fall
10/07/2020, 21:36:49,0.34456646,-0.18903299,0.22013968,1.3981723,-0.45303226,-0.5971234,0.45046753291357455,1.5864048119180256,fall
10/07/2020, 21:36:49,10.516456,15.498312,9.789038,1.3981723,-0.45303226,-0.5971234,21.13335688821006,1.5864048119180256,fall
10/07/2020, 21:36:49,10.516456,15.498312,9.789038,13.114734,-14.181985,-10.37456,21.13335688821006,21.926158766279784,fall
10/07/2020, 21:36:49,29.699715,13.584054,36.856647,13.114734,-14.181985,-10.37456,49.244411237458614,21.926158766279784,fall
10/07/2020, 21:36:49,29.699715,13.584054,36.856647,-2.8854856,-34.67467,-15.158874,49.244411237458614,37.953264628254395,fall
10/07/2020, 21:36:49,54.104115,-25.165316,23.322842,-2.8854856,-34.67467,-15.158874,64.06639729504592,37.953264628254395,fall
10/07/2020, 21:36:49,54.104115,-25.165316,23.322842,-11.435706,-36.943497,-2.790239,64.06639729504592,38.77348008401786,fall
10/07/2020, 21:36:49,66.305115,-27.393034,-4.3932223,-11.435706,-36.943497,-2.790239,71.87521794508159,38.77348008401786,fall
10/07/2020, 21:36:49,66.305115,-27.393034,-4.3932223,-2.041698,-16.050285,-2.18701,71.87521794508159,16.3267633984843,fall
10/07/2020, 21:36:49,72.40442,-3.6993039,-31.252657,-2.041698,-16.050285,-2.18701,78.94816842395262,16.3267633984843,fall
10/07/2020, 21:36:49,72.40442,-3.6993039,-31.252657,1.2687345,-6.097008,-4.5852723,78.94816842395262,7.733557954154268,fall
10/07/2020, 21:36:49,55.056458,-2.6368906,-37.75874,1.2687345,-6.097008,-4.5852723,66.81234252270065,7.733557954154268,fall
10/07/2020, 21:36:49,55.056458,-2.6368906,-37.75874,-0.109900005,-0.4481478,-5.3228235,66.81234252270065,5.342786233573477,fall
10/07/2020, 21:36:49,33.655052,2.1894326,-8.750552,-0.109900005,-0.4481478,-5.3228235,34.84290912353382,5.342786233573477,fall
10/07/2020, 21:36:49,33.655052,2.1894326,-8.750552,0.08792,0.01099,-1.8780689,34.84290912353382,1.8801578630739466,fall
10/07/2020, 21:36:49,17.027327,-2.2061825,-5.367101,0.08792,0.01099,-1.8780689,17.98896514361507,1.8801578630739466,fall
10/07/2020, 21:36:49,17.027327,-2.2061825,-5.367101,-0.32115224,4.0919433,-1.0953367,17.98896514361507,4.24816441185472,fall
10/07/2020, 21:36:49,10.557134,3.385844,2.254039,-0.32115224,4.0919433,-1.0953367,11.313606984452734,4.24816441185472,fall
10/07/2020, 21:36:49,10.557134,3.385844,2.254039,-1.2235534,3.1272657,-1.7816012,11.313606984452734,3.8014439991265117,fall
10/07/2020, 21:36:50,9.408579,-3.158526,-0.86859465,0.013432222,0.0012211112,-0.0036633336,9.962534777890697,0.013976255743960088,fall
10/07/2020, 21:36:50,9.408579,-3.158526,-0.86859465,0.018316668,0.009768889,-0.036633335,9.962534777890697,0.04210620790739535,fall
10/07/2020, 21:36:50,9.458828,-3.1513474,-0.8781659,0.018316668,0.009768889,-0.036633335,10.008575942086324,0.04210620790739535,fall
10/07/2020, 21:36:50,9.458828,-3.1513474,-0.8781659,0.018316668,0.007326667,-0.05372889,10.008575942086324,0.05723612449410617,fall
10/07/2020, 21:36:50,9.4636135,-3.1369905,-0.8566305,0.018316668,0.007326667,-0.05372889,10.006723049173283,0.05723612449410617,fall
10/07/2020, 21:36:50,9.4636135,-3.1369905,-0.8566305,0.012211111,0.0012211112,-0.045181114,10.006723049173283,0.04681811013075106,fall
10/07/2020, 21:36:50,9.466006,-3.101098,-0.8997013,0.012211111,0.0012211112,-0.045181114,10.00157719960954,0.04681811013075106,fall
10/07/2020, 21:36:50,9.466006,-3.101098,-0.8997013,0.007326667,-0.009768889,-0.012211111,10.00157719960954,0.017269119580458948,fall
10/07/2020, 21:36:50,9.45165,-3.0675986,-0.8877372,0.007326667,-0.009768889,-0.012211111,9.976568539524814,0.017269119580458948,fall
10/07/2020, 21:36:50,9.45165,-3.0675986,-0.8877372,0.008547778,-0.023201112,0.019537779,9.976568539524814,0.03151318594919948,fall
10/07/2020, 21:36:50,9.420543,-3.0580273,-0.8877372,0.008547778,-0.023201112,0.019537779,9.944155731537666,0.03151318594919948,fall
10/07/2020, 21:36:50,9.420543,-3.0580273,-0.8877372,0.01099,-0.025643334,0.03174889,9.944155731537666,0.04226526643899983,fall
10/07/2020, 21:36:50,9.413364,-3.0915267,-0.89730847,0.01099,-0.025643334,0.03174889,9.948574251473238,0.04226526643899983,fall
10/07/2020, 21:36:50,9.413364,-3.0915267,-0.89730847,0.01099,-0.02198,0.02198,9.948574251473238,0.032970000989735126,fall
10/07/2020, 21:36:50,9.401401,-3.1489546,-0.9020941,0.01099,-0.02198,0.02198,9.955702972525375,0.032970000989735126,fall
10/07/2020, 21:36:50,9.401401,-3.1489546,-0.9020941,0.009768889,-0.01099,-0.0012211112,9.955702972525375,0.014754742206932413,fall
10/07/2020, 21:36:50,9.403793,-3.1657043,-0.88295156,0.009768889,-0.01099,-0.0012211112,9.961556903435403,0.014754742206932413,fall
10/07/2020, 21:36:50,9.403793,-3.1657043,-0.88295156,0.013432222,0.0012211112,-0.026864445,9.961556903435403,0.030060174782680936,fall
10/07/2020, 21:36:50,9.413364,-3.158526,-0.8662018,0.013432222,0.0012211112,-0.026864445,9.966846103450235,0.030060174782680936,fall
10/07/2020, 21:36:50,9.413364,-3.158526,-0.8662018,0.017095556,0.01099,-0.046402223,9.966846103450235,0.05065771901625927,fall
10/07/2020, 21:36:51,9.365508,-4.0701914,-0.6963114,0.11112112,-0.27719223,-0.32237336,10.235431064225658,0.43944057791001007,fall
10/07/2020, 21:36:51,9.365508,-4.0701914,-0.6963114,-0.017095556,-0.32725778,-0.036633335,10.235431064225658,0.32974522788469296,fall
10/07/2020, 21:36:51,9.174082,-4.0558343,-0.83030945,-0.017095556,-0.32725778,-0.036633335,10.064938276789462,0.32974522788469296,fall
10/07/2020, 21:36:51,9.174082,-4.0558343,-0.83030945,-0.03297,-0.2735289,0.04396,10.064938276789462,0.2789938418525607,fall
10/07/2020, 21:36:51,8.944371,-4.1587257,-0.849452,-0.03297,-0.2735289,0.04396,9.90042145988172,0.2789938418525607,fall
10/07/2020, 21:36:51,8.944371,-4.1587257,-0.849452,0.039075557,-0.16362889,-0.023201112,9.90042145988172,0.16982227402884723,fall
10/07/2020, 21:36:51,8.855837,-4.213761,-0.7896315,0.039075557,-0.16362889,-0.023201112,9.838960567356068,0.16982227402884723,fall
10/07/2020, 21:36:51,8.855837,-4.213761,-0.7896315,0.1306589,-0.04029667,-0.17339778,9.838960567356068,0.2208220059794626,fall
10/07/2020, 21:36:51,8.834301,-4.2951164,-0.7465607,0.1306589,-0.04029667,-0.17339778,9.851408632097217,0.2208220059794626,fall
10/07/2020, 21:36:51,8.834301,-4.2951164,-0.7465607,0.21491556,0.02075889,-0.32481557,9.851408632097217,0.3900317733618964,fall
10/07/2020, 21:36:51,8.9013,-4.395615,-0.66759753,0.21491556,0.02075889,-0.32481557,9.949887835067818,0.3900317733618964,fall
10/07/2020, 21:36:51,8.9013,-4.395615,-0.66759753,0.2613178,0.02075889,-0.4261678,9.949887835067818,0.5003367871377823,fall
10/07/2020, 21:36:51,9.0233345,-4.4339004,-0.6580262,0.2613178,0.02075889,-0.4261678,10.075367806180608,0.5003367871377823,fall
10/07/2020, 21:36:51,9.0233345,-4.4339004,-0.6580262,0.3052778,-0.029306669,-0.43471557,10.075367806180608,0.5320066152397024,fall
10/07/2020, 21:36:51,9.071191,-4.412365,-0.6221339,0.3052778,-0.029306669,-0.43471557,10.106558182101073,0.5320066152397024,fall
10/07/2020, 21:36:51,9.071191,-4.412365,-0.6221339,0.34801668,-0.08425667,-0.41273558,10.106558182101073,0.5464114346205344,fall
10/07/2020, 21:36:51,9.126225,-4.338187,-0.5766702,0.34801668,-0.08425667,-0.41273558,10.121284910821988,0.5464114346205344,fall
10/07/2020, 21:36:51,9.126225,-4.338187,-0.5766702,0.40174556,-0.11234222,-0.40785113,10.121284910821988,0.5834062156349149,fall
10/07/2020, 21:36:51,9.131011,-4.3118663,-0.4019942,0.40174556,-0.11234222,-0.40785113,10.105896903895866,0.5834062156349149,fall
10/07/2020, 21:36:51,9.131011,-4.3118663,-0.4019942,0.48478112,-0.11600556,-0.4689067,10.105896903895866,0.6843562778405962,fall
10/07/2020, 21:36:52,7.243074,-2.0961127,3.3427732,-0.2625389,0.4249467,2.1674724,8.24802651146323,2.2242847874251983,fall
10/07/2020, 21:36:52,7.243074,-2.0961127,3.3427732,-0.23933779,0.5324045,2.07711,8.24802651146323,2.1575734698300977,fall
10/07/2020, 21:36:52,6.838687,-2.1128623,3.4049866,-0.23933779,0.5324045,2.07711,7.926270263565443,2.1575734698300977,fall
10/07/2020, 21:36:52,6.838687,-2.1128623,3.4049866,-0.16729222,0.56293225,1.867079,7.926270263565443,1.9572591740075613,fall
10/07/2020, 21:36:52,6.422336,-2.062613,3.3523445,-0.16729222,0.56293225,1.867079,7.532528603674494,1.9572591740075613,fall
10/07/2020, 21:36:52,6.422336,-2.062613,3.3523445,-0.05372889,0.5043189,1.6191934,7.532528603674494,1.6967650746060208,fall
10/07/2020, 21:36:52,6.101698,-2.1080768,3.306881,-0.05372889,0.5043189,1.6191934,7.253286633817842,1.6967650746060208,fall
10/07/2020, 21:36:52,6.101698,-2.1080768,3.306881,0.08792,0.4041878,1.3761923,7.253286633817842,1.4370118427097673,fall
10/07/2020, 21:36:52,5.946164,-2.2731814,3.2733815,0.08792,0.4041878,1.3761923,7.158159538993225,1.4370118427097673,fall
10/07/2020, 21:36:52,5.946164,-2.2731814,3.2733815,0.16485001,0.32970002,1.12098,7.158159538993225,1.1800312904195351,fall
10/07/2020, 21:36:52,5.9748783,-2.4382863,3.2685957,0.16485001,0.32970002,1.12098,7.233818407752182,1.1800312904195351,fall
10/07/2020, 21:36:52,5.9748783,-2.4382863,3.2685957,0.16362889,0.34435335,0.88408446,7.233818407752182,0.9627870897689009,fall
10/07/2020, 21:36:52,6.0107703,-2.5004997,3.290131,0.16362889,0.34435335,0.88408446,7.294300605950536,0.9627870897689009,fall
10/07/2020, 21:36:52,6.0107703,-2.5004997,3.290131,0.15386,0.42006224,0.68260115,7.294300605950536,0.8161308255842473,fall
10/07/2020, 21:36:52,6.046663,-2.629712,3.3667014,0.15386,0.42006224,0.68260115,7.403525845104852,0.8161308255842473,fall
10/07/2020, 21:36:52,6.046663,-2.629712,3.3667014,0.15996556,0.54339445,0.5287411,7.403525845104852,0.7748765566393369,fall
10/07/2020, 21:36:52,6.1399827,-2.8809586,3.4839497,0.15996556,0.54339445,0.5287411,7.624776390860507,0.7748765566393369,fall
10/07/2020, 21:36:52,6.1399827,-2.8809586,3.4839497,0.18683001,0.70580226,0.4481478,7.624776390860507,0.8566789017790292,fall
10/07/2020, 21:36:52,6.1878395,-3.0364919,3.5294135,0.18683001,0.70580226,0.4481478,7.743797520784767,0.8566789017790292,fall
10/07/2020, 21:36:52,6.1878395,-3.0364919,3.5294135,0.2759711,0.85966223,0.44326335,7.743797520784767,1.0058139058386852,fall
10/07/2020, 21:36:53,6.7094746,-4.790431,5.312066,0.93903446,-0.13310112,0.5653745,9.807309739235437,1.1041512337953259,fall
10/07/2020, 21:36:53,6.728617,-4.6612186,5.359923,0.93903446,-0.13310112,0.5653745,9.784172008381807,1.1041512337953259,fall
10/07/2020, 21:36:53,6.728617,-4.6612186,5.359923,1.1258645,-0.17339778,0.58124894,9.784172008381807,1.2788619958397125,fall
10/07/2020, 21:36:53,6.7166533,-4.4075794,5.386244,1.1258645,-0.17339778,0.58124894,9.672218516748085,1.2788619958397125,fall
10/07/2020, 21:36:53,6.7166533,-4.4075794,5.386244,1.2540811,-0.1856089,0.6618422,9.672218516748085,1.4301067357033195,fall
10/07/2020, 21:36:53,6.63769,-4.249653,5.453243,1.2540811,-0.1856089,0.6618422,9.584171100615938,1.4301067357033195,fall
10/07/2020, 21:36:53,6.63769,-4.249653,5.453243,1.3652023,-0.17950334,0.74732006,9.584171100615938,1.5666799465197268,fall
10/07/2020, 21:36:53,6.678368,-4.0845485,5.6685967,1.3652023,-0.17950334,0.74732006,9.665253522286378,1.5666799465197268,fall
10/07/2020, 21:36:53,6.678368,-4.0845485,5.6685967,1.4348056,-0.06716111,0.7216767,9.665253522286378,1.607480975157816,fall
10/07/2020, 21:36:53,6.7573314,-3.8787656,5.9844494,1.4348056,-0.06716111,0.7216767,9.82445846703801,1.607480975157816,fall
10/07/2020, 21:36:53,6.7573314,-3.8787656,5.9844494,1.4567856,0.14897557,0.5910178,9.82445846703801,1.5791516410859774,fall
10/07/2020, 21:36:53,6.7118673,-3.6514473,6.178268,1.4567856,0.14897557,0.5910178,9.826150079173878,1.5791516410859774,fall
10/07/2020, 21:36:53,6.7118673,-3.6514473,6.178268,1.4433534,0.38831335,0.42006224,9.826150079173878,1.5525812790961884,fall
10/07/2020, 21:36:53,6.5539412,-3.735196,6.3074803,1.4433534,0.38831335,0.42006224,9.83311466895339,1.5525812790961884,fall
10/07/2020, 21:36:53,6.5539412,-3.735196,6.3074803,1.3908457,0.52019334,0.31382558,9.83311466895339,1.5177414939027059,fall
10/07/2020, 21:36:53,6.2548385,-3.9457645,6.3338017,1.3908457,0.52019334,0.31382558,9.736996796962881,1.5177414939027059,fall
10/07/2020, 21:36:53,6.2548385,-3.9457645,6.3338017,1.3090311,0.54339445,0.28085557,9.736996796962881,1.4448944147707383,fall
10/07/2020, 21:36:53,5.9246287,-3.845266,6.2955165,1.3090311,0.54339445,0.28085557,9.461544532420184,1.4448944147707383,fall
10/07/2020, 21:36:53,5.9246287,-3.845266,6.2955165,1.2369856,0.4701278,0.2845189,9.461544532420184,1.3535525217731983,fall
10/07/2020, 21:36:53,5.6614184,-3.5892339,6.1998034,1.2369856,0.4701278,0.2845189,9.13081705812527,1.3535525217731983,fall
10/07/2020, 21:36:54,2.7062824,-0.16031912,-2.3688943,0.5250778,-3.240829,10.499114,3.600184288755653,11.000457936743219,fall
10/07/2020, 21:36:54,2.7062824,-0.16031912,-2.3688943,1.90127,-2.3249958,11.062046,3.600184288755653,11.462516993899289,fall
10/07/2020, 21:36:54,2.725425,0.2416751,1.7994026,1.90127,-2.3249958,11.062046,3.2747821310641707,11.462516993899289,fall
10/07/2020, 21:36:54,2.725425,0.2416751,1.7994026,3.383699,-0.71435004,10.811718,3.2747821310641707,11.351341785734533,fall
10/07/2020, 21:36:54,1.4069797,-1.0648061,1.3375878,3.383699,-0.71435004,10.811718,2.2141691603551172,11.351341785734533,fall
10/07/2020, 21:36:54,1.4069797,-1.0648061,1.3375878,4.052868,0.34557447,12.394279,2.2141691603551172,13.044665577538215,fall
10/07/2020, 21:36:54,-0.059820566,-3.4887354,2.8642087,4.052868,0.34557447,12.394279,4.514260174108231,13.044665577538215,fall
10/07/2020, 21:36:54,-0.059820566,-3.4887354,2.8642087,2.646148,2.0795524,13.030478,4.514260174108231,13.458082396565612,fall
10/07/2020, 21:36:54,0.038285162,-0.6197411,5.0249276,2.646148,2.0795524,13.030478,5.063145495622995,13.458082396565612,fall
10/07/2020, 21:36:54,0.038285162,-0.6197411,5.0249276,0.98055226,4.1127024,11.651843,5.063145495622995,12.395210787213166,fall
10/07/2020, 21:36:54,-1.6079768,2.5268207,6.216553,0.98055226,4.1127024,11.651843,6.9004308448550065,12.395210787213166,fall
10/07/2020, 21:36:54,-1.6079768,2.5268207,6.216553,0.09646778,4.590157,9.826282,6.9004308448550065,10.84595116448518,fall
10/07/2020, 21:36:54,-5.4317074,4.5726843,6.35773,0.09646778,4.590157,9.826282,9.530667149537274,10.84595116448518,fall
10/07/2020, 21:36:54,-5.4317074,4.5726843,6.35773,-0.5482789,4.331281,8.005605,9.530667149537274,9.11867938925279,fall
10/07/2020, 21:36:54,-11.609976,9.561719,3.9433718,-0.5482789,4.331281,8.005605,15.548896695924965,9.11867938925279,fall
10/07/2020, 21:36:54,-11.609976,9.561719,3.9433718,-0.55438447,3.4557445,5.2984014,15.548896695924965,6.350005444914936,fall
10/07/2020, 21:36:54,-17.211573,14.390435,1.4213367,-0.55438447,3.4557445,5.2984014,22.479836668625094,6.350005444914936,fall
10/07/2020, 21:36:54,-17.211573,14.390435,1.4213367,0.33580557,2.162588,2.5887556,22.479836668625094,3.3898683332691224,fall
10/07/2020, 21:36:54,-20.520847,15.637096,-0.79920274,0.33580557,2.162588,2.5887556,25.812064693737845,3.3898683332691224,fall
10/07/2020, 21:36:54,-20.520847,15.637096,-0.79920274,1.2882723,0.94514006,0.5250778,25.812064693737845,1.6818566755401736,fall
10/07/2020, 21:36:55,-9.49472,0.5383851,-0.33260235,0.20881,-0.051286668,-0.34679556,9.515786852769534,0.408043010892577,fall
10/07/2020, 21:36:55,-9.49472,0.5383851,-0.33260235,0.1526389,-0.059834447,-0.26498112,9.515786852769534,0.3115987618417362,fall
10/07/2020, 21:36:55,-9.458828,0.40917268,-0.22731815,0.1526389,-0.059834447,-0.26498112,9.470402443379363,0.3115987618417362,fall
10/07/2020, 21:36:55,-9.458828,0.40917268,-0.22731815,0.18072446,-0.05250778,-0.16362889,9.470402443379363,0.24938486389983205,fall
10/07/2020, 21:36:55,-9.458828,0.34217364,-0.14356937,0.18072446,-0.05250778,-0.16362889,9.466103822135029,0.24938486389983205,fall
10/07/2020, 21:36:55,-9.458828,0.34217364,-0.14356937,0.22590557,-0.018316668,-0.07937223,9.466103822135029,0.24014324088854366,fall
10/07/2020, 21:36:55,-9.458828,0.44027936,-0.040677983,0.22590557,-0.018316668,-0.07937223,9.469156627117982,0.24014324088854366,fall
10/07/2020, 21:36:55,-9.458828,0.44027936,-0.040677983,0.21369445,0.019537779,-0.051286668,9.469156627117982,0.2206294776515941,fall
10/07/2020, 21:36:55,-9.489935,0.46660042,0.033499517,0.21369445,0.019537779,-0.051286668,9.501457939580098,0.2206294776515941,fall
10/07/2020, 21:36:55,-9.489935,0.46660042,0.033499517,0.15508112,0.051286668,0.014653334,9.501457939580098,0.1639975525032716,fall
10/07/2020, 21:36:55,-9.353543,0.44985065,0.03589234,0.15508112,0.051286668,0.014653334,9.364423409167925,0.1639975525032716,fall
10/07/2020, 21:36:55,-9.353543,0.44985065,0.03589234,0.10745778,0.08059334,0.12455334,9.364423409167925,0.18318295428666748,fall
10/07/2020, 21:36:55,-9.23151,0.41874397,0.078963146,0.10745778,0.08059334,0.12455334,9.241339814482863,0.18318295428666748,fall
10/07/2020, 21:36:55,-9.23151,0.41874397,0.078963146,0.08303556,0.098910004,0.22102112,9.241339814482863,0.2559852075048558,fall
10/07/2020, 21:36:55,-9.19801,0.4235296,0.09810573,0.08303556,0.098910004,0.22102112,9.208278785509966,0.2559852075048558,fall
10/07/2020, 21:36:55,-9.19801,0.4235296,0.09810573,0.06349778,0.12455334,0.3052778,9.208278785509966,0.3357678276632453,fall
10/07/2020, 21:36:55,-9.176475,0.3900301,0.10049855,0.06349778,0.12455334,0.3052778,9.185309411385724,0.3357678276632453,fall
10/07/2020, 21:36:55,-9.176475,0.3900301,0.10049855,-0.0024422223,0.13188,0.42983112,9.185309411385724,0.4496143774275845,fall
10/07/2020, 21:36:55,-9.15494,0.2943172,0.0071784677,-0.0024422223,0.13188,0.42983112,9.159672164368784,0.4496143774275845,fall
10/07/2020, 21:36:55,-9.15494,0.2943172,0.0071784677,-0.089141116,0.13188,0.6105556,9.159672164368784,0.6309648171211071,fall
10/07/2020, 21:36:56,-8.257631,-6.7094746,2.4382863,-0.28085557,-1.8841745,-0.93903446,10.915620172026342,2.1238594559682857,fall
10/07/2020, 21:36:56,-8.257631,-6.7094746,2.4382863,-0.13310112,-2.1857889,-0.94758224,10.915620172026342,2.386063914210064,fall
10/07/2020, 21:36:56,-8.729017,-7.23111,2.2851455,-0.13310112,-2.1857889,-0.94758224,11.56315638388173,2.386063914210064,fall
10/07/2020, 21:36:56,-8.729017,-7.23111,2.2851455,-0.035412222,-2.4800768,-0.77906895,11.56315638388173,2.5998044797614064,fall
10/07/2020, 21:36:56,-9.145369,-7.164111,2.2588246,-0.035412222,-2.4800768,-0.77906895,11.83488670393246,2.5998044797614064,fall
10/07/2020, 21:36:56,-9.145369,-7.164111,2.2588246,-0.0061055557,-2.7523847,-0.53851,11.83488670393246,2.804576912017085,fall
10/07/2020, 21:36:56,-9.312865,-7.1952176,1.902294,-0.0061055557,-2.7523847,-0.53851,11.921381562562996,2.804576912017085,fall
10/07/2020, 21:36:56,-9.312865,-7.1952176,1.902294,0.028085556,-2.9025812,-0.31260446,11.921381562562996,2.9195013365626457,fall
10/07/2020, 21:36:56,-9.221938,-7.396215,1.5744773,0.028085556,-2.9025812,-0.31260446,11.925901119529133,2.9195013365626457,fall
10/07/2020, 21:36:56,-9.221938,-7.396215,1.5744773,-0.028085556,-2.9795113,-0.12089001,11.925901119529133,2.982094992860967,fall
10/07/2020, 21:36:56,-8.891729,-7.460821,1.6701902,-0.028085556,-2.9795113,-0.12089001,11.72673179248399,2.982094992860967,fall
10/07/2020, 21:36:56,-8.891729,-7.460821,1.6701902,-0.20881,-3.0259135,0.051286668,11.72673179248399,3.033543193857018,fall
10/07/2020, 21:36:56,-8.4705925,-7.479964,1.9932213,-0.20881,-3.0259135,0.051286668,11.474917276612178,3.033543193857018,fall
10/07/2020, 21:36:56,-8.4705925,-7.479964,1.9932213,-0.40907225,-3.0198078,0.16118668,11.474917276612178,3.051648815733104,fall
10/07/2020, 21:36:56,-8.161918,-7.4775705,2.1798615,-0.40907225,-3.0198078,0.16118668,11.281966041681464,3.051648815733104,fall
10/07/2020, 21:36:56,-8.161918,-7.4775705,2.1798615,-0.61788225,-2.9502046,0.23079,11.281966041681464,3.023036511316655,fall
10/07/2020, 21:36:56,-8.106883,-7.568498,2.6871397,-0.61788225,-2.9502046,0.23079,11.41159221219697,3.023036511316655,fall
10/07/2020, 21:36:56,-8.106883,-7.568498,2.6871397,-0.66306335,-2.8635056,0.32359445,11.41159221219697,2.9570307241025104,fall
10/07/2020, 21:36:56,-8.087741,-7.9154572,3.1202407,-0.66306335,-2.8635056,0.32359445,11.738906177502148,2.9570307241025104,fall
10/07/2020, 21:36:56,-8.087741,-7.9154572,3.1202407,-0.48844448,-2.7230778,0.4493689,11.738906177502148,2.8027955640614177,fall
10/07/2020, 21:36:57,-10.260424,1.0504491,3.182454,-0.36877558,0.59346,-0.22224224,10.793875635116539,0.7331997249150992,fall
10/07/2020, 21:36:57,-10.260424,1.0504491,3.182454,-0.18316667,0.40296668,-0.10135223,10.793875635116539,0.4540973974394074,fall
10/07/2020, 21:36:57,-10.334601,1.0025927,3.1465619,-0.18316667,0.40296668,-0.10135223,10.849425320130337,0.4540973974394074,fall
10/07/2020, 21:36:57,-10.334601,1.0025927,3.1465619,-0.034191113,0.2625389,0.04151778,10.849425320130337,0.26799148758109403,fall
10/07/2020, 21:36:57,-10.289138,0.9523434,3.048456,-0.034191113,0.2625389,0.04151778,10.773411676754222,0.26799148758109403,fall
10/07/2020, 21:36:57,-10.289138,0.9523434,3.048456,0.078151114,0.16729222,0.17339778,10.773411676754222,0.25330036371141484,fall
10/07/2020, 21:36:57,-10.135997,0.9619147,2.9336007,0.078151114,0.16729222,0.17339778,10.595740855982395,0.25330036371141484,fall
10/07/2020, 21:36:57,-10.135997,0.9619147,2.9336007,0.16485001,0.11356334,0.28085557,10.595740855982395,0.344894196477069,fall
10/07/2020, 21:36:57,-9.891929,1.052842,2.8163524,0.16485001,0.11356334,0.28085557,10.338789573547784,0.344894196477069,fall
10/07/2020, 21:36:57,-9.891929,1.052842,2.8163524,0.22468445,0.14164889,0.36877558,10.338789573547784,0.45446994851029476,fall
10/07/2020, 21:36:57,-9.667004,1.0695918,2.6919255,0.22468445,0.14164889,0.36877558,10.091652430764567,0.45446994851029476,fall
10/07/2020, 21:36:57,-9.667004,1.0695918,2.6919255,0.23079,0.23933779,0.46646446,10.091652430764567,0.572831296854352,fall
10/07/2020, 21:36:57,-9.473185,1.0743774,2.6105695,0.23079,0.23933779,0.46646446,9.88486651515064,0.572831296854352,fall
10/07/2020, 21:36:57,-9.473185,1.0743774,2.6105695,0.15752333,0.34069002,0.59346,9.88486651515064,0.702195191988101,fall
10/07/2020, 21:36:57,-9.360723,1.0935199,2.4382863,0.15752333,0.34069002,0.59346,9.734688101630798,0.702195191988101,fall
10/07/2020, 21:36:57,-9.360723,1.0935199,2.4382863,0.019537779,0.4493689,0.7717422,9.734688101630798,0.8932525897812373,fall
10/07/2020, 21:36:57,-9.229117,1.1629118,2.3808584,0.019537779,0.4493689,0.7717422,9.601950764112145,0.8932525897812373,fall
10/07/2020, 21:36:57,-9.229117,1.1629118,2.3808584,-0.20026223,0.55316335,0.9170545,9.601950764112145,1.089533644508929,fall
10/07/2020, 21:36:57,-9.02812,1.2921243,2.400001,-0.20026223,0.55316335,0.9170545,9.430617246018828,1.089533644508929,fall
10/07/2020, 21:36:57,-9.02812,1.2921243,2.400001,-0.44692668,0.63742,1.0293967,9.430617246018828,1.290622014529109,fall
10/07/2020, 21:36:58,-7.4943204,4.2975097,2.0075781,0.13920668,0.106236674,0.46524334,8.86926138296178,0.4971077297467055,fall
10/07/2020, 21:36:58,-7.4943204,4.2975097,2.0075781,0.2185789,0.057392225,0.34557447,8.86926138296178,0.4129071545730212,fall
10/07/2020, 21:36:58,-7.3770723,4.3357944,1.6342978,0.2185789,0.057392225,0.34557447,8.7115577931386,0.4129071545730212,fall
10/07/2020, 21:36:58,-7.3770723,4.3357944,1.6342978,0.35168,-0.10135223,0.25643334,8.7115577931386,0.4468883094173389,fall
10/07/2020, 21:36:58,-7.099505,4.45065,1.227518,0.35168,-0.10135223,0.25643334,8.46865149759033,0.4468883094173389,fall
10/07/2020, 21:36:58,-7.099505,4.45065,1.227518,0.38465002,-0.22102112,0.20881,8.46865149759033,0.49031376653917547,fall
10/07/2020, 21:36:58,-6.3338017,4.6037908,1.134198,0.38465002,-0.22102112,0.20881,7.911911204957989,0.49031376653917547,fall
10/07/2020, 21:36:58,-6.3338017,4.6037908,1.134198,0.036633335,-0.30649891,0.046402223,7.911911204957989,0.3121486063467947,fall
10/07/2020, 21:36:58,-5.4987063,5.005785,1.1892328,0.036633335,-0.30649891,0.046402223,7.530466750962774,0.3121486063467947,fall
10/07/2020, 21:36:58,-5.4987063,5.005785,1.1892328,-0.48844448,-0.5482789,-0.28574002,7.530466750962774,0.7879309283949271,fall
10/07/2020, 21:36:58,-4.6636114,4.5008993,1.0911272,-0.48844448,-0.5482789,-0.28574002,6.5725128009371065,0.7879309283949271,fall
10/07/2020, 21:36:58,-4.6636114,4.5008993,1.0911272,-0.8425667,-0.7656367,0.22224224,6.5725128009371065,1.1599611343743075,fall
10/07/2020, 21:36:58,-2.548356,-0.43070808,0.91405827,-0.8425667,-0.7656367,0.22224224,2.7413738448633596,1.1599611343743075,fall
10/07/2020, 21:36:58,-2.548356,-0.43070808,0.91405827,-0.31260446,-0.32970002,0.43960002,2.7413738448633596,0.6321960375552602,fall
10/07/2020, 21:36:58,-1.1581261,1.0600204,0.7178468,-0.31260446,-0.32970002,0.43960002,1.7263265888825243,0.6321960375552602,fall
10/07/2020, 21:36:58,-1.1581261,1.0600204,0.7178468,0.3394689,0.20026223,-0.46768558,1.7263265888825243,0.6116158073538941,fall
10/07/2020, 21:36:58,-0.93320084,2.617748,1.079163,0.3394689,0.20026223,-0.46768558,2.9812851577480193,0.6116158073538941,fall
10/07/2020, 21:36:58,-0.93320084,2.617748,1.079163,0.66428447,0.51164556,-1.9574412,2.9812851577480193,2.1294673329291696,fall
10/07/2020, 21:36:58,-0.99302137,3.6131623,0.124426775,0.66428447,0.51164556,-1.9574412,3.7492019306553788,2.1294673329291696,fall
10/07/2020, 21:36:58,-0.99302137,3.6131623,0.124426775,1.0464922,0.039075557,-3.1541302,3.7492019306553788,3.3234335123268592,fall
10/07/2020, 21:36:59,-8.73141,0.57188463,-3.888337,0.013432222,0.007326667,-0.0012211112,9.575162500341856,0.01534912908874015,fall
10/07/2020, 21:36:59,-8.729017,0.567099,-3.897908,0.013432222,0.007326667,-0.0012211112,9.576587601724764,0.01534912908874015,fall
10/07/2020, 21:36:59,-8.729017,0.567099,-3.897908,0.01099,0.0048844446,-0.0048844446,9.576587601724764,0.01298058959326769,fall
10/07/2020, 21:36:59,-8.76491,0.55752766,-3.940979,0.01099,0.0048844446,-0.0048844446,9.626307465868829,0.01298058959326769,fall
10/07/2020, 21:36:59,-8.76491,0.55752766,-3.940979,0.015874445,0.0,-0.008547778,9.626307465868829,0.018029490587349543,fall
10/07/2020, 21:36:59,-8.745767,0.54317075,-3.952943,0.015874445,0.0,-0.008547778,9.61297184153546,0.018029490587349543,fall
10/07/2020, 21:36:59,-8.745767,0.54317075,-3.952943,0.018316668,-0.0048844446,-0.01099,9.61297184153546,0.021912056407680205,fall
10/07/2020, 21:36:59,-8.721839,0.526421,-3.9361932,0.018316668,-0.0048844446,-0.01099,9.583382017624583,0.021912056407680205,fall
10/07/2020, 21:36:59,-8.721839,0.526421,-3.9361932,0.018316668,-0.0061055557,-0.013432222,9.583382017624583,0.0235202618744177,fall
10/07/2020, 21:36:59,-8.7266245,0.5192425,-3.952943,0.018316668,-0.0061055557,-0.013432222,9.594235082330426,0.0235202618744177,fall
10/07/2020, 21:36:59,-8.7266245,0.5192425,-3.952943,0.014653334,-0.0036633336,-0.014653334,9.594235082330426,0.02104424935189062,fall
10/07/2020, 21:36:59,-8.750552,0.5072784,-3.9338005,0.014653334,-0.0036633336,-0.014653334,9.60751168711495,0.02104424935189062,fall
10/07/2020, 21:36:59,-8.750552,0.5072784,-3.9338005,0.008547778,0.0,-0.01099,9.60751168711495,0.013922809347057889,fall
10/07/2020, 21:36:59,-8.736196,0.5096712,-3.938586,0.008547778,0.0,-0.01099,9.596527358038083,0.013922809347057889,fall
10/07/2020, 21:36:59,-8.736196,0.5096712,-3.938586,0.0061055557,0.0,-0.0024422223,9.596527358038083,0.006575884740128067,fall
10/07/2020, 21:36:59,-8.69791,0.5072784,-3.885944,0.0061055557,0.0,-0.0024422223,9.539996593892543,0.006575884740128067,fall
10/07/2020, 21:36:59,-8.69791,0.5072784,-3.885944,0.007326667,0.0,0.007326667,9.539996593892543,0.01036147211706029,fall
10/07/2020, 21:36:59,-8.743374,0.5240282,-3.900301,0.007326667,0.0,0.007326667,9.588197949176738,0.01036147211706029,fall
10/07/2020, 21:36:59,-8.743374,0.5240282,-3.900301,0.0048844446,0.0012211112,0.0012211112,9.588197949176738,0.005180735893894018,fall
10/07/2020, 21:36:59,-8.762517,0.5814559,-3.897908,0.0048844446,0.0012211112,0.0012211112,9.607990489837572,0.005180735893894018,fall
10/07/2020, 21:37:00,-7.0492554,5.6685967,-3.5964124,-0.1965989,0.26376,0.46524334,9.734432322214081,0.5697998168081995,fall
10/07/2020, 21:37:00,-7.068398,5.608776,-3.5820556,-0.1965989,0.26376,0.46524334,9.708333617203632,0.5697998168081995,fall
10/07/2020, 21:37:00,-7.068398,5.608776,-3.5820556,-0.21980001,0.31504667,0.39075556,9.708333617203632,0.5479565296319124,fall
10/07/2020, 21:37:00,-6.975078,5.5106707,-3.4337006,-0.21980001,0.31504667,0.39075556,9.52940214673495,0.5479565296319124,fall
10/07/2020, 21:37:00,-6.975078,5.5106707,-3.4337006,-0.1526389,0.38465002,0.35900667,9.52940214673495,0.5478504025385693,fall
10/07/2020, 21:37:00,-6.9415784,5.4987063,-3.438486,-0.1526389,0.38465002,0.35900667,9.49970886904707,0.5478504025385693,fall
10/07/2020, 21:37:00,-6.9415784,5.4987063,-3.438486,-0.04029667,0.38220778,0.3614489,9.49970886904707,0.5275906811428506,fall
10/07/2020, 21:37:00,-7.025327,5.424529,-3.4887354,-0.04029667,0.38220778,0.3614489,9.536876479799632,0.5275906811428506,fall
10/07/2020, 21:37:00,-7.025327,5.424529,-3.4887354,-0.025643334,0.3858711,0.3834289,9.536876479799632,0.5445840783262812,fall
10/07/2020, 21:37:00,-6.9391856,5.6207404,-3.2398818,-0.025643334,0.3858711,0.3834289,9.499571234380106,0.5445840783262812,fall
10/07/2020, 21:37:00,-6.9391856,5.6207404,-3.2398818,-0.029306669,0.44082114,0.35900667,9.499571234380106,0.569269664149285,fall
10/07/2020, 21:37:00,-6.7669024,5.773881,-2.9192436,-0.029306669,0.44082114,0.35900667,9.362192750234787,0.569269664149285,fall
10/07/2020, 21:37:00,-6.7669024,5.773881,-2.9192436,-0.02075889,0.53484666,0.39075556,9.362192750234787,0.6627079263939623,fall
10/07/2020, 21:37:00,-6.580262,5.649454,-2.804388,-0.02075889,0.53484666,0.39075556,9.11486558014787,0.6627079263939623,fall
10/07/2020, 21:37:00,-6.580262,5.649454,-2.804388,0.023201112,0.6117767,0.5104245,9.11486558014787,0.7970835582134306,fall
10/07/2020, 21:37:00,-6.45105,5.35753,-2.9192436,0.023201112,0.6117767,0.5104245,8.879254224464281,0.7970835582134306,fall
10/07/2020, 21:37:00,-6.45105,5.35753,-2.9192436,0.06349778,0.62765115,0.6203245,8.879254224464281,0.8847487872798143,fall
10/07/2020, 21:37:00,-6.4295144,5.0919266,-3.2638102,0.06349778,0.62765115,0.6203245,8.827164239568843,0.8847487872798143,fall
10/07/2020, 21:37:00,-6.4295144,5.0919266,-3.2638102,0.06594,0.6105556,0.6935911,8.827164239568843,0.9263880665738121,fall
10/07/2020, 21:37:00,-6.5611196,4.8263235,-3.711268,0.06594,0.6105556,0.6935911,8.950709370341164,0.9263880665738121,fall
10/07/2020, 21:37:01,-6.1591253,-12.354143,1.9812572,-3.5461068,-3.7634647,-3.9905913,13.94578996294697,6.531719439613669,fall
10/07/2020, 21:37:01,-5.7427745,-13.438092,3.1896327,-3.5461068,-3.7634647,-3.9905913,14.957791885869492,6.531719439613669,fall
10/07/2020, 21:37:01,-5.7427745,-13.438092,3.1896327,-3.1712258,-3.108949,-3.0613258,14.957791885869492,5.393880988608221,fall
10/07/2020, 21:37:01,-5.4221363,-14.660825,4.4434714,-3.1712258,-3.108949,-3.0613258,16.250654866724297,5.393880988608221,fall
10/07/2020, 21:37:01,-5.4221363,-14.660825,4.4434714,-2.5008357,-2.317669,-2.0136123,16.250654866724297,3.9598488049234115,fall
10/07/2020, 21:37:01,-5.123033,-15.493526,5.706882,-2.5008357,-2.317669,-2.0136123,17.287664153582732,3.9598488049234115,fall
10/07/2020, 21:37:01,-5.123033,-15.493526,5.706882,-1.51662,-1.4555645,-1.064809,17.287664153582732,2.356400324091205,fall
10/07/2020, 21:37:01,-4.9842496,-15.92902,6.4151573,-1.51662,-1.4555645,-1.064809,17.88101404495102,2.356400324091205,fall
10/07/2020, 21:37:01,-4.9842496,-15.92902,6.4151573,-0.41029334,-0.63131446,-0.23201112,17.88101404495102,0.7878627610413493,fall
10/07/2020, 21:37:01,-5.1182475,-15.97927,6.0514483,-0.41029334,-0.63131446,-0.23201112,17.836859414589078,0.7878627610413493,fall
10/07/2020, 21:37:01,-5.1182475,-15.97927,6.0514483,0.5507211,0.03297,0.5556056,17.836859414589078,0.7829931881744581,fall
10/07/2020, 21:37:01,-5.7427745,-16.108482,6.1160545,0.5507211,0.03297,0.5556056,18.16229021480447,0.7829931881744581,fall
10/07/2020, 21:37:01,-5.7427745,-16.108482,6.1160545,1.3102523,0.52141446,1.4751023,18.16229021480447,2.040725596953932,fall
10/07/2020, 21:37:01,-6.355337,-16.06541,5.6446686,1.3102523,0.52141446,1.4751023,18.175533328220315,2.040725596953932,fall
10/07/2020, 21:37:01,-6.355337,-16.06541,5.6446686,1.8426567,0.8218078,2.5545645,18.175533328220315,3.2552344855038116,fall
10/07/2020, 21:37:01,-6.7573314,-15.661024,5.029713,1.8426567,0.8218078,2.5545645,17.782778672995722,3.2552344855038116,fall
10/07/2020, 21:37:01,-6.7573314,-15.661024,5.029713,2.2126534,0.9072856,3.5387802,17.782778672995722,4.27106164333509,fall
10/07/2020, 21:37:01,-6.963114,-14.8378935,4.429115,2.2126534,0.9072856,3.5387802,16.978371381219056,4.27106164333509,fall
10/07/2020, 21:37:01,-6.963114,-14.8378935,4.429115,2.4226844,0.76441556,4.2714467,16.978371381219056,4.969807637800237,fall
10/07/2020, 21:37:01,-6.9655066,-14.053047,3.6107693,2.4226844,0.76441556,4.2714467,16.094846110843267,4.969807637800237,fall
10/07/2020, 21:37:02,-6.745367,4.1778684,1.5098711,-1.4860923,-0.22224224,-0.102573335,8.076773584913049,1.5061153046825946,fall
10/07/2020, 21:37:02,-6.745367,4.1778684,1.5098711,-1.6008767,-0.15874445,-0.04151778,8.076773584913049,1.6092637139501156,fall
10/07/2020, 21:37:02,-6.8339014,4.007978,1.8041883,-1.6008767,-0.15874445,-0.04151778,8.125342516626798,1.6092637139501156,fall
10/07/2020, 21:37:02,-6.8339014,4.007978,1.8041883,-1.6375101,-0.12699556,0.045181114,8.125342516626798,1.6430485102315726,fall
10/07/2020, 21:37:02,-6.8410797,3.8739798,2.1463618,-1.6375101,-0.12699556,0.045181114,8.149537426448473,1.6430485102315726,fall
10/07/2020, 21:37:02,-6.8410797,3.8739798,2.1463618,-1.5898868,-0.09036223,0.098910004,8.149537426448473,1.5955213909254176,fall
10/07/2020, 21:37:02,-6.6927247,3.7088752,2.498107,-1.5898868,-0.09036223,0.098910004,8.049152591114934,1.5955213909254176,fall
10/07/2020, 21:37:02,-6.6927247,3.7088752,2.498107,-1.4482379,0.01099,0.10867889,8.049152591114934,1.4523515018891904,fall
10/07/2020, 21:37:02,-6.513263,3.455236,2.8689942,-1.4482379,0.01099,0.10867889,7.9115346992649425,1.4523515018891904,fall
10/07/2020, 21:37:02,-6.513263,3.455236,2.8689942,-1.2455333,0.1856089,0.058613338,7.9115346992649425,1.2606504287667877,fall
10/07/2020, 21:37:02,-6.4414787,3.196811,3.062813,-1.2455333,0.1856089,0.058613338,7.816205746925024,1.2606504287667877,fall
10/07/2020, 21:37:02,-6.4414787,3.196811,3.062813,-1.0477134,0.3492378,0.012211111,7.816205746925024,1.1044543984457231,fall
10/07/2020, 21:37:02,-6.474978,2.952743,3.0963125,-1.0477134,0.3492378,0.012211111,7.760875111261122,1.1044543984457231,fall
10/07/2020, 21:37:02,-6.474978,2.952743,3.0963125,-0.88042116,0.43960002,-0.026864445,7.760875111261122,0.9844345069293626,fall
10/07/2020, 21:37:02,-6.5946193,2.8139594,3.117848,-0.88042116,0.43960002,-0.026864445,7.818461888388256,0.9844345069293626,fall
10/07/2020, 21:37:02,-6.5946193,2.8139594,3.117848,-0.74732006,0.4493689,-0.10379445,7.818461888388256,0.8781759256999927,fall
10/07/2020, 21:37:02,-6.771688,2.8761728,3.0843484,-0.74732006,0.4493689,-0.10379445,7.977551837842283,0.8781759256999927,fall
10/07/2020, 21:37:02,-6.771688,2.8761728,3.0843484,-0.68626446,0.37732336,-0.21980001,7.977551837842283,0.8134149399957119,fall
10/07/2020, 21:37:02,-6.948757,3.0005996,3.0293136,-0.68626446,0.37732336,-0.21980001,8.152641596259006,0.8134149399957119,fall
10/07/2020, 21:37:02,-6.948757,3.0005996,3.0293136,-0.6801589,0.23567446,-0.35290113,8.152641596259006,0.8016843546042555,fall
10/07/2020, 21:37:03,-9.164511,0.9020941,2.955136,0.03052778,0.045181114,0.23567446,9.671342192944907,0.24190024291622358,fall
10/07/2020, 21:37:03,-9.164511,0.9020941,2.955136,0.034191113,0.07204556,0.27841336,9.671342192944907,0.28960937649827406,fall
10/07/2020, 21:37:03,-9.078369,1.4237294,2.751746,0.034191113,0.07204556,0.27841336,9.592491721560158,0.28960937649827406,fall
10/07/2020, 21:37:03,-9.078369,1.4237294,2.751746,0.036633335,0.04151778,0.1965989,9.592491721560158,0.20424704559086074,fall
10/07/2020, 21:37:03,-8.970692,1.8735801,2.5722845,0.036633335,0.04151778,0.1965989,9.518416830629636,0.20424704559086074,fall
10/07/2020, 21:37:03,-8.970692,1.8735801,2.5722845,0.024422223,0.0036633336,0.05006556,9.518416830629636,0.055824950652050044,fall
10/07/2020, 21:37:03,-8.898908,2.0889342,2.4933212,0.024422223,0.0036633336,0.05006556,9.474748233940579,0.055824950652050044,fall
10/07/2020, 21:37:03,-8.898908,2.0889342,2.4933212,0.008547778,-0.017095556,-0.08669889,9.474748233940579,0.08878074140904309,fall
10/07/2020, 21:37:03,-8.898908,2.036292,2.5220351,0.008547778,-0.017095556,-0.08669889,9.470887188759988,0.08878074140904309,fall
10/07/2020, 21:37:03,-8.898908,2.036292,2.5220351,-0.0036633336,-0.008547778,-0.13310112,9.470887188759988,0.13342560784399907,fall
10/07/2020, 21:37:03,-9.006584,1.8592232,2.565106,-0.0036633336,-0.008547778,-0.13310112,9.54751474479288,0.13342560784399907,fall
10/07/2020, 21:37:03,-9.006584,1.8592232,2.565106,0.0036633336,0.0024422223,-0.11112112,9.54751474479288,0.11120830609157807,fall
10/07/2020, 21:37:03,-9.114262,1.6462619,2.6201408,0.0036633336,0.0024422223,-0.11112112,9.625231483816137,0.11120830609157807,fall
10/07/2020, 21:37:03,-9.114262,1.6462619,2.6201408,0.01099,0.0048844446,-0.06349778,9.625231483816137,0.06462666782637301,fall
10/07/2020, 21:37:03,-9.260223,1.4787644,2.6656044,0.01099,0.0048844446,-0.06349778,9.749047541632896,0.06462666782637301,fall
10/07/2020, 21:37:03,-9.260223,1.4787644,2.6656044,0.008547778,0.0036633336,0.008547778,9.749047541632896,0.012631272255010711,fall
10/07/2020, 21:37:03,-9.281759,1.3639089,2.6344976,0.008547778,0.0036633336,0.008547778,9.744325542566747,0.012631272255010711,fall
10/07/2020, 21:37:03,-9.281759,1.3639089,2.6344976,0.007326667,0.0061055557,0.057392225,9.744325542566747,0.05817925158485586,fall
10/07/2020, 21:37:03,-9.188439,1.3830515,2.603391,0.007326667,0.0061055557,0.057392225,9.649761337922078,0.05817925158485586,fall
10/07/2020, 21:37:03,-9.188439,1.3830515,2.603391,0.01099,0.008547778,0.06227667,9.649761337922078,0.06381401180575078,fall
10/07/2020, 21:37:04,-4.924429,-13.452449,-1.0911272,-0.1856089,2.2407389,-5.4107437,14.36693908880544,5.859309589962617,fall
10/07/2020, 21:37:04,-4.924429,-13.452449,-1.0911272,0.23933779,1.7986968,-5.3643413,14.36693908880544,5.66292766514728,fall
10/07/2020, 21:37:04,-5.355137,-13.780266,-0.23688944,0.23933779,1.7986968,-5.3643413,14.78611961462811,5.66292766514728,fall
10/07/2020, 21:37:04,-5.355137,-13.780266,-0.23688944,0.63742,1.7559578,-5.019988,14.78611961462811,5.356302112430508,fall
10/07/2020, 21:37:04,-5.6374903,-13.277773,0.72023964,0.63742,1.7559578,-5.019988,14.442966973103623,5.356302112430508,fall
10/07/2020, 21:37:04,-5.6374903,-13.277773,0.72023964,0.8120389,1.3493278,-5.0028925,14.442966973103623,5.244904765597803,fall
10/07/2020, 21:37:04,-5.733203,-12.736995,0.45942193,0.8120389,1.3493278,-5.0028925,13.975396934962637,5.244904765597803,fall
10/07/2020, 21:37:04,-5.733203,-12.736995,0.45942193,0.8523356,0.54950005,-5.142099,13.975396934962637,5.241145615761797,fall
10/07/2020, 21:37:04,-5.8863435,-12.784851,0.14596218,0.8523356,0.54950005,-5.142099,14.075608743573879,5.241145615761797,fall
10/07/2020, 21:37:04,-5.8863435,-12.784851,0.14596218,0.9182756,-0.2869611,-5.0700536,14.075608743573879,5.160525169354739,fall
10/07/2020, 21:37:04,-5.716453,-13.076776,-0.09571291,0.9182756,-0.2869611,-5.0700536,14.271967472326386,5.160525169354739,fall
10/07/2020, 21:37:04,-5.716453,-13.076776,-0.09571291,0.94880337,-0.94758224,-4.8172836,14.271967472326386,5.00043613219015,fall
10/07/2020, 21:37:04,-5.288138,-13.672588,-0.46181476,0.94880337,-0.94758224,-4.8172836,14.666879272782847,5.00043613219015,fall
10/07/2020, 21:37:04,-5.288138,-13.672588,-0.46181476,1.3139156,-1.34078,-4.2384768,14.666879272782847,4.635596022101754,fall
10/07/2020, 21:37:04,-4.4913282,-11.66501,1.0504491,1.3139156,-1.34078,-4.2384768,12.5438407829034,4.635596022101754,fall
10/07/2020, 21:37:04,-4.4913282,-11.66501,1.0504491,1.6069822,-1.5215045,-3.6755445,12.5438407829034,4.290337431229554,fall
10/07/2020, 21:37:04,-3.2757742,-11.693725,1.6295122,1.6069822,-1.5215045,-3.6755445,12.252722253846626,4.290337431229554,fall
10/07/2020, 21:37:04,-3.2757742,-11.693725,1.6295122,1.3725289,-1.3688656,-2.0209389,12.252722253846626,2.800325444672193,fall
10/07/2020, 21:37:04,-3.2757742,-11.693725,1.6295122,1.1160955,-1.0892311,-1.0892311,12.252722253846626,1.9022403068750093,fall
10/07/2020, 21:37:04,-2.8187451,-12.466606,1.6438692,1.1160955,-1.0892311,-1.0892311,12.886578235395469,1.9022403068750093,fall
10/07/2020, 21:37:05,-6.108876,-1.8424734,3.790231,0.36511225,-0.4249467,0.83890337,7.421517898042818,1.008784171970105,fall
10/07/2020, 21:37:05,-6.108876,-1.8424734,3.790231,0.11112112,-0.34679556,0.89263225,7.421517898042818,0.9640577727523336,fall
10/07/2020, 21:37:05,-6.020342,-2.0386848,3.859623,0.11112112,-0.34679556,0.89263225,7.4362249511560075,0.9640577727523336,fall
10/07/2020, 21:37:05,-6.020342,-2.0386848,3.859623,-0.12089001,-0.20026223,0.9426978,7.4362249511560075,0.9712870540906767,fall
10/07/2020, 21:37:05,-6.0011992,-1.8233309,4.0103707,-0.12089001,-0.20026223,0.9426978,7.444595441097456,0.9712870540906767,fall
10/07/2020, 21:37:05,-6.0011992,-1.8233309,4.0103707,-0.30772,-0.09524667,0.89385337,7.444595441097456,0.9501249239018322,fall
10/07/2020, 21:37:05,-6.0729837,-1.416551,4.197011,-0.30772,-0.09524667,0.89385337,7.5168244311982315,0.9501249239018322,fall
10/07/2020, 21:37:05,-6.0729837,-1.416551,4.197011,-0.35168,-0.007326667,0.77296335,7.5168244311982315,0.8492378010132681,fall
10/07/2020, 21:37:05,-6.233303,-1.0169497,4.3262234,-0.35168,-0.007326667,0.77296335,7.655355147737977,0.8492378010132681,fall
10/07/2020, 21:37:05,-6.233303,-1.0169497,4.3262234,-0.29795113,-0.039075557,0.5873545,7.655355147737977,0.65976288382327,fall
10/07/2020, 21:37:05,-6.518049,-0.5455636,4.429115,-0.29795113,-0.039075557,0.5873545,7.899345376348384,0.65976288382327,fall
10/07/2020, 21:37:05,-6.518049,-0.5455636,4.429115,-0.10867889,-0.16118668,0.38831335,7.899345376348384,0.4342574209623819,fall
10/07/2020, 21:37:05,-6.762117,-0.35174492,4.2687955,-0.10867889,-0.16118668,0.38831335,8.004533997542437,0.4342574209623819,fall
10/07/2020, 21:37:05,-6.762117,-0.35174492,4.2687955,0.2515489,-0.49455002,0.10013112,8.004533997542437,0.5638109652547607,fall
10/07/2020, 21:37:05,-6.936793,-0.3804588,4.208975,0.2515489,-0.49455002,0.10013112,8.122765116618655,0.5638109652547607,fall
10/07/2020, 21:37:05,-6.936793,-0.3804588,4.208975,0.29306668,-0.51775116,0.017095556,8.122765116618655,0.5951861877590988,fall
10/07/2020, 21:37:05,-6.9056864,-0.4546363,4.2352962,0.29306668,-0.51775116,0.017095556,8.113749617060375,0.5951861877590988,fall
10/07/2020, 21:37:05,-6.7812595,-0.6149554,4.2352962,0.29306668,-0.51775116,0.017095556,8.018814463486724,0.5951861877590988,fall
10/07/2020, 21:37:05,-6.7812595,-0.6149554,4.2352962,0.2075889,-0.4823389,-0.036633335,8.018814463486724,0.5263895616778793,fall
10/07/2020, 21:37:05,-6.664011,-0.72023964,4.3118663,0.2075889,-0.4823389,-0.036633335,7.9699421963607096,0.5263895616778793,fall
10/07/2020, 21:37:06,0.6652047,1.579263,16.73301,-1.3737501,4.5339856,-1.50563,16.82052824231715,4.971029733615232,fall
10/07/2020, 21:37:06,0.6652047,1.579263,16.73301,2.920898,27.460348,0.72534,16.82052824231715,27.62478022366358,fall
10/07/2020, 21:37:06,-26.55076,-11.705688,47.58367,2.920898,27.460348,0.72534,55.73304059214694,27.62478022366358,fall
10/07/2020, 21:37:06,-26.55076,-11.705688,47.58367,-0.41029334,27.95734,4.9833546,55.73304059214694,28.400968939500867,fall
10/07/2020, 21:37:06,-52.345387,6.546763,-15.314065,-0.41029334,27.95734,4.9833546,54.931049321894896,28.400968939500867,fall
10/07/2020, 21:37:06,-52.345387,6.546763,-15.314065,-0.32481557,5.4669147,-3.723168,54.931049321894896,6.622283606950012,fall
10/07/2020, 21:37:06,-65.24031,1.8903298,-37.59603,-0.32481557,5.4669147,-3.723168,75.32153108001583,6.622283606950012,fall
10/07/2020, 21:37:06,-65.24031,1.8903298,-37.59603,0.33214223,-4.3532615,-6.8711925,75.32153108001583,8.14091454655247,fall
10/07/2020, 21:37:06,-43.20002,-3.2997024,-15.565311,0.33214223,-4.3532615,-6.8711925,46.037035849485804,8.14091454655247,fall
10/07/2020, 21:37:06,-43.20002,-3.2997024,-15.565311,-2.184568,-4.845369,-8.74804,46.037035849485804,10.23611956612208,fall
10/07/2020, 21:37:06,-23.550161,-2.902494,-9.461221,-2.184568,-4.845369,-8.74804,25.54504392691876,10.23611956612208,fall
10/07/2020, 21:37:06,-23.550161,-2.902494,-9.461221,-2.35186,-4.8209467,-9.41721,25.54504392691876,10.837740069976869,fall
10/07/2020, 21:37:06,-11.07159,-0.32063824,-6.6281185,-2.35186,-4.8209467,-9.41721,12.907938582021208,10.837740069976869,fall
10/07/2020, 21:37:06,-11.07159,-0.32063824,-6.6281185,0.30161446,-3.5864034,-8.838403,12.907938582021208,9.54309297627905,fall
10/07/2020, 21:37:06,-5.1206403,-1.4476577,0.65084773,0.30161446,-3.5864034,-8.838403,5.360995472467786,9.54309297627905,fall
10/07/2020, 21:37:06,-5.1206403,-1.4476577,0.65084773,2.5765445,-3.5815191,-8.338968,5.360995472467786,9.434206530544326,fall
10/07/2020, 21:37:06,-1.2634103,0.99302137,-3.0867412,2.5765445,-3.5815191,-8.338968,3.4799810907919175,9.434206530544326,fall
10/07/2020, 21:37:06,-1.2634103,0.99302137,-3.0867412,2.2859201,-4.56085,-9.3598175,3.4799810907919175,10.659876577911952,fall
10/07/2020, 21:37:06,0.35653058,0.9810573,-2.605784,2.2859201,-4.56085,-9.3598175,2.8070798688066843,10.659876577911952,fall
10/07/2020, 21:37:06,0.35653058,0.9810573,-2.605784,1.6179723,-4.4008846,-8.951966,2.8070798688066843,10.105608349284624,fall
10/07/2020, 21:37:07,-8.721839,-3.3020952,1.7467605,0.0036633336,-0.18194556,0.80471224,9.488175769523368,0.8250329631766786,fall
10/07/2020, 21:37:07,-9.042477,-2.4933212,2.0315065,0.0036633336,-0.18194556,0.80471224,9.597398260099698,0.8250329631766786,fall
10/07/2020, 21:37:07,-9.042477,-2.4933212,2.0315065,-0.029306669,-0.14164889,0.64108336,9.597398260099698,0.6571994846174145,fall
10/07/2020, 21:37:07,-9.24826,-1.7754744,2.1415763,-0.029306669,-0.14164889,0.64108336,9.65758577777201,0.6571994846174145,fall
10/07/2020, 21:37:07,-9.24826,-1.7754744,2.1415763,-0.03174889,-0.11112112,0.39197668,9.65758577777201,0.40865831205613223,fall
10/07/2020, 21:37:07,-9.336794,-1.282553,2.1463618,-0.03174889,-0.11112112,0.39197668,9.66579181998813,0.40865831205613223,fall
10/07/2020, 21:37:07,-9.336794,-1.282553,2.1463618,-0.081814446,-0.068382226,0.16240779,9.66579181998813,0.19428335277578512,fall
10/07/2020, 21:37:07,-9.205189,-1.7922242,2.4191437,-0.081814446,-0.068382226,0.16240779,9.685030900598488,0.19428335277578512,fall
10/07/2020, 21:37:07,-9.205189,-1.7922242,2.4191437,-0.59834445,0.07693,0.48600224,9.685030900598488,0.7746821762714584,fall
10/07/2020, 21:37:07,-8.628518,-2.9192436,2.6512475,-0.59834445,0.07693,0.48600224,9.486960579622584,0.7746821762714584,fall
10/07/2020, 21:37:07,-8.628518,-2.9192436,2.6512475,-0.5971234,0.17706113,0.72900337,9.486960579622584,0.958828916799527,fall
10/07/2020, 21:37:07,-8.623733,-3.1680973,2.4023938,-0.5971234,0.17706113,0.72900337,9.496162365622164,0.958828916799527,fall
10/07/2020, 21:37:07,-8.623733,-3.1680973,2.4023938,-0.68138003,0.2075889,1.4018356,9.496162365622164,1.5724232379895784,fall
10/07/2020, 21:37:07,-8.724232,-3.4911282,2.0434706,-0.68138003,0.2075889,1.4018356,9.61644255614176,1.5724232379895784,fall
10/07/2020, 21:37:07,-8.724232,-3.4911282,2.0434706,-0.55438447,0.20392556,1.4531223,9.61644255614176,1.5685955736938404,fall
10/07/2020, 21:37:07,-8.961121,-3.1489546,1.7970098,-0.55438447,0.20392556,1.4531223,9.66679068153432,1.5685955736938404,fall
10/07/2020, 21:37:07,-9.135797,-2.349752,1.5840486,-0.55438447,0.20392556,1.4531223,9.565214207152994,1.5685955736938404,fall
10/07/2020, 21:37:07,-9.135797,-2.349752,1.5840486,-0.47745445,0.10501556,1.3224634,9.565214207152994,1.4099292357410822,fall
10/07/2020, 21:37:07,-9.327223,-1.6438692,1.4069797,-0.47745445,0.10501556,1.3224634,9.574914268594483,1.4099292357410822,fall
10/07/2020, 21:37:07,-9.327223,-1.6438692,1.4069797,-0.33458444,-0.07937223,1.3713078,9.574914268594483,1.413765157400333,fall
10/07/2020, 21:37:08,-6.465407,0.3900301,4.0869412,0.31504667,1.3224634,1.5752333,7.658766121196326,2.0807508033670183,fall
10/07/2020, 21:37:08,-6.326623,0.53599226,4.1754756,0.31504667,1.3224634,1.5752333,7.599213267670916,2.0807508033670183,fall
10/07/2020, 21:37:08,-6.326623,0.53599226,4.1754756,0.30894113,1.6094245,1.68147,7.599213267670916,2.347984930430693,fall
10/07/2020, 21:37:08,-6.273981,0.70348984,4.1467614,0.30894113,1.6094245,1.68147,7.553367922997186,2.347984930430693,fall
10/07/2020, 21:37:08,-6.273981,0.70348984,4.1467614,0.15752333,1.834109,1.7071134,7.553367922997186,2.5105786875584504,fall
10/07/2020, 21:37:08,-6.2931237,0.8662018,3.993621,0.15752333,1.834109,1.7071134,7.503513933378415,2.5105786875584504,fall
10/07/2020, 21:37:08,-6.2931237,0.8662018,3.993621,-0.10501556,1.9464512,1.6350678,7.503513933378415,2.5442380528830912,fall
10/07/2020, 21:37:08,-6.5204415,0.85902333,3.7950168,-0.10501556,1.9464512,1.6350678,7.593170030433824,2.5442380528830912,fall
10/07/2020, 21:37:08,-6.5204415,0.85902333,3.7950168,-0.3602278,1.9244711,1.4921979,7.593170030433824,2.4617082927012235,fall
10/07/2020, 21:37:08,-6.884151,0.9379865,3.615555,-0.3602278,1.9244711,1.4921979,7.8322149937251515,2.4617082927012235,fall
10/07/2020, 21:37:08,-6.884151,0.9379865,3.615555,-0.5580478,1.7339778,1.2699556,7.8322149937251515,2.2205593040048095,fall
10/07/2020, 21:37:08,-7.3603225,1.1653047,3.3427732,-0.5580478,1.7339778,1.2699556,8.167399497719078,2.2205593040048095,fall
10/07/2020, 21:37:08,-7.3603225,1.1653047,3.3427732,-0.7009178,1.3786345,0.9964267,8.167399497719078,1.8397784814849323,fall
10/07/2020, 21:37:08,-7.834101,1.3878372,3.2231321,-0.7009178,1.3786345,0.9964267,8.584160668237294,1.8397784814849323,fall
10/07/2020, 21:37:08,-7.834101,1.3878372,3.2231321,-0.7302245,0.9194967,0.7448778,8.584160668237294,1.390519677928593,fall
10/07/2020, 21:37:08,-8.149954,1.4596218,3.1393833,-0.7302245,0.9194967,0.7448778,8.854827553132381,1.390519677928593,fall
10/07/2020, 21:37:08,-8.149954,1.4596218,3.1393833,-0.6337567,0.44692668,0.5922389,8.854827553132381,0.9757755529031819,fall
10/07/2020, 21:37:08,-8.19781,1.39023,3.2422748,-0.6337567,0.44692668,0.5922389,8.924638734842414,0.9757755529031819,fall
10/07/2020, 21:37:08,-8.19781,1.39023,3.2422748,-0.46158,0.10013112,0.5238567,8.924638734842414,0.705342601976001,fall
10/07/2020, 21:37:08,-7.999206,1.3040884,3.3690944,-0.46158,0.10013112,0.5238567,8.777171583706725,0.705342601976001,fall
10/07/2020, 21:37:09,-4.991428,2.2205393,1.7347964,-0.26498112,-0.43227336,1.1270856,5.73189898320716,1.235879089871501,fall
10/07/2020, 21:37:09,-4.991428,2.2205393,1.7347964,0.117226675,-0.24055889,1.32979,5.73189898320716,1.356448343275818,fall
10/07/2020, 21:37:09,-3.1752756,2.5220351,1.2299109,0.117226675,-0.24055889,1.32979,4.237418644055745,1.356448343275818,fall
10/07/2020, 21:37:09,-3.1752756,2.5220351,1.2299109,0.68504333,-0.3162678,1.295599,4.237418644055745,1.499295304965724,fall
10/07/2020, 21:37:09,-1.6893328,1.4883357,0.5240282,0.68504333,-0.3162678,1.295599,2.3116215586849442,1.499295304965724,fall
10/07/2020, 21:37:09,-1.6893328,1.4883357,0.5240282,1.0513767,-0.16607112,1.3603178,2.3116215586849442,1.7272629129620167,fall
10/07/2020, 21:37:09,-0.7322037,0.7752745,-0.18664017,1.0513767,-0.16607112,1.3603178,1.0825929145370825,1.7272629129620167,fall
10/07/2020, 21:37:09,-0.7322037,0.7752745,-0.18664017,0.60811335,-0.16485001,1.394509,1.0825929145370825,1.5302393944887158,fall
10/07/2020, 21:37:09,-0.21774685,0.32542387,0.086141616,0.60811335,-0.16485001,1.394509,0.4009174020569722,1.5302393944887158,fall
10/07/2020, 21:37:09,-0.21774685,0.32542387,0.086141616,-0.07326667,-0.16362889,1.4348056,0.4009174020569722,1.445963215138481,fall
10/07/2020, 21:37:09,-0.021535404,-0.04546363,0.043070808,-0.07326667,-0.16362889,1.4348056,0.06622544602236698,1.445963215138481,fall
10/07/2020, 21:37:09,-0.021535404,-0.04546363,0.043070808,-0.6679478,-0.08792,1.5190623,0.06622544602236698,1.6617564326130096,fall
10/07/2020, 21:37:09,0.1268196,-0.009571291,0.050249275,-0.6679478,-0.08792,1.5190623,0.13674724522030565,1.6617564326130096,fall
10/07/2020, 21:37:09,0.1268196,-0.009571291,0.050249275,-1.1844778,-0.10501556,1.5337156,0.13674724522030565,1.9406956228242642,fall
10/07/2020, 21:37:09,0.18664017,-0.02871387,0.17706887,-1.1844778,-0.10501556,1.5337156,0.25886758555576705,1.9406956228242642,fall
10/07/2020, 21:37:09,0.18664017,-0.02871387,0.17706887,-1.7498523,-0.23323223,1.5959923,0.25886758555576705,2.379826012720134,fall
10/07/2020, 21:37:09,0.15792629,-0.13878371,-0.21774685,-1.7498523,-0.23323223,1.5959923,0.30268023304940506,2.379826012720134,fall
10/07/2020, 21:37:09,0.21774685,-0.10767702,-0.078963146,-1.7498523,-0.23323223,1.5959923,0.25542750709743306,2.379826012720134,fall
10/07/2020, 21:37:09,0.21774685,-0.10767702,-0.078963146,-1.8524256,-0.29306668,1.5642434,0.25542750709743306,2.4421765123907337,fall
10/07/2020, 21:37:09,0.20578274,-0.15074782,-0.083748795,-1.8524256,-0.29306668,1.5642434,0.2684870625487327,2.4421765123907337,fall
10/07/2020, 21:37:10,1.4644074,8.128419,-3.5892339,0.4701278,0.10867889,0.25765446,9.005458519802762,0.5470073688008805,fall
10/07/2020, 21:37:10,1.6917256,8.221739,-3.9242291,0.4701278,0.10867889,0.25765446,9.265986136145084,0.5470073688008805,fall
10/07/2020, 21:37:10,1.6917256,8.221739,-3.9242291,0.6459678,0.07693,0.25399113,9.265986136145084,0.698358140574363,fall
10/07/2020, 21:37:10,1.8999012,8.382058,-4.371687,0.6459678,0.07693,0.25399113,9.642622556669247,0.698358140574363,fall
10/07/2020, 21:37:10,1.8999012,8.382058,-4.371687,0.72411895,0.034191113,0.20148334,9.642622556669247,0.7524046909455168,fall
10/07/2020, 21:37:10,2.0745773,8.41795,-4.76411,0.72411895,0.034191113,0.20148334,9.892547335988414,0.7524046909455168,fall
10/07/2020, 21:37:10,2.0745773,8.41795,-4.76411,0.6887067,0.0012211112,0.117226675,9.892547335988414,0.6986132675817079,fall
10/07/2020, 21:37:10,2.184647,8.312666,-5.13739,0.6887067,0.0012211112,0.117226675,10.013284941230044,0.6986132675817079,fall
10/07/2020, 21:37:10,2.184647,8.312666,-5.13739,0.56659555,-0.03052778,0.019537779,10.013284941230044,0.5677536370154143,fall
10/07/2020, 21:37:10,2.2061825,8.123632,-5.515456,0.56659555,-0.03052778,0.019537779,10.063841319254514,0.5677536370154143,fall
10/07/2020, 21:37:10,2.2061825,8.123632,-5.515456,0.39075556,-0.05372889,-0.058613338,10.063841319254514,0.3987633730727726,fall
10/07/2020, 21:37:10,2.120041,7.982456,-5.7786665,0.39075556,-0.05372889,-0.058613338,10.08003804390669,0.3987633730727726,fall
10/07/2020, 21:37:10,2.120041,7.982456,-5.7786665,0.17706113,-0.064718895,-0.09036223,10.08003804390669,0.20905623613902888,fall
10/07/2020, 21:37:10,2.0075781,7.946564,-5.907879,0.17706113,-0.064718895,-0.09036223,10.103528360044548,0.20905623613902888,fall
10/07/2020, 21:37:10,2.0075781,7.946564,-5.907879,-0.042738892,-0.051286668,-0.08669889,10.103528360044548,0.10942409539959913,fall
10/07/2020, 21:37:10,1.9190438,7.9968133,-5.907879,-0.042738892,-0.051286668,-0.08669889,10.125946116235173,0.10942409539959913,fall
10/07/2020, 21:37:10,1.9190438,7.9968133,-5.907879,-0.21369445,-0.014653334,-0.064718895,10.125946116235173,0.22376008330406524,fall
10/07/2020, 21:37:10,1.8903298,8.059027,-5.74756,-0.21369445,-0.014653334,-0.064718895,10.077485042005804,0.22376008330406524,fall
10/07/2020, 21:37:10,1.8903298,8.059027,-5.74756,-0.30894113,0.0,-0.045181114,10.077485042005804,0.3122274048452899,fall
10/07/2020, 21:37:10,1.9046868,8.0614195,-5.4987063,-0.30894113,0.0,-0.045181114,9.942338125733773,0.3122274048452899,fall
10/07/2020, 21:37:11,0.6628119,15.3356,-3.141776,-0.24910668,-1.9305768,2.43978,15.668142864453007,3.121170830726266,fall
10/07/2020, 21:37:11,0.70348984,15.081961,-3.359523,-0.24910668,-1.9305768,2.43978,15.467605859589687,3.121170830726266,fall
10/07/2020, 21:37:11,0.70348984,15.081961,-3.359523,-0.36877558,-2.27493,2.6205046,15.467605859589687,3.489748756478482,fall
10/07/2020, 21:37:11,0.85902333,14.811572,-3.591627,-0.36877558,-2.27493,2.6205046,15.26500481752585,3.489748756478482,fall
10/07/2020, 21:37:11,0.85902333,14.811572,-3.591627,-0.4041878,-2.5093834,2.6840024,15.26500481752585,3.696517537590706,fall
10/07/2020, 21:37:11,1.1006985,14.550755,-3.7136607,-0.4041878,-2.5093834,2.6840024,15.05746562127205,3.696517537590706,fall
10/07/2020, 21:37:11,1.1006985,14.550755,-3.7136607,-0.28940335,-2.624168,2.5863135,15.05746562127205,3.6958123619615004,fall
10/07/2020, 21:37:11,1.4500505,14.342579,-3.6466618,-0.28940335,-2.624168,2.5863135,14.869780008862806,3.6958123619615004,fall
10/07/2020, 21:37:11,1.4500505,14.342579,-3.6466618,0.029306669,-2.5973034,2.3909357,14.869780008862806,3.530356513241257,fall
10/07/2020, 21:37:11,2.309074,13.158132,-3.1633115,0.029306669,-2.5973034,2.3909357,13.728612060505476,3.530356513241257,fall
10/07/2020, 21:37:11,2.309074,13.158132,-3.1633115,0.91461223,-2.3958201,2.174799,13.728612060505476,3.362472338222267,fall
10/07/2020, 21:37:11,2.7876384,12.399607,-2.952743,0.91461223,-2.3958201,2.174799,13.047600007829034,3.362472338222267,fall
10/07/2020, 21:37:11,2.7876384,12.399607,-2.952743,1.5300523,-2.1784623,2.1564822,13.047600007829034,3.4259558470686056,fall
10/07/2020, 21:37:11,3.2805598,11.822937,-2.6488547,1.5300523,-2.1784623,2.1564822,12.552304307793852,3.4259558470686056,fall
10/07/2020, 21:37:11,3.2805598,11.822937,-2.6488547,2.2016635,-1.7974756,2.096648,12.552304307793852,3.5318795749556227,fall
10/07/2020, 21:37:11,3.6873398,11.574083,-2.3377876,2.2016635,-1.7974756,2.096648,12.370170999498793,3.5318795749556227,fall
10/07/2020, 21:37:11,3.6873398,11.574083,-2.3377876,2.7536056,-1.2284378,1.9794211,12.370170999498793,3.6068700074327884,fall
10/07/2020, 21:37:11,3.8141594,11.425728,-2.115255,2.7536056,-1.2284378,1.9794211,12.229855798820248,3.6068700074327884,fall
10/07/2020, 21:37:11,3.8141594,11.425728,-2.115255,3.0942957,-0.6447467,1.9061545,12.229855798820248,3.6910417892705185,fall
10/07/2020, 21:37:11,3.7280176,11.303694,-2.0578275,3.0942957,-0.6447467,1.9061545,12.079166435469878,3.6910417892705185,fall
10/07/2020, 21:37:12,7.4153576,4.1443686,-4.900501,0.10867889,0.08425667,0.0036633336,9.807049888630482,0.13756347009648795,fall
10/07/2020, 21:37:12,7.4153576,4.1443686,-4.900501,0.13310112,0.013432222,-0.06349778,9.807049888630482,0.14808207585438352,fall
10/07/2020, 21:37:12,7.355537,4.125226,-4.948357,0.13310112,0.013432222,-0.06349778,9.777916516620039,0.14808207585438352,fall
10/07/2020, 21:37:12,7.355537,4.125226,-4.948357,0.14531223,-0.06105556,-0.14653334,9.777916516620039,0.21521023844491696,fall
10/07/2020, 21:37:12,7.348358,4.1347976,-4.9363933,0.14531223,-0.06105556,-0.14653334,9.770511601807705,0.21521023844491696,fall
10/07/2020, 21:37:12,7.348358,4.1347976,-4.9363933,0.15386,-0.10867889,-0.1965989,9.770511601807705,0.27227767163870054,fall
10/07/2020, 21:37:12,7.472785,4.331009,-4.9340005,0.15386,-0.10867889,-0.1965989,9.947085736096103,0.27227767163870054,fall
10/07/2020, 21:37:12,7.472785,4.331009,-4.9340005,0.17217667,-0.09402556,-0.18438779,9.947085736096103,0.26922939917942473,fall
10/07/2020, 21:37:12,7.623533,4.476971,-4.855037,0.17217667,-0.09402556,-0.18438779,10.08627329260968,0.26922939917942473,fall
10/07/2020, 21:37:12,7.623533,4.476971,-4.855037,0.29306668,0.11844778,-0.098910004,10.08627329260968,0.33121163141093285,fall
10/07/2020, 21:37:12,7.7312098,4.9172506,-4.601398,0.29306668,0.11844778,-0.098910004,10.252990858197172,0.33121163141093285,fall
10/07/2020, 21:37:12,7.7312098,4.9172506,-4.601398,0.27963445,0.23445335,-0.09646778,10.252990858197172,0.3774517572027683,fall
10/07/2020, 21:37:12,7.8149586,4.981857,-4.486542,0.27963445,0.23445335,-0.09646778,10.296675969862868,0.3774517572027683,fall
10/07/2020, 21:37:12,7.8149586,4.981857,-4.486542,0.19293556,0.30161446,-0.12211112,10.296675969862868,0.3782942489509312,fall
10/07/2020, 21:37:12,7.8604226,4.895715,-4.359723,0.19293556,0.30161446,-0.12211112,10.235304428156216,0.3782942489509312,fall
10/07/2020, 21:37:12,7.8604226,4.895715,-4.359723,0.09646778,0.3174889,-0.16118668,10.235304428156216,0.3688988821786307,fall
10/07/2020, 21:37:12,7.759924,4.5631127,-4.2759743,0.09646778,0.3174889,-0.16118668,9.966061072677421,0.3688988821786307,fall
10/07/2020, 21:37:12,7.759924,4.5631127,-4.2759743,0.017095556,0.2283478,-0.18683001,9.966061072677421,0.29553413821117697,fall
10/07/2020, 21:37:12,7.556534,4.2759743,-4.3238306,0.017095556,0.2283478,-0.18683001,9.699519078813802,0.29553413821117697,fall
10/07/2020, 21:37:12,7.556534,4.2759743,-4.3238306,-0.02075889,0.068382226,-0.19049335,9.699519078813802,0.2034570591301463,fall
10/07/2020, 21:37:13,4.725825,1.5696917,-8.535198,0.58613336,0.16607112,0.12211112,9.881647674611713,0.6213236339112891,fall
10/07/2020, 21:37:13,4.725825,1.5696917,-8.535198,0.6874856,0.1746189,-0.0048844446,9.881647674611713,0.709332104685181,fall
10/07/2020, 21:37:13,4.5152564,1.4500505,-8.829515,0.6874856,0.1746189,-0.0048844446,10.022501184073533,0.709332104685181,fall
10/07/2020, 21:37:13,4.5152564,1.4500505,-8.829515,0.7326667,-0.024422223,0.028085556,10.022501184073533,0.7336114057264388,fall
10/07/2020, 21:37:13,4.5008993,1.7611175,-9.133404,0.7326667,-0.024422223,0.028085556,10.33337766261105,0.7336114057264388,fall
10/07/2020, 21:37:13,4.5008993,1.7611175,-9.133404,0.63619894,-0.12577444,-0.054950003,10.33337766261105,0.6508362327877067,fall
10/07/2020, 21:37:13,4.5320063,1.6821543,-9.178867,0.63619894,-0.12577444,-0.054950003,10.37402185765723,0.6508362327877067,fall
10/07/2020, 21:37:13,4.5320063,1.6821543,-9.178867,0.45547447,-0.07570889,-0.14042778,10.37402185765723,0.48260624459760165,fall
10/07/2020, 21:37:13,3.9242291,1.3830515,-9.205189,0.45547447,-0.07570889,-0.14042778,10.10187635147889,0.48260624459760165,fall
10/07/2020, 21:37:13,3.9242291,1.3830515,-9.205189,0.30161446,-0.32359445,0.007326667,10.10187635147889,0.4424232512285967,fall
10/07/2020, 21:37:13,4.1347976,1.6534405,-8.891729,0.30161446,-0.32359445,0.007326667,9.944509404509624,0.4424232512285967,fall
10/07/2020, 21:37:13,4.1347976,1.6534405,-8.891729,0.3309211,-0.4163989,-0.058613338,9.944509404509624,0.5351003281322937,fall
10/07/2020, 21:37:13,4.1778684,1.6103697,-8.666803,0.3309211,-0.4163989,-0.058613338,9.755068174031594,0.5351003281322937,fall
10/07/2020, 21:37:13,4.1778684,1.6103697,-8.666803,0.5519422,-0.34313223,-0.14287001,9.755068174031594,0.6654260211075528,fall
10/07/2020, 21:37:13,3.9361932,1.5744773,-8.642876,0.5519422,-0.34313223,-0.14287001,9.626624320740047,0.6654260211075528,fall
10/07/2020, 21:37:13,3.9361932,1.5744773,-8.642876,0.7119078,-0.26864445,-0.085477784,9.626624320740047,0.7656951186077844,fall
10/07/2020, 21:37:13,3.7040894,1.550549,-8.6141615,0.7119078,-0.26864445,-0.085477784,9.504117991783296,0.7656951186077844,fall
10/07/2020, 21:37:13,3.7040894,1.550549,-8.6141615,0.9097278,-0.2295689,0.039075557,9.504117991783296,0.9390598862654397,fall
10/07/2020, 21:37:13,3.7734814,1.5720844,-8.475378,0.9097278,-0.2295689,0.039075557,9.409710088474482,0.9390598862654397,fall
10/07/2020, 21:37:13,3.7734814,1.5720844,-8.475378,1.2064579,-0.07570889,0.07204556,9.409710088474482,1.2109760319415144,fall
10/07/2020, 21:37:14,7.1856465,0.7298109,-7.520642,1.0074167,-1.1490656,1.3212423,10.427185295735628,2.0201290909010687,fall
10/07/2020, 21:37:14,7.1856465,0.7298109,-7.520642,1.3371167,-1.5080723,1.4934189,10.427185295735628,2.5084782552647047,fall
10/07/2020, 21:37:14,6.9056864,0.24646074,-7.408179,1.3371167,-1.5080723,1.4934189,10.130664365103902,2.5084782552647047,fall
10/07/2020, 21:37:14,6.9056864,0.24646074,-7.408179,1.8621945,-1.8866167,1.7303145,10.130664365103902,3.165608842174868,fall
10/07/2020, 21:37:14,6.5850477,0.0023928226,-7.446464,1.8621945,-1.8866167,1.7303145,9.940457044198329,3.165608842174868,fall
10/07/2020, 21:37:14,6.5850477,0.0023928226,-7.446464,2.5557857,-2.2810357,1.8817323,9.940457044198329,3.9084626934437288,fall
10/07/2020, 21:37:14,6.364908,-0.15553348,-7.7001033,2.5557857,-2.2810357,1.8817323,9.991388184776403,3.9084626934437288,fall
10/07/2020, 21:37:14,6.364908,-0.15553348,-7.7001033,3.393468,-2.5997458,1.9586623,9.991388184776403,4.702197387422508,fall
10/07/2020, 21:37:14,6.2380886,-0.73459655,-8.860622,3.393468,-2.5997458,1.9586623,10.861123836527373,4.702197387422508,fall
10/07/2020, 21:37:14,6.2380886,-0.73459655,-8.860622,4.60481,-3.021029,2.2773724,10.861123836527373,5.959640793353167,fall
10/07/2020, 21:37:14,6.1902323,-1.1437693,-9.360723,4.60481,-3.021029,2.2773724,11.280527925442525,5.959640793353167,fall
10/07/2020, 21:37:14,6.1902323,-1.1437693,-9.360723,4.8282733,-3.0796423,2.5350268,11.280527925442525,6.262809314844436,fall
10/07/2020, 21:37:14,6.1591253,-1.6510476,-9.712467,4.8282733,-3.0796423,2.5350268,11.61864027885645,6.262809314844436,fall
10/07/2020, 21:37:14,6.1591253,-1.6510476,-9.712467,4.8746758,-3.1297078,2.8073347,11.61864027885645,6.4372868953267846,fall
10/07/2020, 21:37:14,6.1639113,-2.3521447,-10.109675,4.8746758,-3.1297078,2.8073347,12.071947840265448,6.4372868953267846,fall
10/07/2020, 21:37:14,6.1639113,-2.3521447,-10.109675,4.9052033,-3.052778,2.9587524,12.071947840265448,6.491123871063947,fall
10/07/2020, 21:37:14,6.175875,-3.0556345,-10.353744,4.9052033,-3.052778,2.9587524,12.43697479606931,6.491123871063947,fall
10/07/2020, 21:37:14,6.175875,-3.0556345,-10.353744,4.9491634,-2.9099078,2.9929435,12.43697479606931,6.474526483002138,fall
10/07/2020, 21:37:14,6.0370917,-3.8333018,-10.293923,4.9491634,-2.9099078,2.9929435,12.53417478932603,6.474526483002138,fall
10/07/2020, 21:37:14,6.0370917,-3.8333018,-10.293923,4.946721,-2.701098,2.911129,12.53417478932603,6.343551976059411,fall
10/07/2020, 21:37:15,-0.78723866,-7.2957163,-4.8789654,-0.71801335,-1.4726601,-1.0941156,8.812010212384976,1.9701166996442212,fall
10/07/2020, 21:37:15,-0.91166544,-7.664211,-5.168497,-0.71801335,-1.4726601,-1.0941156,9.288951670038625,1.9701166996442212,fall
10/07/2020, 21:37:15,-0.91166544,-7.664211,-5.168497,-0.63986224,-1.4177101,-0.9732256,9.288951670038625,1.8348006900266496,fall
10/07/2020, 21:37:15,-0.93559366,-7.9657063,-5.17089,-0.63986224,-1.4177101,-0.9732256,9.542846274630584,1.8348006900266496,fall
10/07/2020, 21:37:15,-0.93559366,-7.9657063,-5.17089,-0.41762,-1.3615389,-0.8425667,9.542846274630584,1.6547245390398873,fall
10/07/2020, 21:37:15,-0.91166544,-8.025527,-5.2666025,-0.41762,-1.3615389,-0.8425667,9.642474763862847,1.6547245390398873,fall
10/07/2020, 21:37:15,-0.91166544,-8.025527,-5.2666025,-0.18927222,-1.3004833,-0.7131289,9.642474763862847,1.495203588504934,fall
10/07/2020, 21:37:15,-0.863809,-8.10449,-5.17089,-0.18927222,-1.3004833,-0.7131289,9.652307007037797,1.495203588504934,fall
10/07/2020, 21:37:15,-0.863809,-8.10449,-5.17089,0.008547778,-1.2247745,-0.5678167,9.652307007037797,1.3500227283723456,fall
10/07/2020, 21:37:15,-0.79441714,-8.0614195,-5.15414,0.008547778,-1.2247745,-0.5678167,9.601184397575304,1.3500227283723456,fall
10/07/2020, 21:37:15,-0.79441714,-8.0614195,-5.15414,0.15141778,-1.1234223,-0.4566956,9.601184397575304,1.2221193834756712,fall
10/07/2020, 21:37:15,-0.8207382,-8.001599,-5.0847483,0.15141778,-1.1234223,-0.4566956,9.515979596671418,1.2221193834756712,fall
10/07/2020, 21:37:15,-0.8207382,-8.001599,-5.0847483,0.19904111,-0.97811,-0.34435335,9.515979596671418,1.0558862605734662,fall
10/07/2020, 21:37:15,-0.9212367,-7.7790666,-4.914858,0.19904111,-0.97811,-0.34435335,9.247614906523129,1.0558862605734662,fall
10/07/2020, 21:37:15,-0.9212367,-7.7790666,-4.914858,-0.037854444,-0.6471889,-0.15996556,9.247614906523129,0.6677390313794096,fall
10/07/2020, 21:37:15,-0.98584294,-7.676175,-4.9698925,-0.037854444,-0.6471889,-0.15996556,9.197574801153333,0.6677390313794096,fall
10/07/2020, 21:37:15,-0.98584294,-7.676175,-4.9698925,-0.22712667,-0.49943447,-0.07204556,9.197574801153333,0.5533641466447888,fall
10/07/2020, 21:37:15,-1.0767702,-7.5756764,-4.9866424,-0.22712667,-0.49943447,-0.07204556,9.133285805744485,0.5533641466447888,fall
10/07/2020, 21:37:15,-1.0767702,-7.5756764,-4.9866424,-0.40174556,-0.36877558,-0.012211111,9.133285805744485,0.5454759666158928,fall
10/07/2020, 21:37:15,-1.2059826,-7.4823565,-5.072784,-0.40174556,-0.36877558,-0.012211111,9.119933686057305,0.5454759666158928,fall
10/07/2020, 21:37:16,0.4331009,0.61734825,0.10049855,-0.7070234,0.35534334,-1.6985656,0.7607859240492814,1.8738399234901248,fall
10/07/2020, 21:37:16,0.30388847,0.5192425,0.086141616,-0.7070234,0.35534334,-1.6985656,0.6077675378443866,1.8738399234901248,fall
10/07/2020, 21:37:16,0.30388847,0.5192425,0.086141616,-1.2711767,0.0024422223,-1.6875756,0.6077675378443866,2.112772465327136,fall
10/07/2020, 21:37:16,0.17706887,0.11724831,-0.28953153,-1.2711767,0.0024422223,-1.6875756,0.35906692838901577,2.112772465327136,fall
10/07/2020, 21:37:16,0.17706887,0.11724831,-0.28953153,-1.8609734,-0.19049335,-1.724209,0.35906692838901577,2.544092384534171,fall
10/07/2020, 21:37:16,0.41156548,0.45702913,0.033499517,-1.8609734,-0.19049335,-1.724209,0.6159415503495749,2.544092384534171,fall
10/07/2020, 21:37:16,0.41156548,0.45702913,0.033499517,-2.526479,-0.11234222,-1.7779379,0.6159415503495749,3.0914042245390134,fall
10/07/2020, 21:37:16,0.2440679,-0.15314065,-0.1052842,-2.526479,-0.11234222,-1.7779379,0.3067669545622221,3.0914042245390134,fall
10/07/2020, 21:37:16,0.2440679,-0.15314065,-0.1052842,-2.9966068,0.08792,-1.5386001,0.3067669545622221,3.3696695133808965,fall
10/07/2020, 21:37:16,0.33260235,0.069391854,-0.047856454,-2.9966068,0.08792,-1.5386001,0.34311775541259476,3.3696695133808965,fall
10/07/2020, 21:37:16,0.33260235,0.069391854,-0.047856454,-3.140698,0.30405667,-1.6472789,0.34311775541259476,3.5594889946572934,fall
10/07/2020, 21:37:16,0.37567315,0.2632105,-0.1698904,-3.140698,0.30405667,-1.6472789,0.48915522206559836,3.5594889946572934,fall
10/07/2020, 21:37:16,0.37567315,0.2632105,-0.1698904,-3.3202012,0.07693,-1.9843056,0.48915522206559836,3.868736583499147,fall
10/07/2020, 21:37:16,0.3397808,0.18185452,-0.8111669,-3.3202012,0.07693,-1.9843056,0.8980611190325798,3.868736583499147,fall
10/07/2020, 21:37:16,0.47856453,0.49052864,-1.1318051,-3.3202012,0.07693,-1.9843056,1.323111884432112,3.868736583499147,fall
10/07/2020, 21:37:16,0.47856453,0.49052864,-1.1318051,-3.338518,-0.15141778,-2.3225534,1.323111884432112,4.06975225519923,fall
10/07/2020, 21:37:16,0.46181476,0.40917268,-1.1126626,-3.338518,-0.15141778,-2.3225534,1.27228657051844,4.06975225519923,fall
10/07/2020, 21:37:16,0.46181476,0.40917268,-1.1126626,-1.9977379,-1.4824289,-2.0795524,1.27228657051844,3.2423896061317294,fall
10/07/2020, 21:37:16,4.6325045,-6.513263,-25.55774,-1.9977379,-1.4824289,-2.0795524,26.778363120572397,3.2423896061317294,fall
10/07/2020, 21:37:16,4.6325045,-6.513263,-25.55774,4.4680457,-16.919716,1.6240778,26.778363120572397,17.574920957894438,fall
10/07/2020, 21:37:17,-3.0604203,-4.386044,-8.106883,-0.018316668,-0.0048844446,-0.0061055557,9.712111367837794,0.019915720398975656,fall
10/07/2020, 21:37:17,-3.0604203,-4.386044,-8.106883,-0.019537779,-0.0012211112,-0.01099,9.712111367837794,0.022449855483217984,fall
10/07/2020, 21:37:17,-3.0556345,-4.4051867,-8.142776,-0.019537779,-0.0012211112,-0.01099,9.749223818380953,0.022449855483217984,fall
10/07/2020, 21:37:17,-3.0556345,-4.4051867,-8.142776,-0.023201112,0.0036633336,-0.012211111,9.749223818380953,0.026473058726823012,fall
10/07/2020, 21:37:17,-3.010171,-4.398008,-8.13799,-0.023201112,0.0036633336,-0.012211111,9.727820079283523,0.026473058726823012,fall
10/07/2020, 21:37:17,-3.010171,-4.398008,-8.13799,-0.025643334,0.0036633336,-0.012211111,9.727820079283523,0.028637594557684387,fall
10/07/2020, 21:37:17,-2.9623144,-4.395615,-8.1738825,-0.025643334,0.0036633336,-0.012211111,9.74212981821543,0.028637594557684387,fall
10/07/2020, 21:37:17,-2.9623144,-4.395615,-8.1738825,-0.026864445,0.0012211112,-0.008547778,9.74212981821543,0.028217973380962057,fall
10/07/2020, 21:37:17,-2.928815,-4.3788652,-8.13799,-0.026864445,0.0012211112,-0.008547778,9.694292066011744,0.028217973380962057,fall
10/07/2020, 21:37:17,-2.928815,-4.3788652,-8.13799,-0.03297,-0.0036633336,-0.0012211112,9.694292066011744,0.03319536156411908,fall
10/07/2020, 21:37:17,-2.9575288,-4.321438,-8.097312,-0.03297,-0.0036633336,-0.0012211112,9.643042203727815,0.03319536156411908,fall
10/07/2020, 21:37:17,-2.9503503,-4.3262234,-8.068598,-0.03297,-0.0036633336,-0.0012211112,9.618890052023435,0.03319536156411908,fall
10/07/2020, 21:37:17,-2.9503503,-4.3262234,-8.068598,-0.037854444,-0.0012211112,-0.0061055557,9.618890052023435,0.03836310559767599,fall
10/07/2020, 21:37:17,-2.952743,-4.35733,-8.082955,-0.037854444,-0.0012211112,-0.0061055557,9.64568205363937,0.03836310559767599,fall
10/07/2020, 21:37:17,-2.952743,-4.35733,-8.082955,-0.036633335,0.0012211112,-0.0024422223,9.64568205363937,0.0367349533755902,fall
10/07/2020, 21:37:17,-2.9718857,-4.3812585,-8.128419,-0.036633335,0.0012211112,-0.0024422223,9.700449712065916,0.0367349533755902,fall
10/07/2020, 21:37:17,-2.9718857,-4.3812585,-8.128419,-0.029306669,-0.0036633336,0.0012211112,9.700449712065916,0.029559972276404684,fall
10/07/2020, 21:37:17,-2.9742785,-4.3501515,-8.135597,-0.029306669,-0.0036633336,0.0012211112,9.693198284453501,0.029559972276404684,fall
10/07/2020, 21:37:17,-2.9742785,-4.3501515,-8.135597,-0.023201112,0.0024422223,-0.0036633336,9.693198284453501,0.023615165619319547,fall
10/07/2020, 21:37:17,-2.993421,-4.354937,-8.152347,-0.023201112,0.0024422223,-0.0036633336,9.715287023846344,0.023615165619319547,fall
10/07/2020, 21:37:18,-7.8173513,-8.82473,1.6630118,1.4433534,1.4983034,2.7230778,11.905983720586681,3.4268549373068327,fall
10/07/2020, 21:37:18,-8.042277,-8.322237,1.402194,1.4433534,1.4983034,2.7230778,11.657787172512778,3.4268549373068327,fall
10/07/2020, 21:37:18,-8.042277,-8.322237,1.402194,1.6546056,1.1820356,2.3982623,11.657787172512778,3.144294791825016,fall
10/07/2020, 21:37:18,-8.30788,-7.7240314,1.2729816,1.6546056,1.1820356,2.3982623,11.414991057724734,3.144294791825016,fall
10/07/2020, 21:37:18,-8.30788,-7.7240314,1.2729816,1.834109,0.7448778,1.8841745,11.414991057724734,2.7329310299024683,fall
10/07/2020, 21:37:18,-8.456235,-7.288538,1.0624132,1.834109,0.7448778,1.8841745,11.214250618662968,2.7329310299024683,fall
10/07/2020, 21:37:18,-8.456235,-7.288538,1.0624132,1.9147023,0.26498112,1.3310112,11.214250618662968,2.3468895646394135,fall
10/07/2020, 21:37:18,-8.5423765,-6.927222,0.930808,1.9147023,0.26498112,1.3310112,11.037436371167272,2.3468895646394135,fall
10/07/2020, 21:37:18,-8.5423765,-6.927222,0.930808,1.91226,-0.15996556,0.8303556,11.037436371167272,2.090889259924697,fall
10/07/2020, 21:37:18,-8.602198,-6.8171515,0.88295156,1.91226,-0.15996556,0.8303556,11.011401501192545,2.090889259924697,fall
10/07/2020, 21:37:18,-8.602198,-6.8171515,0.88295156,1.7889278,-0.46524334,0.4371578,11.011401501192545,1.8994264834321855,fall
10/07/2020, 21:37:18,-8.595019,-6.786045,0.7848458,1.7889278,-0.46524334,0.4371578,10.979105072444918,1.8994264834321855,fall
10/07/2020, 21:37:18,-8.595019,-6.786045,0.7848458,1.3981723,-0.6789378,0.008547778,10.979105072444918,1.5543214782461183,fall
10/07/2020, 21:37:18,-8.595019,-6.786045,0.7848458,1.2760612,-0.5690378,-0.085477784,10.979105072444918,1.3998009115275705,fall
10/07/2020, 21:37:18,-8.595019,-6.8578296,0.7920243,1.2760612,-0.5690378,-0.085477784,11.024132002120018,1.3998009115275705,fall
10/07/2020, 21:37:18,-8.62134,-6.8195443,0.94755775,1.2760612,-0.5690378,-0.085477784,11.03320217641163,1.3998009115275705,fall
10/07/2020, 21:37:18,-8.62134,-6.8195443,0.94755775,1.185699,-0.30772,-0.08669889,11.03320217641163,1.2280433155233144,fall
10/07/2020, 21:37:18,-8.659625,-6.7812595,1.1485549,1.185699,-0.30772,-0.08669889,11.058651155414083,1.2280433155233144,fall
10/07/2020, 21:37:18,-8.659625,-6.7812595,1.1485549,1.0953367,0.05372889,0.037854444,11.058651155414083,1.097306787341013,fall
10/07/2020, 21:37:18,-8.800801,-6.7645097,1.2059826,1.0953367,0.05372889,0.037854444,11.165441695316172,1.097306787341013,fall
10/07/2020, 21:37:19,-8.379665,0.42831525,1.7874385,0.23323223,0.16607112,-0.47379112,8.57888000741783,0.5535837033933331,fall
10/07/2020, 21:37:19,-8.724232,0.3684947,1.7204394,0.23323223,0.16607112,-0.47379112,8.899883105195599,0.5535837033933331,fall
10/07/2020, 21:37:19,-8.724232,0.3684947,1.7204394,0.41273558,0.21491556,-0.58124894,8.899883105195599,0.7445734931176989,fall
10/07/2020, 21:37:19,-9.0544405,0.3900301,1.6438692,0.41273558,0.21491556,-0.58124894,9.210717780210897,0.7445734931176989,fall
10/07/2020, 21:37:19,-9.0544405,0.3900301,1.6438692,0.5372889,0.24666445,-0.64841,9.210717780210897,0.8774726629441504,fall
10/07/2020, 21:37:19,-9.241081,0.30149564,1.5577276,0.5372889,0.24666445,-0.64841,9.376299763988523,0.8774726629441504,fall
10/07/2020, 21:37:19,-9.241081,0.30149564,1.5577276,0.59590226,0.30039334,-0.66062117,9.376299763988523,0.9390186335494397,fall
10/07/2020, 21:37:19,-9.293723,0.078963146,1.3950156,0.59590226,0.30039334,-0.66062117,9.398169655488122,0.9390186335494397,fall
10/07/2020, 21:37:19,-9.293723,0.078963146,1.3950156,0.5775856,0.3809867,-0.64963114,9.398169655488122,0.949092503228301,fall
10/07/2020, 21:37:19,-9.389436,-0.2105684,1.2658032,0.5775856,0.3809867,-0.64963114,9.476713611824643,0.949092503228301,fall
10/07/2020, 21:37:19,-9.389436,-0.2105684,1.2658032,0.46035892,0.46280113,-0.59468114,9.476713611824643,0.8830407015081059,fall
10/07/2020, 21:37:19,-9.444471,-0.4953143,1.1509477,0.46035892,0.46280113,-0.59468114,9.527227093794531,0.8830407015081059,fall
10/07/2020, 21:37:19,-9.444471,-0.4953143,1.1509477,0.25765446,0.55438447,-0.5287411,9.527227093794531,0.8082667466750532,fall
10/07/2020, 21:37:19,-9.58804,-0.60777694,1.0049855,0.25765446,0.55438447,-0.5287411,9.659705293424045,0.8082667466750532,fall
10/07/2020, 21:37:19,-9.58804,-0.60777694,1.0049855,0.013432222,0.6337567,-0.44082114,9.659705293424045,0.7721083176429897,fall
10/07/2020, 21:37:19,-9.875179,-0.76331043,0.91405827,0.013432222,0.6337567,-0.44082114,9.946723649452228,0.7721083176429897,fall
10/07/2020, 21:37:19,-9.875179,-0.76331043,0.91405827,-0.22224224,0.65085226,-0.32359445,9.946723649452228,0.7600747650247835,fall
10/07/2020, 21:37:19,-10.191031,-0.7106683,0.849452,-0.22224224,0.65085226,-0.32359445,10.251036061684255,0.7600747650247835,fall
10/07/2020, 21:37:19,-10.191031,-0.7106683,0.849452,-0.38831335,0.5739222,-0.18072446,10.251036061684255,0.7161251989230597,fall
10/07/2020, 21:37:19,-10.482956,-0.6556334,0.7752745,-0.38831335,0.5739222,-0.18072446,10.53201171671657,0.7161251989230597,fall
10/07/2020, 21:37:20,-11.672189,-0.93559366,-3.5892339,0.10013112,-0.16362889,-0.15386,12.24736403227126,0.24591371455705352,fall
10/07/2020, 21:37:20,-11.672189,-0.93559366,-3.5892339,0.29795113,-0.12455334,-0.36877558,12.24736403227126,0.49018755261670893,fall
10/07/2020, 21:37:20,-10.313066,-1.1222339,-2.6225336,0.29795113,-0.12455334,-0.36877558,10.700299609297026,0.49018755261670893,fall
10/07/2020, 21:37:20,-10.313066,-1.1222339,-2.6225336,0.34313223,-0.0048844446,-0.39686114,10.700299609297026,0.524654500307598,fall
10/07/2020, 21:37:20,-9.193225,-1.4715859,-1.8424734,0.34313223,-0.0048844446,-0.39686114,9.490819635092247,0.524654500307598,fall
10/07/2020, 21:37:20,-9.193225,-1.4715859,-1.8424734,0.2869611,0.18683001,-0.28574002,9.490819635092247,0.4459814903250913,fall
10/07/2020, 21:37:20,-8.595019,-1.591227,-1.457229,0.2869611,0.18683001,-0.28574002,8.861708492983992,0.4459814903250913,fall
10/07/2020, 21:37:20,-8.595019,-1.591227,-1.457229,0.16240779,0.29917222,-0.18683001,8.861708492983992,0.38831142367008065,fall
10/07/2020, 21:37:20,-8.642876,-1.7682959,-2.0865414,0.16240779,0.29917222,-0.18683001,9.065308890397155,0.38831142367008065,fall
10/07/2020, 21:37:20,-8.642876,-1.7682959,-2.0865414,-0.024422223,0.23079,-0.12699556,9.065308890397155,0.26455310265182524,fall
10/07/2020, 21:37:20,-8.867801,-1.9238294,-2.6512475,-0.024422223,0.23079,-0.12699556,9.453471451887497,0.26455310265182524,fall
10/07/2020, 21:37:20,-8.867801,-1.9238294,-2.6512475,-0.042738892,0.10379445,-0.08792,9.453471451887497,0.14258270307799367,fall
10/07/2020, 21:37:20,-9.064013,-2.103291,-3.0699914,-0.042738892,0.10379445,-0.08792,9.798214284493028,0.14258270307799367,fall
10/07/2020, 21:37:20,-9.064013,-2.103291,-3.0699914,0.0,-0.05006556,-0.02075889,9.798214284493028,0.054198631314336124,fall
10/07/2020, 21:37:20,-9.119047,-2.2061825,-3.3547373,0.0,-0.05006556,-0.02075889,9.96386092638336,0.054198631314336124,fall
10/07/2020, 21:37:20,-9.119047,-2.2061825,-3.3547373,0.07204556,-0.20514667,0.03297,9.96386092638336,0.21991530089659928,fall
10/07/2020, 21:37:20,-9.265009,-2.172683,-3.266203,0.07204556,-0.20514667,0.03297,10.061263508378172,0.21991530089659928,fall
10/07/2020, 21:37:20,-9.265009,-2.172683,-3.266203,0.08303556,-0.22468445,0.06349778,10.061263508378172,0.24781035693236658,fall
10/07/2020, 21:37:20,-9.245867,-1.8448663,-2.3569303,0.08303556,-0.22468445,0.06349778,9.718266524293117,0.24781035693236658,fall
10/07/2020, 21:37:20,-9.245867,-1.8448663,-2.3569303,0.06349778,-0.16607112,0.015874445,9.718266524293117,0.17850373156345023,fall
10/07/2020, 21:37:21,-9.518648,-0.9403793,-2.469393,0.38220778,-0.35290113,-0.24666445,9.878607072255036,0.5757302726096402,fall
10/07/2020, 21:37:21,-9.518648,-0.9403793,-2.469393,0.18927222,-0.10867889,-0.43349445,9.878607072255036,0.48533752560677873,fall
10/07/2020, 21:37:21,-9.30808,-0.89013004,-1.8400806,0.18927222,-0.10867889,-0.43349445,9.529878081212713,0.48533752560677873,fall
