DATE,TIME,ax,ay,az,gx,gy,gz,ma,mg,label
10/07/2020, 21:01:40,2.9359934,-2.7086751,9.128618,0.026864445,0.019537779,-0.05372889,9.964368994768071,0.06316816265725364,fall
10/07/2020, 21:01:40,2.9359934,-2.7086751,9.128618,0.024422223,0.02198,-0.039075557,9.964368994768071,0.05105354599804722,fall
10/07/2020, 21:01:40,2.9718857,-2.6871397,9.140582,0.024422223,0.02198,-0.039075557,9.980133535261746,0.05105354599804722,fall
10/07/2020, 21:01:40,2.9718857,-2.6871397,9.140582,0.019537779,0.03052778,-0.03297,9.980133535261746,0.048996847213380566,fall
10/07/2020, 21:01:40,2.9838498,-2.7038896,9.109476,0.019537779,0.03052778,-0.03297,9.959765712728087,0.048996847213380566,fall
10/07/2020, 21:01:40,2.9838498,-2.7038896,9.109476,0.028085556,0.03052778,-0.02075889,9.959765712728087,0.04638615406271567,fall
10/07/2020, 21:01:40,2.940779,-2.7182465,9.06162,0.028085556,0.03052778,-0.02075889,9.907068053731514,0.04638615406271567,fall
10/07/2020, 21:01:40,2.940779,-2.7182465,9.06162,0.05006556,0.017095556,-0.012211111,9.907068053731514,0.05429483797491887,fall
10/07/2020, 21:01:40,2.9168508,-2.6895328,9.040084,0.05006556,0.017095556,-0.012211111,9.872422282374822,0.05429483797491887,fall
10/07/2020, 21:01:40,2.9168508,-2.6895328,9.040084,0.059834447,0.01099,-0.012211111,9.872422282374822,0.0620487902145103,fall
10/07/2020, 21:01:40,2.8977082,-2.6608188,9.059227,0.059834447,0.01099,-0.012211111,9.876551174451992,0.0620487902145103,fall
10/07/2020, 21:01:40,2.8977082,-2.6608188,9.059227,0.05372889,0.013432222,-0.007326667,9.876551174451992,0.055865000106608095,fall
10/07/2020, 21:01:40,2.9192436,-2.6512475,9.111869,0.05372889,0.013432222,-0.007326667,9.928607679339994,0.055865000106608095,fall
10/07/2020, 21:01:40,2.9192436,-2.6512475,9.111869,0.04151778,0.014653334,-0.008547778,9.928607679339994,0.04484986860636593,fall
10/07/2020, 21:01:40,2.9766715,-2.617748,9.109476,0.04151778,0.014653334,-0.008547778,9.934572577444527,0.04484986860636593,fall
10/07/2020, 21:01:40,2.9766715,-2.617748,9.109476,0.04151778,0.01099,-0.007326667,9.934572577444527,0.043568178200927316,fall
10/07/2020, 21:01:40,2.993421,-2.6225336,9.056833,0.04151778,0.01099,-0.007326667,9.892647817997837,0.043568178200927316,fall
10/07/2020, 21:01:40,2.993421,-2.6225336,9.056833,0.04151778,0.007326667,-0.017095556,9.892647817997837,0.04549356103833323,fall
10/07/2020, 21:01:40,3.0005996,-2.6392834,9.016156,0.04151778,0.007326667,-0.017095556,9.862073190829607,0.04549356103833323,fall
10/07/2020, 21:01:40,3.0005996,-2.6392834,9.016156,0.048844445,0.0024422223,-0.01099,9.862073190829607,0.05012508766085363,fall
10/07/2020, 21:01:41,-7.6833534,-4.048656,2.7038896,-0.6325356,0.70336,1.1893623,9.095963618708177,1.519670762442809,fall
10/07/2020, 21:01:41,-7.692925,-4.0127635,2.1463618,-0.6325356,0.70336,1.1893623,8.938133736772578,1.519670762442809,fall
10/07/2020, 21:01:41,-7.692925,-4.0127635,2.1463618,-0.7863956,0.6191034,1.2443123,8.938133736772578,1.5968782376314148,fall
10/07/2020, 21:01:41,-7.8197446,-3.842873,1.4787644,-0.7863956,0.6191034,1.2443123,8.837580168520846,1.5968782376314148,fall
10/07/2020, 21:01:41,-7.8197446,-3.842873,1.4787644,-0.9365923,0.5140878,1.2785034,8.837580168520846,1.6661519596202738,fall
10/07/2020, 21:01:41,-8.078169,-3.656233,0.8566305,-0.9365923,0.5140878,1.2785034,8.908348240601581,1.6661519596202738,fall
10/07/2020, 21:01:41,-8.078169,-3.656233,0.8566305,-1.0892311,0.37854445,1.3261267,8.908348240601581,1.7573651791590614,fall
10/07/2020, 21:01:41,-8.403593,-3.6729827,0.30149564,-1.0892311,0.37854445,1.3261267,9.176169018566235,1.7573651791590614,fall
10/07/2020, 21:01:41,-8.403593,-3.6729827,0.30149564,-1.2760612,0.21247335,1.405499,9.176169018566235,1.910210574397992,fall
10/07/2020, 21:01:41,-8.642876,-3.7304106,-0.09571291,-1.2760612,0.21247335,1.405499,9.41405459386497,1.910210574397992,fall
10/07/2020, 21:01:41,-8.642876,-3.7304106,-0.09571291,-1.4384689,0.019537779,1.460449,9.41405459386497,2.049996541570783,fall
10/07/2020, 21:01:41,-8.73141,-3.7543387,-0.34217364,-1.4384689,0.019537779,1.460449,9.510502785517366,2.049996541570783,fall
10/07/2020, 21:01:41,-8.73141,-3.7543387,-0.34217364,-1.5129567,-0.21980001,1.4689968,9.510502785517366,2.120212637308903,fall
10/07/2020, 21:01:41,-8.635697,-3.5964124,-0.47377887,-1.5129567,-0.21980001,1.4689968,9.366638548293452,2.120212637308903,fall
10/07/2020, 21:01:41,-8.635697,-3.5964124,-0.47377887,-1.4897556,-0.47867557,1.416489,9.366638548293452,2.1106736472816694,fall
10/07/2020, 21:01:41,-8.520842,-3.2853456,-0.57188463,-1.4897556,-0.47867557,1.416489,9.150152402602624,2.1106736472816694,fall
10/07/2020, 21:01:41,-8.520842,-3.2853456,-0.57188463,-1.4152678,-0.73633003,1.3273479,9.150152402602624,2.0753354701571363,fall
10/07/2020, 21:01:41,-8.523234,-2.8689942,-0.74177504,-1.4152678,-0.73633003,1.3273479,9.023684514160918,2.0753354701571363,fall
10/07/2020, 21:01:41,-8.523234,-2.8689942,-0.74177504,-1.3236845,-1.0061955,1.2369856,9.023684514160918,2.072366592801086,fall
10/07/2020, 21:01:41,-8.645268,-2.495714,-1.0432707,-1.3236845,-1.0061955,1.2369856,9.058568777049103,2.072366592801086,fall
10/07/2020, 21:01:42,9.446864,-1.7300107,4.4889355,0.25887558,0.5458367,-0.064718895,10.601260335542543,0.6075712217629013,fall
10/07/2020, 21:01:42,9.446864,-1.7300107,4.4889355,0.2820767,0.60445005,-0.01099,10.601260335542543,0.6671191022448612,fall
10/07/2020, 21:01:42,9.255438,-1.5170496,4.505685,0.2820767,0.60445005,-0.01099,10.405083620231398,0.6671191022448612,fall
10/07/2020, 21:01:42,9.255438,-1.5170496,4.505685,0.26009667,0.65451556,-0.009768889,10.405083620231398,0.7043694574736354,fall
10/07/2020, 21:01:42,8.932407,-1.3615161,4.4745784,0.26009667,0.65451556,-0.009768889,10.082830922454537,0.7043694574736354,fall
10/07/2020, 21:01:42,8.932407,-1.3615161,4.4745784,0.29306668,0.6520734,-0.009768889,10.082830922454537,0.7149707739663644,fall
10/07/2020, 21:01:42,8.580662,-1.5481563,4.6971107,0.29306668,0.6520734,-0.009768889,9.90390795443789,0.7149707739663644,fall
10/07/2020, 21:01:42,8.580662,-1.5481563,4.6971107,0.34557447,0.6288723,-0.02075889,9.90390795443789,0.7178669677574112,fall
10/07/2020, 21:01:42,8.63809,-1.6366907,4.843073,0.34557447,0.6288723,-0.02075889,10.037465454579799,0.7178669677574112,fall
10/07/2020, 21:01:42,8.63809,-1.6366907,4.843073,0.3809867,0.59468114,-0.07204556,10.037465454579799,0.7099204768220371,fall
10/07/2020, 21:01:42,8.906086,-1.7515461,5.130212,0.3809867,0.59468114,-0.07204556,10.426186003907723,0.7099204768220371,fall
10/07/2020, 21:01:42,8.906086,-1.7515461,5.130212,0.4261678,0.57148004,-0.091583334,10.426186003907723,0.7187460749630609,fall
10/07/2020, 21:01:42,9.315259,-1.9381863,5.426922,0.4261678,0.57148004,-0.091583334,10.953633947386672,0.7187460749630609,fall
10/07/2020, 21:01:42,9.315259,-1.9381863,5.426922,0.46035892,0.5580478,-0.12211112,10.953633947386672,0.7336612118727974,fall
10/07/2020, 21:01:42,9.638289,-2.0291135,5.548956,0.46035892,0.5580478,-0.12211112,11.305080143357596,0.7336612118727974,fall
10/07/2020, 21:01:42,9.638289,-2.0291135,5.548956,0.51775116,0.5324045,-0.13432223,11.305080143357596,0.7546941460757678,fall
10/07/2020, 21:01:42,9.635897,-2.1104696,5.85763,0.51775116,0.5324045,-0.13432223,11.472419680256806,0.7546941460757678,fall
10/07/2020, 21:01:42,9.635897,-2.1104696,5.85763,0.59956557,0.48966557,-0.11356334,11.472419680256806,0.7823987903750795,fall
10/07/2020, 21:01:42,9.506684,-2.2157538,6.2524457,0.59956557,0.48966557,-0.11356334,11.592225348068947,0.7823987903750795,fall
10/07/2020, 21:01:42,9.506684,-2.2157538,6.2524457,0.7631945,0.41884112,-0.078151114,11.592225348068947,0.8740716963920689,fall
10/07/2020, 21:01:43,-5.276174,-3.4887354,2.1678972,-0.7106867,0.03174889,2.3689556,6.686483838938981,2.4734660391619814,fall
10/07/2020, 21:01:43,-5.276174,-3.4887354,2.1678972,-0.75831,-0.12211112,2.1406078,6.686483838938981,2.274235500172198,fall
10/07/2020, 21:01:43,-5.087141,-3.2303107,1.9549361,-0.75831,-0.12211112,2.1406078,6.335273186495673,2.274235500172198,fall
10/07/2020, 21:01:43,-5.087141,-3.2303107,1.9549361,-0.71557117,-0.31260446,1.8487623,6.335273186495673,2.006909460814836,fall
10/07/2020, 21:01:43,-4.85743,-3.0149565,1.7946169,-0.71557117,-0.31260446,1.8487623,5.992098006322333,2.006909460814836,fall
10/07/2020, 21:01:43,-4.85743,-3.0149565,1.7946169,-0.51164556,-0.5702589,1.4958612,5.992098006322333,1.6806478075432283,fall
10/07/2020, 21:01:43,-4.5966125,-2.8115666,1.550549,-0.51164556,-0.5702589,1.4958612,5.606955951297611,1.6806478075432283,fall
10/07/2020, 21:01:43,-4.5966125,-2.8115666,1.550549,-0.12699556,-0.8779789,1.0965579,5.606955951297611,1.4104658767410336,fall
10/07/2020, 21:01:43,-4.2664027,-2.5914268,1.174876,-0.12699556,-0.8779789,1.0965579,5.1281594020316055,1.4104658767410336,fall
10/07/2020, 21:01:43,-4.2664027,-2.5914268,1.174876,0.36999667,-1.2394278,0.6569578,5.1281594020316055,1.4507489014143808,fall
10/07/2020, 21:01:43,-3.8524444,-2.3114667,0.78723866,0.36999667,-1.2394278,0.6569578,4.561134827580495,1.4507489014143808,fall
10/07/2020, 21:01:43,-3.8524444,-2.3114667,0.78723866,0.8523356,-1.6069822,0.20514667,4.561134827580495,1.8305608362637626,fall
10/07/2020, 21:01:43,-3.2183464,-2.120041,0.5766702,0.8523356,-1.6069822,0.20514667,3.8967775430091343,1.8305608362637626,fall
10/07/2020, 21:01:43,-3.2183464,-2.120041,0.5766702,1.2101212,-1.9891901,-0.24544334,3.8967775430091343,2.341263100300041,fall
10/07/2020, 21:01:43,-2.3162522,-1.7419748,0.28235307,1.2101212,-1.9891901,-0.24544334,2.911910707586475,2.341263100300041,fall
10/07/2020, 21:01:43,-2.3162522,-1.7419748,0.28235307,1.5092934,-2.40681,-0.7668578,2.911910707586475,2.942579168464677,fall
10/07/2020, 21:01:43,-1.1437693,-0.9954142,-0.22731815,1.5092934,-2.40681,-0.7668578,1.5332094106278218,2.942579168464677,fall
10/07/2020, 21:01:43,-1.1437693,-0.9954142,-0.22731815,1.8768479,-2.865948,-1.4128256,1.5332094106278218,3.7057106947714558,fall
10/07/2020, 21:01:43,0.2943172,-0.25124636,-0.6029913,1.8768479,-2.865948,-1.4128256,0.7164815615826664,3.7057106947714558,fall
10/07/2020, 21:01:43,0.2943172,-0.25124636,-0.6029913,2.2444024,-3.350729,-2.0710046,0.7164815615826664,4.533628469668683,fall
10/07/2020, 21:01:44,10.126426,-0.040677983,6.987042,1.2076789,0.6667267,0.21613668,12.303044673702594,1.3963265833005996,fall
10/07/2020, 21:01:44,10.260424,-0.047856454,7.2095747,1.2076789,0.6667267,0.21613668,12.540197417697435,1.3963265833005996,fall
10/07/2020, 21:01:44,10.260424,-0.047856454,7.2095747,1.2064579,0.7436567,0.21613668,12.540197417697435,1.433625088967272,fall
10/07/2020, 21:01:44,10.466207,0.0,7.3459654,1.2064579,0.7436567,0.21613668,12.78689512758364,1.433625088967272,fall
10/07/2020, 21:01:44,10.466207,0.0,7.3459654,1.18692,0.82425004,0.19293556,12.78689512758364,1.457872236791189,fall
10/07/2020, 21:01:44,10.631311,0.18424734,7.3268228,1.18692,0.82425004,0.19293556,12.912825455506642,1.457872236791189,fall
10/07/2020, 21:01:44,10.631311,0.18424734,7.3268228,1.1954678,0.8645467,0.17828223,12.912825455506642,1.486058178637784,fall
10/07/2020, 21:01:44,10.667203,0.3493521,7.2933235,1.1954678,0.8645467,0.17828223,12.926864800545316,1.486058178637784,fall
10/07/2020, 21:01:44,10.667203,0.3493521,7.2933235,1.1026634,0.89019006,0.15996556,12.926864800545316,1.4261465215109685,fall
10/07/2020, 21:01:44,10.619347,0.5407779,7.173682,1.1026634,0.89019006,0.15996556,12.826717423344272,1.4261465215109685,fall
10/07/2020, 21:01:44,10.619347,0.5407779,7.173682,0.9280445,0.92316,0.117226675,12.826717423344272,1.314242405230415,fall
10/07/2020, 21:01:44,10.535598,0.79441714,7.051648,0.9280445,0.92316,0.117226675,12.70258482024124,1.314242405230415,fall
10/07/2020, 21:01:44,10.535598,0.79441714,7.051648,0.71801335,0.9268234,0.06960334,12.70258482024124,1.1744740794818875,fall
10/07/2020, 21:01:44,10.303494,0.9738788,6.920043,0.71801335,0.9268234,0.06960334,12.449796499411914,1.1744740794818875,fall
10/07/2020, 21:01:44,10.303494,0.9738788,6.920043,0.49455002,0.93415004,0.04151778,12.449796499411914,1.05779948255518,fall
10/07/2020, 21:01:44,10.124033,1.0695918,6.8865438,0.49455002,0.93415004,0.04151778,12.290832153648266,1.05779948255518,fall
10/07/2020, 21:01:44,10.124033,1.0695918,6.8865438,0.3162678,0.8999589,0.015874445,12.290832153648266,0.9540457793505294,fall
10/07/2020, 21:01:44,10.066605,1.105484,6.6568327,0.3162678,0.8999589,0.015874445,12.1190777241011,0.9540457793505294,fall
10/07/2020, 21:01:44,10.066605,1.105484,6.6568327,0.15996556,0.8315767,-0.02075889,12.1190777241011,0.8470771677342597,fall
10/07/2020, 21:01:44,10.025927,1.2083755,6.283552,0.15996556,0.8315767,-0.02075889,11.893796832621865,0.8470771677342597,fall
10/07/2020, 21:01:45,-3.0173492,-2.4933212,-2.4382863,0.35168,-2.5753233,-0.60933447,4.61153847063621,2.6696924255747554,fall
10/07/2020, 21:01:45,-2.210968,-1.8185452,-3.5198421,0.35168,-2.5753233,-0.60933447,4.537044748055716,2.6696924255747554,fall
10/07/2020, 21:01:45,-2.210968,-1.8185452,-3.5198421,1.02207,-3.4325435,-1.1979101,4.537044748055716,3.77650244468798,fall
10/07/2020, 21:01:45,-1.1174482,-0.35413775,-4.7688956,1.02207,-3.4325435,-1.1979101,4.910852221444147,3.77650244468798,fall
10/07/2020, 21:01:45,-1.1174482,-0.35413775,-4.7688956,1.6497211,-4.3447137,-1.8231189,4.910852221444147,4.992181837951586,fall
10/07/2020, 21:01:45,0.6269195,1.3806586,-4.2520456,1.6497211,-4.3447137,-1.8231189,4.514325903626437,4.992181837951586,fall
10/07/2020, 21:01:45,0.6269195,1.3806586,-4.2520456,2.1064167,-5.2239137,-2.3249958,4.514325903626437,6.093592587054515,fall
10/07/2020, 21:01:45,3.4432719,2.6321049,-3.249453,2.1064167,-5.2239137,-2.3249958,5.416921867022361,6.093592587054515,fall
10/07/2020, 21:01:45,3.4432719,2.6321049,-3.249453,2.4910667,-6.105556,-2.8854856,5.416921867022361,7.197864607809934,fall
10/07/2020, 21:01:45,7.678568,2.7445676,-1.174876,2.4910667,-6.105556,-2.8854856,8.238530805396953,7.197864607809934,fall
10/07/2020, 21:01:45,7.678568,2.7445676,-1.174876,2.9966068,-6.9346905,-3.515579,8.238530805396953,8.332399418300053,fall
10/07/2020, 21:01:45,12.203396,1.1581261,0.6867401,2.9966068,-6.9346905,-3.515579,12.277448357817137,8.332399418300053,fall
10/07/2020, 21:01:45,12.203396,1.1581261,0.6867401,3.5876245,-7.885936,-3.8929024,12.277448357817137,9.498090438928699,fall
10/07/2020, 21:01:45,15.9433775,-0.5383851,2.2205393,3.5876245,-7.885936,-3.8929024,16.106270188132513,9.498090438928699,fall
10/07/2020, 21:01:45,15.9433775,-0.5383851,2.2205393,4.3288393,-8.752925,-3.8941236,16.106270188132513,10.512694354854574,fall
10/07/2020, 21:01:45,19.35315,-1.8065811,5.515456,4.3288393,-8.752925,-3.8941236,20.204662450708533,10.512694354854574,fall
10/07/2020, 21:01:45,19.35315,-1.8065811,5.515456,5.3228235,-9.225494,-3.7732334,20.204662450708533,11.299534827163539,fall
10/07/2020, 21:01:45,22.877777,-2.9886355,10.179068,5.3228235,-9.225494,-3.7732334,25.217812055248924,11.299534827163539,fall
10/07/2020, 21:01:45,22.877777,-2.9886355,10.179068,8.579527,-9.403777,-4.034551,25.217812055248924,13.353535447569467,fall
10/07/2020, 21:01:45,32.023144,-11.117054,14.811572,8.579527,-9.403777,-4.034551,36.99261133597088,13.353535447569467,fall
10/07/2020, 21:01:46,8.846265,-1.9932213,5.328816,0.58124894,0.3931978,0.054950003,10.517871076339224,0.7038993859410745,fall
10/07/2020, 21:01:46,8.846265,-1.9932213,5.328816,0.65451556,0.36877558,0.078151114,10.517871076339224,0.7553102981390756,fall
10/07/2020, 21:01:46,8.7673025,-1.8664017,5.5968122,0.65451556,0.36877558,0.078151114,10.567561492659634,0.7553102981390756,fall
10/07/2020, 21:01:46,8.7673025,-1.8664017,5.5968122,0.6972545,0.33580557,0.098910004,10.567561492659634,0.7802002145771866,fall
10/07/2020, 21:01:46,8.752945,-1.8568304,5.800202,0.6972545,0.33580557,0.098910004,10.663217441789648,0.7802002145771866,fall
10/07/2020, 21:01:46,8.752945,-1.8568304,5.800202,0.74976224,0.30039334,0.078151114,10.663217441789648,0.8114722233724064,fall
10/07/2020, 21:01:46,8.953942,-2.0291135,5.8839507,0.74976224,0.30039334,0.078151114,10.904643982046423,0.8114722233724064,fall
10/07/2020, 21:01:46,8.953942,-2.0291135,5.8839507,0.89019006,0.26986557,0.09280445,10.904643982046423,0.9348146576746145,fall
10/07/2020, 21:01:46,9.236296,-2.1248264,6.128019,0.89019006,0.26986557,0.09280445,11.286126914150879,0.9348146576746145,fall
10/07/2020, 21:01:46,9.236296,-2.1248264,6.128019,1.0232911,0.25399113,0.11844778,11.286126914150879,1.060974112393548,fall
10/07/2020, 21:01:46,9.609575,-2.2037897,6.3050876,1.0232911,0.25399113,0.11844778,11.702766989504617,1.060974112393548,fall
10/07/2020, 21:01:46,9.609575,-2.2037897,6.3050876,1.1136534,0.26009667,0.11844778,11.702766989504617,1.1497408825726674,fall
10/07/2020, 21:01:46,9.911072,-2.0410776,6.259624,1.1136534,0.26009667,0.11844778,11.898665230913519,1.1497408825726674,fall
10/07/2020, 21:01:46,9.911072,-2.0410776,6.259624,1.2040156,0.2942878,0.13798556,11.898665230913519,1.2471162412186658,fall
10/07/2020, 21:01:46,9.95175,-1.6534405,6.32423,1.2040156,0.2942878,0.13798556,11.90659804764239,1.2471162412186658,fall
10/07/2020, 21:01:46,9.95175,-1.6534405,6.32423,1.240649,0.3309211,0.14409111,11.90659804764239,1.29208395097207,fall
10/07/2020, 21:01:46,9.999606,-1.4404793,6.623333,1.240649,0.3309211,0.14409111,12.080382571979005,1.29208395097207,fall
10/07/2020, 21:01:46,9.999606,-1.4404793,6.623333,1.2211112,0.38953447,0.12211112,12.080382571979005,1.2875405785663023,fall
10/07/2020, 21:01:46,10.078569,-1.4237294,6.9320073,1.2211112,0.38953447,0.12211112,12.314921528051709,1.2875405785663023,fall
10/07/2020, 21:01:46,10.078569,-1.4237294,6.9320073,1.2589656,0.47379112,0.10135223,12.314921528051709,1.348979137348356,fall
10/07/2020, 21:01:47,-3.7734814,-6.276374,4.220939,0.42006224,1.5251678,0.1306589,8.452713049698534,1.5873439839514663,fall
10/07/2020, 21:01:47,-3.7734814,-6.276374,4.220939,0.32725778,1.5288311,0.34801668,8.452713049698534,1.6017296500133633,fall
10/07/2020, 21:01:47,-3.9816568,-6.1040907,3.9481573,0.32725778,1.5288311,0.34801668,8.288634392900137,1.6017296500133633,fall
10/07/2020, 21:01:47,-3.9816568,-6.1040907,3.9481573,0.2075889,1.5288311,0.5592689,8.288634392900137,1.6410970263213647,fall
10/07/2020, 21:01:47,-4.024728,-5.9724855,3.8572302,0.2075889,1.5288311,0.5592689,8.169898548957466,1.6410970263213647,fall
10/07/2020, 21:01:47,-4.024728,-5.9724855,3.8572302,0.05006556,1.5141778,0.7570889,8.169898548957466,1.693642397237402,fall
10/07/2020, 21:01:47,-3.9864426,-5.9246287,3.682554,0.05006556,1.5141778,0.7570889,8.034559974599029,1.693642397237402,fall
10/07/2020, 21:01:47,-3.9864426,-5.9246287,3.682554,-0.14775445,1.4775445,0.9500245,8.034559974599029,1.762814733664125,fall
10/07/2020, 21:01:47,-3.8835511,-5.7451673,3.5844483,-0.14775445,1.4775445,0.9500245,7.806227384894727,1.762814733664125,fall
10/07/2020, 21:01:47,-3.8835511,-5.7451673,3.5844483,-0.3284789,1.4531223,1.1258645,7.806227384894727,1.8673600542004403,fall
10/07/2020, 21:01:47,-3.8644085,-5.4221363,3.5246277,-0.3284789,1.4531223,1.1258645,7.533672109398763,1.8673600542004403,fall
10/07/2020, 21:01:47,-3.8644085,-5.4221363,3.5246277,-0.4921078,1.4250367,1.3017045,7.533672109398763,1.9918168278001758,fall
10/07/2020, 21:01:47,-3.979264,-5.1326046,3.3260236,-0.4921078,1.4250367,1.3017045,7.29661599397606,1.9918168278001758,fall
10/07/2020, 21:01:47,-3.979264,-5.1326046,3.3260236,-0.6935911,1.4116045,1.4836501,7.29661599397606,2.1621548405536504,fall
10/07/2020, 21:01:47,-4.130012,-4.938786,3.2973096,-0.6935911,1.4116045,1.4836501,7.233315816644203,2.1621548405536504,fall
10/07/2020, 21:01:47,-4.130012,-4.938786,3.2973096,-0.89019006,1.4103833,1.6741434,7.233315816644203,2.363128385002491,fall
10/07/2020, 21:01:47,-4.287938,-4.9579287,3.306881,-0.89019006,1.4103833,1.6741434,7.341861582760687,2.363128385002491,fall
10/07/2020, 21:01:47,-4.287938,-4.9579287,3.306881,-1.0904523,1.3847401,1.8866167,7.341861582760687,2.5818431459553106,fall
10/07/2020, 21:01:47,-4.476971,-5.089534,3.211168,-1.0904523,1.3847401,1.8866167,7.5005483322274875,2.5818431459553106,fall
10/07/2020, 21:01:47,-4.476971,-5.089534,3.211168,-1.2321012,1.3310112,2.0734468,7.5005483322274875,2.7547859355435036,fall
10/07/2020, 21:01:48,9.0951185,-1.0576276,4.0438704,0.025643334,0.14164889,0.037854444,10.009627625576906,0.14884538002433415,fall
10/07/2020, 21:01:48,9.0951185,-1.0576276,4.0438704,0.024422223,0.16240779,0.045181114,10.009627625576906,0.1703351604566284,fall
10/07/2020, 21:01:48,9.126225,-1.0241281,4.0151563,0.024422223,0.16240779,0.045181114,10.022889281276038,0.1703351604566284,fall
10/07/2020, 21:01:48,9.126225,-1.0241281,4.0151563,0.013432222,0.20026223,0.047623336,10.022889281276038,0.2062846794440234,fall
10/07/2020, 21:01:48,9.073584,-0.930808,3.9170506,0.013432222,0.20026223,0.047623336,9.926711859901474,0.2062846794440234,fall
10/07/2020, 21:01:48,9.073584,-0.930808,3.9170506,0.012211111,0.22468445,0.054950003,9.926711859901474,0.2316283980232966,fall
10/07/2020, 21:01:48,8.95155,-0.863809,3.926622,0.012211111,0.22468445,0.054950003,9.812989585939098,0.2316283980232966,fall
10/07/2020, 21:01:48,8.95155,-0.863809,3.926622,0.015874445,0.23079,0.06105556,9.812989585939098,0.23925677710826143,fall
10/07/2020, 21:01:48,8.831908,-0.8877372,4.101298,0.015874445,0.23079,0.06105556,9.77810433434646,0.23925677710826143,fall
10/07/2020, 21:01:48,8.831908,-0.8877372,4.101298,0.03052778,0.2283478,0.06349778,9.77810433434646,0.23896993178690415,fall
10/07/2020, 21:01:48,8.874979,-1.0145568,4.2448673,0.03052778,0.2283478,0.06349778,9.89006959664883,0.23896993178690415,fall
10/07/2020, 21:01:48,8.874979,-1.0145568,4.2448673,0.06349778,0.21613668,0.054950003,9.89006959664883,0.23187612016646109,fall
10/07/2020, 21:01:48,8.987442,-1.1533405,4.2448673,0.06349778,0.21613668,0.054950003,10.006158444740082,0.23187612016646109,fall
10/07/2020, 21:01:48,8.987442,-1.1533405,4.2448673,0.09036223,0.22590557,0.048844445,10.006158444740082,0.24816211953612888,fall
10/07/2020, 21:01:48,9.059227,-1.119841,4.1754756,0.09036223,0.22590557,0.048844445,10.03784010311039,0.24816211953612888,fall
10/07/2020, 21:01:48,9.059227,-1.119841,4.1754756,0.08792,0.24300112,0.039075557,10.03784010311039,0.2613548727808232,fall
10/07/2020, 21:01:48,9.035298,-1.026521,4.1611185,0.08792,0.24300112,0.039075557,10.000263434382033,0.2613548727808232,fall
10/07/2020, 21:01:48,9.035298,-1.026521,4.1611185,0.07204556,0.26864445,0.034191113,10.000263434382033,0.2802310406782914,fall
10/07/2020, 21:01:48,9.025727,-1.0001999,4.194618,0.07204556,0.26864445,0.034191113,10.002948300944922,0.2802310406782914,fall
10/07/2020, 21:01:48,9.025727,-1.0001999,4.194618,0.058613338,0.29062447,0.029306669,10.002948300944922,0.29792110777906977,fall
10/07/2020, 21:01:49,5.221139,-6.0753765,10.174282,-0.32237336,0.29062447,-1.6118667,12.949382512122725,1.6692817212404498,fall
10/07/2020, 21:01:49,4.627719,-6.2285175,9.597611,-0.32237336,0.29062447,-1.6118667,12.341975458311369,1.6692817212404498,fall
10/07/2020, 21:01:49,4.627719,-6.2285175,9.597611,-0.34069002,0.2942878,-1.6631534,12.341975458311369,1.7230073308777427,fall
10/07/2020, 21:01:49,4.0558343,-6.1567326,9.099904,-0.34069002,0.2942878,-1.6631534,11.71167799799108,1.7230073308777427,fall
10/07/2020, 21:01:49,4.0558343,-6.1567326,9.099904,-0.30039334,0.29917222,-1.7290934,11.71167799799108,1.780310163242922,fall
10/07/2020, 21:01:49,3.656233,-6.1160545,8.965906,-0.30039334,0.29917222,-1.7290934,11.452582080968655,1.780310163242922,fall
10/07/2020, 21:01:49,3.656233,-6.1160545,8.965906,-0.23323223,0.30405667,-1.7877067,11.452582080968655,1.8283170120515524,fall
10/07/2020, 21:01:49,3.4983068,-6.352944,8.796016,-0.23323223,0.30405667,-1.7877067,11.400348204152104,1.8283170120515524,fall
10/07/2020, 21:01:49,3.4983068,-6.352944,8.796016,-0.18194556,0.27841336,-1.8206767,11.400348204152104,1.8508057091830037,fall
10/07/2020, 21:01:49,3.5150564,-6.5754766,8.733803,-0.18194556,0.27841336,-1.8206767,11.483545867584773,1.8508057091830037,fall
10/07/2020, 21:01:49,3.5150564,-6.5754766,8.733803,-0.102573335,0.28329778,-1.8255612,11.483545867584773,1.8502574117546666,fall
10/07/2020, 21:01:49,3.562913,-6.769295,8.836694,-0.102573335,0.28329778,-1.8255612,11.68780830673687,1.8502574117546666,fall
10/07/2020, 21:01:49,3.562913,-6.769295,8.836694,-0.06716111,0.3162678,-1.8328879,11.68780830673687,1.8611861644928336,fall
10/07/2020, 21:01:49,3.4408789,-6.690332,8.898908,-0.06716111,0.3162678,-1.8328879,11.652928660386104,1.8611861644928336,fall
10/07/2020, 21:01:49,3.4408789,-6.690332,8.898908,-0.03174889,0.40663,-1.8597523,11.652928660386104,1.9039523534786318,fall
10/07/2020, 21:01:49,3.2159536,-6.465407,9.188439,-0.03174889,0.40663,-1.8597523,11.686370772768356,1.9039523534786318,fall
10/07/2020, 21:01:49,3.2159536,-6.465407,9.188439,0.02198,0.5043189,-1.8829534,11.686370772768356,1.9494445857869942,fall
10/07/2020, 21:01:49,2.955136,-6.4677997,9.150154,0.02198,0.5043189,-1.8829534,11.588381333508403,1.9494445857869942,fall
10/07/2020, 21:01:49,2.955136,-6.4677997,9.150154,0.039075557,0.53851,-1.9037123,11.588381333508403,1.9787977063661093,fall
10/07/2020, 21:01:49,2.8115666,-6.45105,9.085547,0.039075557,0.53851,-1.9037123,11.492089570442344,1.9787977063661093,fall
10/07/2020, 21:01:50,7.042077,-1.1413764,4.749753,-0.14775445,-0.8914111,0.6288723,8.570515909789131,1.100874883841565,fall
10/07/2020, 21:01:50,5.6949177,-1.038485,5.3144593,-0.14775445,-0.8914111,0.6288723,7.858372380676811,1.100874883841565,fall
10/07/2020, 21:01:50,5.6949177,-1.038485,5.3144593,-0.16118668,-0.96223557,0.14897557,7.858372380676811,0.9869509396274606,fall
10/07/2020, 21:01:50,6.1854467,-3.5964124,5.919843,-0.16118668,-0.96223557,0.14897557,9.286467419619134,0.9869509396274606,fall
10/07/2020, 21:01:50,6.1854467,-3.5964124,5.919843,-0.12821667,-1.0074167,-0.16973445,9.286467419619134,1.0296299117806522,fall
10/07/2020, 21:01:50,6.8817577,-6.6927247,5.5968122,-0.12821667,-1.0074167,-0.16973445,11.111951262277866,1.0296299117806522,fall
10/07/2020, 21:01:50,6.8817577,-6.6927247,5.5968122,-0.09402556,-1.0306178,-0.41151446,11.111951262277866,1.1137136416098197,fall
10/07/2020, 21:01:50,7.240681,-7.5637126,4.5918264,-0.09402556,-1.0306178,-0.41151446,11.433375797179705,1.1137136416098197,fall
10/07/2020, 21:01:50,7.240681,-7.5637126,4.5918264,0.05372889,-1.0135223,-0.6935911,11.433375797179705,1.2293017606574965,fall
10/07/2020, 21:01:50,7.6594253,-5.946164,3.8069808,0.05372889,-1.0135223,-0.6935911,10.417138107311601,1.2293017606574965,fall
10/07/2020, 21:01:50,7.6594253,-5.946164,3.8069808,0.04029667,-0.86943114,-0.88408446,10.417138107311601,1.240620676652431,fall
10/07/2020, 21:01:50,7.8197446,-3.117848,3.5653057,0.04029667,-0.86943114,-0.88408446,9.142252778093885,1.240620676652431,fall
10/07/2020, 21:01:50,7.8197446,-3.117848,3.5653057,-0.3309211,-0.6691689,-1.009859,9.142252778093885,1.2558307676651912,fall
10/07/2020, 21:01:50,7.5326056,-1.0624132,3.9314077,-0.3309211,-0.6691689,-1.009859,8.562992240743103,1.2558307676651912,fall
10/07/2020, 21:01:50,7.5326056,-1.0624132,3.9314077,-0.81326,-0.54461557,-1.0953367,8.562992240743103,1.4689317229728418,fall
10/07/2020, 21:01:50,7.623533,-1.2466606,4.733003,-0.81326,-0.54461557,-1.0953367,9.059455462239555,1.4689317229728418,fall
10/07/2020, 21:01:50,7.623533,-1.2466606,4.733003,-1.0477134,-0.5250778,-1.1673822,9.059455462239555,1.6541436993602114,fall
10/07/2020, 21:01:50,8.441878,-2.6105695,5.343173,-1.0477134,-0.5250778,-1.1673822,10.326174535651656,1.6541436993602114,fall
10/07/2020, 21:01:50,8.441878,-2.6105695,5.343173,-0.82425004,-0.5885756,-1.1014422,10.326174535651656,1.4963236048541828,fall
10/07/2020, 21:01:50,8.9826565,-3.0915267,5.6877394,-0.82425004,-0.5885756,-1.1014422,11.072309344041532,1.4963236048541828,fall
10/07/2020, 21:01:51,10.358529,-0.7537391,5.3407803,-1.2089001,1.5862234,0.52752,11.678663508794935,2.062964214145387,fall
10/07/2020, 21:01:51,10.358529,-0.7537391,5.3407803,-1.3810767,1.56058,0.6777167,11.678663508794935,2.1913654887509915,fall
10/07/2020, 21:01:51,10.449456,-0.63888365,5.020142,-1.3810767,1.56058,0.6777167,11.610389054340747,2.1913654887509915,fall
10/07/2020, 21:01:51,10.449456,-0.63888365,5.020142,-1.5837811,1.614309,0.8266923,11.610389054340747,2.4078571747021327,fall
10/07/2020, 21:01:51,10.662417,-0.5024927,4.6875396,-1.5837811,1.614309,0.8266923,11.658159001041149,2.4078571747021327,fall
10/07/2020, 21:01:51,10.662417,-0.5024927,4.6875396,-1.7437468,1.6631534,0.9610145,11.658159001041149,2.5942784943538317,fall
10/07/2020, 21:01:51,10.79163,-0.5168497,4.115655,-1.7437468,1.6631534,0.9610145,11.561359037323244,2.5942784943538317,fall
10/07/2020, 21:01:51,10.79163,-0.5168497,4.115655,-1.8072445,1.6436156,1.0721356,11.561359037323244,2.6677855521077958,fall
10/07/2020, 21:01:51,10.9017,-0.59581286,3.7734814,-1.8072445,1.6436156,1.0721356,11.551675979076721,2.6677855521077958,fall
10/07/2020, 21:01:51,10.9017,-0.59581286,3.7734814,-1.7229879,1.5825601,1.1478444,11.551675979076721,2.6059030038023487,fall
10/07/2020, 21:01:51,11.033305,-0.8662018,3.3260236,-1.7229879,1.5825601,1.1478444,11.556234740119681,2.6059030038023487,fall
10/07/2020, 21:01:51,11.033305,-0.8662018,3.3260236,-1.5361578,1.4738811,1.2211112,11.556234740119681,2.45422472711433,fall
10/07/2020, 21:01:51,11.270195,-1.1988041,2.5292134,-1.5361578,1.4738811,1.2211112,11.612551288855782,2.45422472711433,fall
10/07/2020, 21:01:51,11.270195,-1.1988041,2.5292134,-1.3358957,1.3004833,1.28583,11.612551288855782,2.264781001262004,fall
10/07/2020, 21:01:51,11.442478,-1.4859428,1.7635103,-1.3358957,1.3004833,1.28583,11.672544785331764,2.264781001262004,fall
10/07/2020, 21:01:51,11.442478,-1.4859428,1.7635103,-1.1930256,1.2003523,1.3896245,11.672544785331764,2.1897972308708966,fall
10/07/2020, 21:01:51,11.636296,-1.5936198,1.8376877,-1.1930256,1.2003523,1.3896245,11.88781356153567,2.1897972308708966,fall
10/07/2020, 21:01:51,11.636296,-1.5936198,1.8376877,-1.1246433,1.1588345,1.4311423,11.88781356153567,2.1577507453675895,fall
10/07/2020, 21:01:51,11.638689,-1.3734802,2.024328,-1.1246433,1.1588345,1.4311423,11.892999381276086,2.1577507453675895,fall
10/07/2020, 21:01:51,11.638689,-1.3734802,2.024328,-1.1038845,1.1087689,1.4299212,11.892999381276086,2.1195763623581807,fall
10/07/2020, 21:01:52,51.256653,27.687351,15.895521,5.1799536,-3.537559,-2.46176,60.38626889097559,6.738434941680628,fall
10/07/2020, 21:01:52,51.256653,27.687351,15.895521,-3.2054167,-0.9878789,-1.976979,60.38626889097559,3.893462068782521,fall
10/07/2020, 21:01:52,39.16572,25.969305,10.461421,-3.2054167,-0.9878789,-1.976979,48.14353440715602,3.893462068782521,fall
10/07/2020, 21:01:52,39.16572,25.969305,10.461421,-7.721086,-0.79250115,-2.1491556,48.14353440715602,8.053700848020426,fall
10/07/2020, 21:01:52,27.515068,14.376079,-0.91405827,-7.721086,-0.79250115,-2.1491556,31.057786602082945,8.053700848020426,fall
10/07/2020, 21:01:52,27.515068,14.376079,-0.91405827,-9.542984,0.14897557,-2.7853546,31.057786602082945,9.942280313813571,fall
10/07/2020, 21:01:52,19.097118,-0.39481574,-5.0679984,-9.542984,0.14897557,-2.7853546,19.76209547792459,9.942280313813571,fall
10/07/2020, 21:01:52,19.097118,-0.39481574,-5.0679984,-7.600196,0.16851334,-2.60463,19.76209547792459,8.035886487207367,fall
10/07/2020, 21:01:52,11.040483,-10.10489,0.10049855,-7.600196,0.16851334,-2.60463,14.967002859385719,8.035886487207367,fall
10/07/2020, 21:01:52,11.040483,-10.10489,0.10049855,-1.2687345,-2.0282657,-0.99886894,14.967002859385719,2.5925447133268262,fall
10/07/2020, 21:01:52,7.972885,-8.961121,8.666803,-1.2687345,-2.0282657,-0.99886894,14.79804244864369,2.5925447133268262,fall
10/07/2020, 21:01:52,7.972885,-8.961121,8.666803,2.0795524,-2.469087,0.26864445,14.79804244864369,3.239305191541303,fall
10/07/2020, 21:01:52,11.466406,1.942972,13.560126,2.0795524,-2.469087,0.26864445,17.864227632831003,3.239305191541303,fall
10/07/2020, 21:01:52,11.466406,1.942972,13.560126,1.5569167,-1.6375101,0.081814446,17.864227632831003,2.261000322354318,fall
10/07/2020, 21:01:52,10.260424,9.9015,11.131411,1.5569167,-1.6375101,0.081814446,18.089341968979138,2.261000322354318,fall
10/07/2020, 21:01:52,10.260424,9.9015,11.131411,-0.48844448,-0.9085067,0.5372889,18.089341968979138,1.1630312903829931,fall
10/07/2020, 21:01:52,7.618747,11.274981,6.908079,-0.48844448,-0.9085067,0.5372889,15.260801198424979,1.1630312903829931,fall
10/07/2020, 21:01:52,7.618747,11.274981,6.908079,-1.7181034,-0.5971234,0.9280445,15.260801198424979,2.0419848799319253,fall
10/07/2020, 21:01:52,8.484949,7.7216387,5.493921,-1.7181034,-0.5971234,0.9280445,12.720111285653518,2.0419848799319253,fall
10/07/2020, 21:01:52,8.484949,7.7216387,5.493921,-1.8060234,-0.40907225,0.75953114,12.720111285653518,2.0014864559332697,fall
10/07/2020, 21:01:53,9.241081,-1.1413764,3.6251264,0.051286668,0.38465002,0.012211111,9.992090052380668,0.38824614972614324,fall
10/07/2020, 21:01:53,9.241081,-1.1413764,3.6251264,0.04151778,0.4151778,0.018316668,9.992090052380668,0.4176503627791698,fall
10/07/2020, 21:01:53,9.217153,-1.1150553,3.6011982,0.04151778,0.4151778,0.018316668,9.958307024364123,0.4176503627791698,fall
10/07/2020, 21:01:53,9.217153,-1.1150553,3.6011982,0.039075557,0.44570556,0.02075889,9.958307024364123,0.4478965052349125,fall
10/07/2020, 21:01:53,9.099904,-1.0313065,3.5653057,0.039075557,0.44570556,0.02075889,9.827677844745889,0.4478965052349125,fall
10/07/2020, 21:01:53,9.099904,-1.0313065,3.5653057,0.03297,0.4713489,0.018316668,9.827677844745889,0.4728554933675127,fall
10/07/2020, 21:01:53,8.944371,-1.0001999,3.7208393,0.03297,0.4713489,0.018316668,9.738933271385688,0.4728554933675127,fall
10/07/2020, 21:01:53,8.944371,-1.0001999,3.7208393,0.048844445,0.47501224,0.02198,9.738933271385688,0.4780225215291812,fall
10/07/2020, 21:01:53,8.908479,-1.1246266,3.8787656,0.048844445,0.47501224,0.02198,9.781134950766042,0.4780225215291812,fall
10/07/2020, 21:01:53,8.908479,-1.1246266,3.8787656,0.081814446,0.46768558,0.007326667,9.781134950766042,0.4748442750322155,fall
10/07/2020, 21:01:53,9.001799,-1.2466606,4.005585,0.081814446,0.46768558,0.007326667,9.931326897313879,0.4748442750322155,fall
10/07/2020, 21:01:53,9.001799,-1.2466606,4.005585,0.11356334,0.4713489,-0.0061055557,9.931326897313879,0.48487493808867904,fall
10/07/2020, 21:01:53,9.159725,-1.3495519,4.074977,0.11356334,0.4713489,-0.0061055557,10.115695370239582,0.48487493808867904,fall
10/07/2020, 21:01:53,9.159725,-1.3495519,4.074977,0.12821667,0.4823389,-0.009768889,10.115695370239582,0.49918510093672724,fall
10/07/2020, 21:01:53,9.305687,-1.3040884,4.0151563,0.12821667,0.4823389,-0.009768889,10.218509476657065,0.49918510093672724,fall
10/07/2020, 21:01:53,9.305687,-1.3040884,4.0151563,0.12943779,0.5128667,-0.0061055557,10.218509476657065,0.5289835973976849,fall
10/07/2020, 21:01:53,9.30808,-1.160519,3.979264,0.12943779,0.5128667,-0.0061055557,10.189293134064895,0.5289835973976849,fall
10/07/2020, 21:01:53,9.30808,-1.160519,3.979264,0.109900005,0.5458367,0.007326667,10.189293134064895,0.5568387380184578,fall
10/07/2020, 21:01:53,9.221938,-1.0815558,3.9314077,0.109900005,0.5458367,0.007326667,10.083147941043176,0.5568387380184578,fall
10/07/2020, 21:01:53,9.221938,-1.0815558,3.9314077,0.09402556,0.5800278,0.013432222,10.083147941043176,0.5877529250653306,fall
10/07/2020, 21:01:54,2.5579274,-6.9966135,9.365508,-1.0269545,-0.7986067,-3.1138334,11.96696847667275,3.374665446408875,fall
10/07/2020, 21:01:54,2.4885356,-6.9391856,9.628718,-1.0269545,-0.7986067,-3.1138334,12.126719435686521,3.374665446408875,fall
10/07/2020, 21:01:54,2.4885356,-6.9391856,9.628718,-1.0013112,-0.5922389,-3.0820847,12.126719435686521,3.2943310138349617,fall
10/07/2020, 21:01:54,2.3521447,-6.9655066,9.992428,-1.0013112,-0.5922389,-3.0820847,12.405622925936868,3.2943310138349617,fall
10/07/2020, 21:01:54,2.3521447,-6.9655066,9.992428,-0.92560226,-0.4041878,-3.01126,12.405622925936868,3.176128822850871,fall
10/07/2020, 21:01:54,2.184647,-7.164111,10.269995,-0.92560226,-0.4041878,-3.01126,12.711017391973106,3.176128822850871,fall
10/07/2020, 21:01:54,2.184647,-7.164111,10.269995,-0.8083756,-0.22468445,-2.9135711,12.711017391973106,3.031971450037076,fall
10/07/2020, 21:01:54,2.0578275,-7.4033933,10.5284195,-0.8083756,-0.22468445,-2.9135711,13.034281831062236,3.031971450037076,fall
10/07/2020, 21:01:54,2.0578275,-7.4033933,10.5284195,-0.6569578,-0.048844445,-2.8073347,13.034281831062236,2.883592765835768,fall
10/07/2020, 21:01:54,1.8735801,-7.54457,10.643275,-0.6569578,-0.048844445,-2.8073347,13.179914517318668,2.883592765835768,fall
10/07/2020, 21:01:54,1.8735801,-7.54457,10.643275,-0.48844448,0.12699556,-2.6876657,13.179914517318668,2.7346394278653925,fall
10/07/2020, 21:01:54,1.5816557,-7.4536424,10.863415,-0.48844448,0.12699556,-2.6876657,13.269220014019345,2.7346394278653925,fall
10/07/2020, 21:01:54,1.5816557,-7.4536424,10.863415,-0.30283555,0.33458444,-2.5472379,13.269220014019345,2.5869048891315245,fall
10/07/2020, 21:01:54,1.227518,-7.1306114,11.119447,-0.30283555,0.33458444,-2.5472379,13.266292462167508,2.5869048891315245,fall
10/07/2020, 21:01:54,1.227518,-7.1306114,11.119447,-0.12089001,0.54461557,-2.3958201,13.266292462167508,2.4599135465349455,fall
10/07/2020, 21:01:54,0.8997013,-6.745367,11.361122,-0.12089001,0.54461557,-2.3958201,13.24328264250453,2.4599135465349455,fall
10/07/2020, 21:01:54,0.8997013,-6.745367,11.361122,0.04029667,0.74609894,-2.2224224,13.24328264250453,2.3446638555795976,fall
10/07/2020, 21:01:54,0.5838487,-6.4031935,11.480763,0.04029667,0.74609894,-2.2224224,13.158635759215747,2.3446638555795976,fall
10/07/2020, 21:01:54,0.5838487,-6.4031935,11.480763,0.16607112,0.93415004,-2.0502455,13.158635759215747,2.2591420096634525,fall
10/07/2020, 21:01:54,0.3684947,-5.9557357,11.4496565,0.16607112,0.93415004,-2.0502455,12.911282257246437,2.2591420096634525,fall
10/07/2020, 21:01:55,9.62154,-0.40677986,3.2877383,0.019537779,-0.24300112,0.04029667,10.17588946693516,0.24709328178799614,fall
10/07/2020, 21:01:55,9.62154,-0.40677986,3.2877383,-0.0036633336,-0.18316667,0.048844445,10.17588946693516,0.18960281661638909,fall
10/07/2020, 21:01:55,9.578469,-0.3182454,3.1082766,-0.0036633336,-0.18316667,0.048844445,10.075204081208906,0.18960281661638909,fall
10/07/2020, 21:01:55,9.578469,-0.3182454,3.1082766,-0.013432222,-0.14164889,0.08059334,10.075204081208906,0.16352406154933843,fall
10/07/2020, 21:01:55,9.430114,-0.2009971,3.1561332,-0.013432222,-0.14164889,0.08059334,9.946286874486326,0.16352406154933843,fall
10/07/2020, 21:01:55,9.430114,-0.2009971,3.1561332,-0.023201112,-0.11844778,0.106236674,9.946286874486326,0.16079303217202473,fall
10/07/2020, 21:01:55,9.30808,-0.0741775,3.1848469,-0.023201112,-0.11844778,0.106236674,9.838145150588623,0.16079303217202473,fall
10/07/2020, 21:01:55,9.30808,-0.0741775,3.1848469,-0.023201112,-0.12211112,0.14164889,9.838145150588623,0.18845112015192914,fall
10/07/2020, 21:01:55,9.142975,-0.08135597,3.3164523,-0.023201112,-0.12211112,0.14164889,9.726225557220417,0.18845112015192914,fall
10/07/2020, 21:01:55,9.142975,-0.08135597,3.3164523,-0.0012211112,-0.14287001,0.15630223,9.726225557220417,0.21176335193911086,fall
10/07/2020, 21:01:55,9.164511,-0.15553348,3.4863427,-0.0012211112,-0.14287001,0.15630223,9.806479119903418,0.21176335193911086,fall
10/07/2020, 21:01:55,9.164511,-0.15553348,3.4863427,0.008547778,-0.16851334,0.13920668,9.806479119903418,0.21874256628061434,fall
10/07/2020, 21:01:55,9.233903,-0.3469593,3.4528432,0.008547778,-0.16851334,0.13920668,9.864454885267124,0.21874256628061434,fall
10/07/2020, 21:01:55,9.233903,-0.3469593,3.4528432,0.037854444,-0.1856089,0.13554333,9.864454885267124,0.23292834747873836,fall
10/07/2020, 21:01:55,9.329616,-0.45702913,3.4313076,0.037854444,-0.1856089,0.13554333,9.951104173583628,0.23292834747873836,fall
10/07/2020, 21:01:55,9.329616,-0.45702913,3.4313076,0.028085556,-0.17217667,0.10013112,9.951104173583628,0.2011463300059267,fall
10/07/2020, 21:01:55,9.466006,-0.57188463,3.3044882,0.028085556,-0.17217667,0.10013112,10.042508105636797,0.2011463300059267,fall
10/07/2020, 21:01:55,9.466006,-0.57188463,3.3044882,0.019537779,-0.13920668,0.081814446,10.042508105636797,0.1626463261263092,fall
10/07/2020, 21:01:55,9.552148,-0.64606214,3.103491,0.019537779,-0.13920668,0.081814446,10.064421589544958,0.1626463261263092,fall
10/07/2020, 21:01:55,9.552148,-0.64606214,3.103491,0.036633335,-0.11478445,0.05006556,10.064421589544958,0.13047617094890404,fall
10/07/2020, 21:01:56,9.085547,1.3256238,-1.3734802,-0.8071545,0.17339778,0.18805112,9.28390535312003,0.846716223189728,fall
10/07/2020, 21:01:56,8.9108715,1.6079768,-1.7682959,-0.8071545,0.17339778,0.18805112,9.225838211047497,0.846716223189728,fall
10/07/2020, 21:01:56,8.9108715,1.6079768,-1.7682959,-0.81448114,0.015874445,0.09646778,9.225838211047497,0.8203277127537894,fall
10/07/2020, 21:01:56,8.85823,1.7491534,-1.7754744,-0.81448114,0.015874445,0.09646778,9.202177964176231,0.8203277127537894,fall
10/07/2020, 21:01:56,8.85823,1.7491534,-1.7754744,-0.8779789,-0.14653334,0.0048844446,9.202177964176231,0.8901364295450462,fall
10/07/2020, 21:01:56,8.879765,1.7611175,-1.5744773,-0.8779789,-0.14653334,0.0048844446,9.188619706086346,0.8901364295450462,fall
10/07/2020, 21:01:56,8.879765,1.7611175,-1.5744773,-0.9463611,-0.25887558,-0.015874445,9.188619706086346,0.9812583458139122,fall
10/07/2020, 21:01:56,9.016156,1.6295122,-1.1365907,-0.9463611,-0.25887558,-0.015874445,9.232454765902492,0.9812583458139122,fall
10/07/2020, 21:01:56,9.016156,1.6295122,-1.1365907,-1.0440501,-0.3382478,-0.017095556,9.232454765902492,1.0976085104537934,fall
10/07/2020, 21:01:56,9.150154,1.442872,-0.61734825,-1.0440501,-0.3382478,-0.017095556,9.283766418719917,1.0976085104537934,fall
10/07/2020, 21:01:56,9.150154,1.442872,-0.61734825,-1.1783723,-0.41273558,-0.034191113,9.283766418719917,1.2490319790567166,fall
10/07/2020, 21:01:56,9.233903,1.2179468,0.014356935,-1.1783723,-0.41273558,-0.034191113,9.31389090519513,1.2490319790567166,fall
10/07/2020, 21:01:56,9.233903,1.2179468,0.014356935,-1.3261267,-0.46524334,-0.06227667,9.31389090519513,1.4067486480564233,fall
10/07/2020, 21:01:56,9.332008,0.9834501,0.66999036,-1.3261267,-0.46524334,-0.06227667,9.407573612608525,1.4067486480564233,fall
10/07/2020, 21:01:56,9.332008,0.9834501,0.66999036,-1.4726601,-0.5189722,-0.06960334,9.407573612608525,1.562979351759127,fall
10/07/2020, 21:01:56,9.32483,0.7800602,1.18684,-1.4726601,-0.5189722,-0.06960334,9.43236655102526,1.562979351759127,fall
10/07/2020, 21:01:56,9.32483,0.7800602,1.18684,-1.6130879,-0.5690378,-0.068382226,9.43236655102526,1.7118798702222693,fall
10/07/2020, 21:01:56,9.312865,0.63170516,1.5888343,-1.6130879,-0.5690378,-0.068382226,9.468521801360723,1.7118798702222693,fall
10/07/2020, 21:01:56,9.312865,0.63170516,1.5888343,-1.7034501,-0.5922389,-0.07448778,9.468521801360723,1.805003472536215,fall
10/07/2020, 21:01:56,9.221938,0.57906306,1.8831514,-1.7034501,-0.5922389,-0.07448778,9.430043276617624,1.805003472536215,fall
10/07/2020, 21:01:57,8.288737,-3.790231,6.2285175,-0.024422223,0.82791334,0.6764956,11.0391778490905,1.0694312799744632,fall
10/07/2020, 21:01:57,8.288737,-3.790231,6.2285175,0.013432222,0.8364611,0.65451556,11.0391778490905,1.0621856077683964,fall
10/07/2020, 21:01:57,8.396415,-3.7064822,6.448657,0.013432222,0.8364611,0.65451556,11.217083775427634,1.0621856077683964,fall
10/07/2020, 21:01:57,8.396415,-3.7064822,6.448657,0.06349778,0.89019006,0.66306335,11.217083775427634,1.111810830371838,fall
10/07/2020, 21:01:57,8.472985,-3.6323047,6.7525454,0.06349778,0.89019006,0.66306335,11.427247496439197,1.111810830371838,fall
10/07/2020, 21:01:57,8.472985,-3.6323047,6.7525454,0.11112112,0.94758224,0.6984756,11.427247496439197,1.1824247022459926,fall
10/07/2020, 21:01:57,8.477771,-3.749553,7.0492554,0.11112112,0.94758224,0.6984756,11.645760883414233,1.1824247022459926,fall
10/07/2020, 21:01:57,8.477771,-3.749553,7.0492554,0.12089001,1.0037534,0.74121445,11.645760883414233,1.2536084700976096,fall
10/07/2020, 21:01:57,8.432307,-3.900301,7.300502,0.12089001,1.0037534,0.74121445,11.815814828086173,1.2536084700976096,fall
10/07/2020, 21:01:57,8.432307,-3.900301,7.300502,0.10501556,1.0672512,0.7766267,11.815814828086173,1.3240855124331314,fall
10/07/2020, 21:01:57,8.262417,-4.0127635,7.393822,0.10501556,1.0672512,0.7766267,11.791454938378068,1.3240855124331314,fall
10/07/2020, 21:01:57,8.262417,-4.0127635,7.393822,0.08669889,1.1368545,0.80593336,11.791454938378068,1.3962390530376303,fall
10/07/2020, 21:01:57,7.944171,-4.2041893,7.5182486,0.08669889,1.1368545,0.80593336,11.717897472132028,1.3962390530376303,fall
10/07/2020, 21:01:57,7.944171,-4.2041893,7.5182486,0.057392225,1.2040156,0.8413456,11.717897472132028,1.4699693518362087,fall
10/07/2020, 21:01:57,7.530213,-4.462614,7.6570325,0.057392225,1.2040156,0.8413456,11.629667957377878,1.4699693518362087,fall
10/07/2020, 21:01:57,7.530213,-4.462614,7.6570325,0.034191113,1.2589656,0.88286334,11.629667957377878,1.5380543309753607,fall
10/07/2020, 21:01:57,7.0803623,-4.706682,7.84128,0.034191113,1.2589656,0.88286334,11.565900731997605,1.5380543309753607,fall
10/07/2020, 21:01:57,7.0803623,-4.706682,7.84128,0.01099,1.3004833,0.9292656,11.565900731997605,1.5984093038681526,fall
10/07/2020, 21:01:57,6.530013,-4.881358,7.8891363,0.01099,1.3004833,0.9292656,11.344919568938511,1.5984093038681526,fall
10/07/2020, 21:01:57,6.530013,-4.881358,7.8891363,-0.04029667,1.3236845,0.9597934,11.344919568938511,1.6355328503430995,fall
10/07/2020, 21:01:58,8.700303,-1.134198,3.17049,-0.05372889,0.007326667,-0.036633335,9.329184618302722,0.06544062098562661,fall
10/07/2020, 21:01:58,8.6548395,-1.4668003,3.574877,-0.05372889,0.007326667,-0.036633335,9.47826439760969,0.06544062098562661,fall
10/07/2020, 21:01:58,8.6548395,-1.4668003,3.574877,-0.017095556,0.0,-0.045181114,9.47826439760969,0.04830725757282742,fall
10/07/2020, 21:01:58,9.300901,-1.6271194,3.507878,-0.017095556,0.0,-0.045181114,10.072710321788463,0.04830725757282742,fall
10/07/2020, 21:01:58,9.300901,-1.6271194,3.507878,-0.012211111,0.0,-0.05250778,10.072710321788463,0.053908981192573716,fall
10/07/2020, 21:01:58,9.68136,-1.5840486,3.4911282,-0.012211111,0.0,-0.05250778,10.412776882252203,0.053908981192573716,fall
10/07/2020, 21:01:58,9.68136,-1.5840486,3.4911282,-0.018316668,0.034191113,-0.03052778,10.412776882252203,0.04936069141131158,fall
10/07/2020, 21:01:58,9.647861,-1.4093726,3.3284163,-0.018316668,0.034191113,-0.03052778,10.302713194460836,0.04936069141131158,fall
10/07/2020, 21:01:58,9.647861,-1.4093726,3.3284163,-0.02075889,0.07326667,-0.0048844446,10.302713194460836,0.07630723587072176,fall
10/07/2020, 21:01:58,9.32483,-1.2897314,3.249453,-0.02075889,0.07326667,-0.0048844446,9.958654921217006,0.07630723587072176,fall
10/07/2020, 21:01:58,9.32483,-1.2897314,3.249453,-0.026864445,0.109900005,0.02198,9.958654921217006,0.11525116034105701,fall
10/07/2020, 21:01:58,9.0951185,-1.1988041,3.0604203,-0.026864445,0.109900005,0.02198,9.67080578676089,0.11525116034105701,fall
10/07/2020, 21:01:58,9.0951185,-1.1988041,3.0604203,-0.024422223,0.11478445,0.037854444,9.67080578676089,0.12330804402954924,fall
10/07/2020, 21:01:58,8.769695,-1.3136597,3.3260236,-0.024422223,0.11478445,0.037854444,9.470780849949334,0.12330804402954924,fall
10/07/2020, 21:01:58,8.769695,-1.3136597,3.3260236,-0.0036633336,0.102573335,0.045181114,9.470780849949334,0.11214295423190654,fall
10/07/2020, 21:01:58,8.946764,-1.6103697,3.522235,-0.0036633336,0.102573335,0.045181114,9.749052018331112,0.11214295423190654,fall
10/07/2020, 21:01:58,8.946764,-1.6103697,3.522235,0.037854444,0.10379445,0.028085556,9.749052018331112,0.11399581066553624,fall
10/07/2020, 21:01:58,9.255438,-1.672583,3.5030923,0.037854444,0.10379445,0.028085556,10.036549169717327,0.11399581066553624,fall
10/07/2020, 21:01:58,9.255438,-1.672583,3.5030923,0.039075557,0.13676445,0.028085556,10.036549169717327,0.144983491846831,fall
10/07/2020, 21:01:58,9.509077,-1.3974084,3.2733815,0.039075557,0.13676445,0.028085556,10.15334049289875,0.144983491846831,fall
10/07/2020, 21:01:59,2.565106,-6.290731,11.215159,-1.0562612,1.3249056,-1.5544745,13.11231730137861,2.299446348637205,fall
10/07/2020, 21:01:59,2.565106,-6.290731,11.215159,-0.89263225,1.3468856,-1.73642,13.11231730137861,2.371929084692087,fall
10/07/2020, 21:01:59,1.8831514,-6.6735826,11.069198,-0.89263225,1.3468856,-1.73642,13.061780126121308,2.371929084692087,fall
10/07/2020, 21:01:59,1.8831514,-6.6735826,11.069198,-0.63619894,1.3481067,-1.9647678,13.061780126121308,2.4662630512233057,fall
10/07/2020, 21:01:59,1.0935199,-6.7812595,10.9375925,-0.63619894,1.3481067,-1.9647678,12.915579606414587,2.4662630512233057,fall
10/07/2020, 21:01:59,1.0935199,-6.7812595,10.9375925,-0.41273558,1.3310112,-2.1918945,12.915579606414587,2.5973723351116815,fall
10/07/2020, 21:01:59,0.27517462,-6.687939,10.758131,-0.41273558,1.3310112,-2.1918945,12.670502538215663,2.5973723351116815,fall
10/07/2020, 21:01:59,0.27517462,-6.687939,10.758131,-0.25277,1.3810767,-2.3457546,12.670502538215663,2.7338306939081334,fall
10/07/2020, 21:01:59,-0.32063824,-6.73101,10.822737,-0.25277,1.3810767,-2.3457546,12.74915426647199,2.7338306939081334,fall
10/07/2020, 21:01:59,-0.32063824,-6.73101,10.822737,-0.17217667,1.46167,-2.3909357,12.74915426647199,2.807614190644331,fall
10/07/2020, 21:01:59,-0.70348984,-6.9894347,10.557134,-0.17217667,1.46167,-2.3909357,12.680700574937328,2.807614190644331,fall
10/07/2020, 21:01:59,-0.70348984,-6.9894347,10.557134,-0.14409111,1.5459267,-2.3933778,12.680700574937328,2.8528772813761916,fall
10/07/2020, 21:01:59,-0.8925229,-7.391429,10.226924,-0.14409111,1.5459267,-2.3933778,12.649892975371431,2.8528772813761916,fall
10/07/2020, 21:01:59,-0.8925229,-7.391429,10.226924,-0.081814446,1.6521634,-2.394599,12.649892975371431,2.9104023161945896,fall
10/07/2020, 21:01:59,-1.0743774,-7.920243,9.750752,-0.081814446,1.6521634,-2.394599,12.60800166376046,2.9104023161945896,fall
10/07/2020, 21:01:59,-1.0743774,-7.920243,9.750752,0.008547778,1.7437468,-2.4007046,12.60800166376046,2.967171801937387,fall
10/07/2020, 21:01:59,-1.3447664,-8.530413,9.260223,0.008547778,1.7437468,-2.4007046,12.662072271491665,2.967171801937387,fall
10/07/2020, 21:01:59,-1.3447664,-8.530413,9.260223,0.13188,1.8084656,-2.394599,12.662072271491665,3.0036718103556694,fall
10/07/2020, 21:01:59,-1.7994026,-9.107083,8.855837,0.13188,1.8084656,-2.394599,12.82975693237018,3.0036718103556694,fall
10/07/2020, 21:01:59,-1.7994026,-9.107083,8.855837,0.24422224,1.8145711,-2.316448,12.82975693237018,2.9526672932670825,fall
10/07/2020, 21:02:00,9.554541,-16.407585,15.397814,-0.45547447,0.036633335,0.4261678,24.4456696925189,0.6248343559861064,fall
10/07/2020, 21:02:00,9.554541,-16.407585,15.397814,-0.14653334,1.5850023,1.1734878,24.4456696925189,1.977568683087239,fall
10/07/2020, 21:02:00,8.166703,-12.641282,15.184853,-0.14653334,1.5850023,1.1734878,21.37935459047447,1.977568683087239,fall
10/07/2020, 21:02:00,8.166703,-12.641282,15.184853,-0.33336335,1.7571789,1.2394278,21.37935459047447,2.176003241136618,fall
10/07/2020, 21:02:00,4.8239303,-7.8723865,12.856636,-0.33336335,1.7571789,1.2394278,15.828387856852734,2.176003241136618,fall
10/07/2020, 21:02:00,4.8239303,-7.8723865,12.856636,-0.57148004,1.4885345,0.96956223,15.828387856852734,1.8661123129100017,fall
10/07/2020, 21:02:00,3.8811584,-6.1854467,11.2343025,-0.57148004,1.4885345,0.96956223,13.39898110468564,1.8661123129100017,fall
10/07/2020, 21:02:00,3.8811584,-6.1854467,11.2343025,-0.5800278,1.5532534,0.9182756,13.39898110468564,1.8953254340457963,fall
10/07/2020, 21:02:00,3.9984066,-6.364908,10.219746,-0.5800278,1.5532534,0.9182756,12.686312041746671,1.8953254340457963,fall
10/07/2020, 21:02:00,3.9984066,-6.364908,10.219746,-0.41273558,1.9305768,1.0147433,12.686312041746671,2.2197255388408155,fall
10/07/2020, 21:02:00,3.385844,-6.3888364,7.795816,-0.41273558,1.9305768,1.0147433,10.632775560602953,2.2197255388408155,fall
10/07/2020, 21:02:00,3.385844,-6.3888364,7.795816,0.018316668,2.2834778,1.17593,10.632775560602953,2.5685438883030765,fall
10/07/2020, 21:02:00,1.0336994,-3.802195,3.7663028,0.018316668,2.2834778,1.17593,5.450711766800778,2.5685438883030765,fall
10/07/2020, 21:02:00,1.0336994,-3.802195,3.7663028,0.41151446,1.9843056,0.9732256,5.450711766800778,2.2481060922364233,fall
10/07/2020, 21:02:00,-1.7874385,-0.20338993,2.0673988,0.41151446,1.9843056,0.9732256,2.740518498195911,2.2481060922364233,fall
10/07/2020, 21:02:00,-1.7874385,-0.20338993,2.0673988,0.46280113,1.1392968,0.29184556,2.740518498195911,1.2638654382263086,fall
10/07/2020, 21:02:00,-2.9359934,-0.25603202,3.1537402,0.46280113,1.1392968,0.29184556,4.316443776843095,1.2638654382263086,fall
10/07/2020, 21:02:00,-2.9359934,-0.25603202,3.1537402,0.45547447,0.36999667,-0.21003112,4.316443776843095,0.6232716863252227,fall
10/07/2020, 21:02:00,-1.2251252,-3.682554,6.35773,0.45547447,0.36999667,-0.21003112,7.448682123891857,0.6232716863252227,fall
10/07/2020, 21:02:00,-1.2251252,-3.682554,6.35773,0.43349445,0.27963445,-0.13920668,7.448682123891857,0.534313914723322,fall
10/07/2020, 21:02:01,4.505685,-7.2287173,12.220145,-1.9843056,2.790239,2.6388211,14.89588867839861,4.322762997822551,fall
10/07/2020, 21:02:01,4.168297,-8.10449,12.263216,-1.9843056,2.790239,2.6388211,15.278871952834335,4.322762997822551,fall
10/07/2020, 21:02:01,4.168297,-8.10449,12.263216,-1.6875756,2.8500733,2.810998,15.278871952834335,4.344253550490503,fall
10/07/2020, 21:02:01,3.95055,-8.810373,12.081362,-1.6875756,2.8500733,2.810998,15.465730695902096,4.344253550490503,fall
10/07/2020, 21:02:01,3.95055,-8.810373,12.081362,-1.3212423,2.9184556,2.9367723,15.465730695902096,4.34599772315972,fall
10/07/2020, 21:02:01,3.5844483,-8.930014,11.464013,-1.3212423,2.9184556,2.9367723,14.967197805246215,4.34599772315972,fall
10/07/2020, 21:02:01,3.5844483,-8.930014,11.464013,-0.9964267,2.9123502,2.9526467,14.967197805246215,4.26529863613574,fall
10/07/2020, 21:02:01,2.9718857,-8.420342,10.655239,-0.9964267,2.9123502,2.9526467,13.902100265380955,4.26529863613574,fall
10/07/2020, 21:02:01,2.9718857,-8.420342,10.655239,-0.80471224,2.9245613,2.9172347,13.902100265380955,4.208429447598659,fall
10/07/2020, 21:02:01,2.3042881,-7.668997,10.023534,-0.80471224,2.9245613,2.9172347,12.829438266023923,4.208429447598659,fall
10/07/2020, 21:02:01,2.3042881,-7.668997,10.023534,-0.7558678,3.0491145,2.9734056,12.829438266023923,4.3254567370899375,fall
10/07/2020, 21:02:01,1.7850457,-7.133004,9.62154,-0.7558678,3.0491145,2.9734056,12.109507437083954,4.3254567370899375,fall
10/07/2020, 21:02:01,1.7850457,-7.133004,9.62154,-0.8425667,3.2151856,3.14314,12.109507437083954,4.574567406167534,fall
10/07/2020, 21:02:01,1.4955142,-6.869794,9.159725,-0.8425667,3.2151856,3.14314,11.546912844791969,4.574567406167534,fall
10/07/2020, 21:02:01,1.4955142,-6.869794,9.159725,-0.94880337,3.34096,3.2933369,11.546912844791969,4.786262576143789,fall
10/07/2020, 21:02:01,1.3471591,-6.5371914,8.446664,-0.94880337,3.34096,3.2933369,10.76549299174513,4.786262576143789,fall
10/07/2020, 21:02:01,1.3471591,-6.5371914,8.446664,-0.98910004,3.383699,3.315317,10.76549299174513,4.839324710729088,fall
10/07/2020, 21:02:01,1.1246266,-6.099305,7.810173,-0.98910004,3.383699,3.315317,9.973219703340511,4.839324710729088,fall
10/07/2020, 21:02:01,1.1246266,-6.099305,7.810173,-0.9817734,3.4325435,3.2689145,9.973219703340511,4.840664800136851,fall
10/07/2020, 21:02:01,0.7393822,-5.733203,7.4679995,-0.9817734,3.4325435,3.2689145,9.443903739632237,4.840664800136851,fall
10/07/2020, 21:02:02,0.48095736,-3.0963125,9.212367,-0.35900667,0.05250778,0.04396,9.730682300244272,0.36547960279181935,fall
10/07/2020, 21:02:02,0.70348984,-3.9314077,9.686146,-0.35900667,0.05250778,0.04396,10.477226947034774,0.36547960279181935,fall
10/07/2020, 21:02:02,0.70348984,-3.9314077,9.686146,-0.31871,0.11478445,0.07448778,10.477226947034774,0.3468428510102103,fall
10/07/2020, 21:02:02,0.6795616,-4.642076,9.923036,-0.31871,0.11478445,0.07448778,10.976215635199118,0.3468428510102103,fall
10/07/2020, 21:02:02,0.6795616,-4.642076,9.923036,-0.22102112,0.12699556,0.09280445,10.976215635199118,0.27127637589729175,fall
10/07/2020, 21:02:02,0.552742,-4.9986067,9.915857,-0.22102112,0.12699556,0.09280445,11.11826509738335,0.27127637589729175,fall
10/07/2020, 21:02:02,0.552742,-4.9986067,9.915857,-0.109900005,0.12211112,0.10745778,11.11826509738335,0.19630667574217858,fall
10/07/2020, 21:02:02,0.45702913,-4.9196434,9.619147,-0.109900005,0.12211112,0.10745778,10.813868948074601,0.19630667574217858,fall
10/07/2020, 21:02:02,0.45702913,-4.9196434,9.619147,-0.023201112,0.11966889,0.109900005,10.813868948074601,0.16412479030975485,fall
10/07/2020, 21:02:02,0.35174492,-4.4147577,9.245867,-0.023201112,0.11966889,0.109900005,10.251822409762738,0.16412479030975485,fall
10/07/2020, 21:02:02,0.35174492,-4.4147577,9.245867,0.0012211112,0.09768889,0.10379445,10.251822409762738,0.14254086427328563,fall
10/07/2020, 21:02:02,0.21296121,-3.8500516,8.9348,0.0012211112,0.09768889,0.10379445,9.73133617775879,0.14254086427328563,fall
10/07/2020, 21:02:02,0.21296121,-3.8500516,8.9348,-0.007326667,0.06105556,0.070824444,9.73133617775879,0.09379532679067148,fall
10/07/2020, 21:02:02,0.16271193,-3.5270207,8.755338,-0.007326667,0.06105556,0.070824444,9.440460192551571,0.09379532679067148,fall
10/07/2020, 21:02:02,0.16271193,-3.5270207,8.755338,-0.028085556,0.026864445,0.046402223,9.440460192551571,0.06052820154923547,fall
10/07/2020, 21:02:02,0.18903299,-3.4600215,8.762517,-0.028085556,0.026864445,0.046402223,9.42280138630951,0.06052820154923547,fall
10/07/2020, 21:02:02,0.18903299,-3.4600215,8.762517,-0.06960334,0.019537779,0.047623336,9.42280138630951,0.08656980842436077,fall
10/07/2020, 21:02:02,0.29671,-3.4767714,8.908479,-0.06960334,0.019537779,0.047623336,9.567495455483622,0.08656980842436077,fall
10/07/2020, 21:02:02,0.29671,-3.4767714,8.908479,-0.11112112,0.035412222,0.05372889,9.567495455483622,0.12840841850836648,fall
10/07/2020, 21:02:02,0.33738798,-3.5437703,8.973084,-0.11112112,0.035412222,0.05372889,9.653413034995838,0.12840841850836648,fall
10/07/2020, 21:02:03,-3.251846,4.101298,-5.7116675,0.57270116,2.5301423,3.3140957,7.747147414079864,4.208662169113756,fall
10/07/2020, 21:02:03,-3.251846,4.101298,-5.7116675,0.30283555,2.1980002,3.1040645,7.747147414079864,3.8155118162249657,fall
10/07/2020, 21:02:03,-3.211168,4.709075,-5.572884,0.30283555,2.1980002,3.1040645,7.971450580781382,3.8155118162249657,fall
10/07/2020, 21:02:03,-3.211168,4.709075,-5.572884,0.19171445,1.9147023,2.8500733,7.971450580781382,3.4388598900430822,fall
10/07/2020, 21:02:03,-3.2638102,5.15414,-5.3216376,0.19171445,1.9147023,2.8500733,8.095519928327176,3.4388598900430822,fall
10/07/2020, 21:02:03,-3.2638102,5.15414,-5.3216376,0.37854445,1.6607112,2.5447958,8.095519928327176,3.062228421483972,fall
10/07/2020, 21:02:03,-3.5198421,5.304888,-5.2019963,0.37854445,1.6607112,2.5447958,8.221428634691373,3.062228421483972,fall
10/07/2020, 21:02:03,-3.5198421,5.304888,-5.2019963,0.71801335,1.3529912,2.1980002,8.221428634691373,2.6790545464010096,fall
10/07/2020, 21:02:03,-3.8763726,5.493921,-5.2163534,0.71801335,1.3529912,2.1980002,8.509980793265319,2.6790545464010096,fall
10/07/2020, 21:02:03,-3.8763726,5.493921,-5.2163534,1.1063267,0.9402556,1.7693901,8.509980793265319,2.288838280333255,fall
10/07/2020, 21:02:03,-3.95055,5.895915,-5.2689953,1.1063267,0.9402556,1.7693901,8.839172546172497,2.288838280333255,fall
10/07/2020, 21:02:03,-3.95055,5.895915,-5.2689953,1.3444434,0.41395667,1.2699556,8.839172546172497,1.895171656034772,fall
10/07/2020, 21:02:03,-3.5724843,6.2787666,-5.003392,1.3444434,0.41395667,1.2699556,8.787461969975674,1.895171656034772,fall
10/07/2020, 21:02:03,-3.5724843,6.2787666,-5.003392,1.2504178,0.015874445,0.7766267,8.787461969975674,1.472054953003582,fall
10/07/2020, 21:02:03,-2.8259234,6.6329045,-4.6396832,1.2504178,0.015874445,0.7766267,8.573676366186424,1.472054953003582,fall
10/07/2020, 21:02:03,-2.8259234,6.6329045,-4.6396832,0.91094893,-0.23079,0.2845189,8.573676366186424,0.9818569071331776,fall
10/07/2020, 21:02:03,-2.3162522,6.95115,-4.165904,0.91094893,-0.23079,0.2845189,8.428420160895426,0.9818569071331776,fall
10/07/2020, 21:02:03,-2.3162522,6.95115,-4.165904,0.5043189,-0.44326335,-0.2185789,8.428420160895426,0.7061137887040634,fall
10/07/2020, 21:02:03,-2.3712873,7.04447,-3.6466618,0.5043189,-0.44326335,-0.2185789,8.279233110042284,0.7061137887040634,fall
10/07/2020, 21:02:03,-2.3712873,7.04447,-3.6466618,0.13920668,-0.70336,-0.72534,8.279233110042284,1.0199078128360428,fall
10/07/2020, 21:02:04,9.030513,-1.4045869,3.6275191,-0.11966889,-0.2283478,-0.008547778,9.832696529532619,0.25794655116387766,fall
10/07/2020, 21:02:04,9.030513,-1.4045869,3.6275191,-0.09768889,-0.23201112,-0.02198,9.832696529532619,0.2526962638039264,fall
10/07/2020, 21:02:04,9.018549,-1.4500505,3.6729827,-0.09768889,-0.23201112,-0.02198,9.845185304409904,0.2526962638039264,fall
10/07/2020, 21:02:04,9.018549,-1.4500505,3.6729827,-0.09768889,-0.24178001,-0.04151778,9.845185304409904,0.2640538203239011,fall
10/07/2020, 21:02:04,9.217153,-1.6630118,3.7423747,-0.09768889,-0.24178001,-0.04151778,10.085974333981879,0.2640538203239011,fall
10/07/2020, 21:02:04,9.217153,-1.6630118,3.7423747,-0.09036223,-0.23201112,-0.070824444,10.085974333981879,0.25886404950952663,fall
10/07/2020, 21:02:04,9.5760765,-1.8113668,3.7088752,-0.09036223,-0.23201112,-0.070824444,10.427753643321317,0.25886404950952663,fall
10/07/2020, 21:02:04,9.5760765,-1.8113668,3.7088752,-0.07204556,-0.21003112,-0.07448778,10.427753643321317,0.23420517570390315,fall
10/07/2020, 21:02:04,9.815358,-1.6510476,3.5653057,-0.07204556,-0.21003112,-0.07448778,10.572540791472226,0.23420517570390315,fall
10/07/2020, 21:02:04,9.815358,-1.6510476,3.5653057,-0.064718895,-0.19293556,-0.07204556,10.572540791472226,0.21587780449683305,fall
10/07/2020, 21:02:04,9.726824,-1.4380864,3.5413775,-0.064718895,-0.19293556,-0.07204556,10.450863540700151,0.21587780449683305,fall
10/07/2020, 21:02:04,9.726824,-1.4380864,3.5413775,-0.06960334,-0.17950334,-0.05372889,10.450863540700151,0.19988213075483757,fall
10/07/2020, 21:02:04,9.554541,-1.2562319,3.615555,-0.06960334,-0.17950334,-0.05372889,10.292696616118862,0.19988213075483757,fall
10/07/2020, 21:02:04,9.554541,-1.2562319,3.615555,-0.07937223,-0.17706113,-0.046402223,10.292696616118862,0.19950879428776114,fall
10/07/2020, 21:02:04,9.32483,-1.2179468,3.6131623,-0.07937223,-0.17706113,-0.046402223,10.074263821420415,0.19950879428776114,fall
10/07/2020, 21:02:04,9.32483,-1.2179468,3.6131623,-0.048844445,-0.19415668,-0.029306669,10.074263821420415,0.20234000032828664,fall
10/07/2020, 21:02:04,9.080762,-1.3495519,3.7304106,-0.048844445,-0.19415668,-0.029306669,9.909464682595072,0.20234000032828664,fall
10/07/2020, 21:02:04,9.080762,-1.3495519,3.7304106,-0.017095556,-0.20881,-0.024422223,9.909464682595072,0.21092728554766643,fall
10/07/2020, 21:02:04,9.135797,-1.4476577,3.6849468,-0.017095556,-0.20881,-0.024422223,9.95677277604451,0.21092728554766643,fall
10/07/2020, 21:02:04,9.135797,-1.4476577,3.6849468,0.0036633336,-0.21247335,-0.035412222,9.95677277604451,0.2154353012126728,fall
10/07/2020, 21:02:05,9.174082,0.019142581,4.2592244,-2.1345024,1.4946401,1.0049745,10.114600138947702,2.7928521838153575,fall
10/07/2020, 21:02:05,8.922835,0.20338993,3.802195,-2.1345024,1.4946401,1.0049745,9.70129091994648,2.7928521838153575,fall
10/07/2020, 21:02:05,8.922835,0.20338993,3.802195,-2.2602768,1.5239468,1.119759,9.70129091994648,2.9470536231383657,fall
10/07/2020, 21:02:05,8.456235,0.44745782,4.3908296,-2.2602768,1.5239468,1.119759,9.538737441488253,2.9470536231383657,fall
10/07/2020, 21:02:05,8.456235,0.44745782,4.3908296,-2.2883623,1.5862234,1.2186689,9.538737441488253,3.039384870985894,fall
10/07/2020, 21:02:05,8.12124,0.48095736,6.1399827,-2.2883623,1.5862234,1.2186689,10.192410960721226,3.039384870985894,fall
10/07/2020, 21:02:05,8.12124,0.48095736,6.1399827,-2.3420913,1.6558267,1.3432223,10.192410960721226,3.167238516664018,fall
10/07/2020, 21:02:05,8.111669,0.45224348,7.5589266,-2.3420913,1.6558267,1.3432223,11.096894272754655,3.167238516664018,fall
10/07/2020, 21:02:05,8.111669,0.45224348,7.5589266,-2.4239056,1.6887968,1.4311423,11.096894272754655,3.282608912505205,fall
10/07/2020, 21:02:05,8.32463,0.8757731,8.843872,-2.4239056,1.6887968,1.4311423,12.177048604018331,3.282608912505205,fall
10/07/2020, 21:02:05,8.32463,0.8757731,8.843872,-2.5631123,1.9183656,1.4543434,12.177048604018331,3.5163597447361092,fall
10/07/2020, 21:02:05,8.595019,1.134198,10.135997,-2.5631123,1.9183656,1.4543434,13.337885663025476,3.5163597447361092,fall
10/07/2020, 21:02:05,8.595019,1.134198,10.135997,-2.878159,2.31889,1.5679067,13.337885663025476,4.0148950551151055,fall
10/07/2020, 21:02:05,8.683554,0.72263247,11.097912,-2.878159,2.31889,1.5679067,14.109923797112593,4.0148950551151055,fall
10/07/2020, 21:02:05,8.683554,0.72263247,11.097912,-3.2591457,2.756048,1.7925912,14.109923797112593,4.6293859824566645,fall
10/07/2020, 21:02:05,8.664411,-0.25842485,12.406785,-3.2591457,2.756048,1.7925912,15.134963118892735,4.6293859824566645,fall
10/07/2020, 21:02:05,8.664411,-0.25842485,12.406785,-3.4435334,3.1443613,2.05513,15.134963118892735,5.095928715504476,fall
10/07/2020, 21:02:05,8.659625,-1.6821543,14.019547,-3.4435334,3.1443613,2.05513,16.564010993703775,5.095928715504476,fall
10/07/2020, 21:02:05,8.659625,-1.6821543,14.019547,-3.3434024,3.4239957,2.3359857,16.564010993703775,5.325308939440218,fall
10/07/2020, 21:02:05,8.535198,-3.3140593,15.323636,-3.3434024,3.4239957,2.3359857,17.85066999360626,5.325308939440218,fall
10/07/2020, 21:02:06,6.283552,0.1363909,6.209375,-0.6447467,-0.7619734,-0.26376,8.835041994977747,1.0324103376247211,fall
10/07/2020, 21:02:06,6.8482585,-0.5886344,6.6448684,-0.6447467,-0.7619734,-0.26376,9.560303894152842,1.0324103376247211,fall
10/07/2020, 21:02:06,6.8482585,-0.5886344,6.6448684,-0.5800278,-0.8486723,-0.3382478,9.560303894152842,1.0821684119285568,fall
10/07/2020, 21:02:06,7.798209,-1.416551,6.235696,-0.5800278,-0.8486723,-0.3382478,10.084769996918661,1.0821684119285568,fall
10/07/2020, 21:02:06,7.798209,-1.416551,6.235696,-0.4383789,-0.8730945,-0.2820767,10.084769996918661,1.0168762568435634,fall
10/07/2020, 21:02:06,8.609376,-1.3734802,5.800202,-0.4383789,-0.8730945,-0.2820767,10.471396476662457,1.0168762568435634,fall
10/07/2020, 21:02:06,8.609376,-1.3734802,5.800202,-0.3931978,-0.81570226,-0.23323223,10.471396476662457,0.935078586493498,fall
10/07/2020, 21:02:06,8.985049,-0.9212367,5.568098,-0.3931978,-0.81570226,-0.23323223,10.610537362827772,0.935078586493498,fall
10/07/2020, 21:02:06,8.985049,-0.9212367,5.568098,-0.47623336,-0.70458114,-0.20881,10.610537362827772,0.8756908232187384,fall
10/07/2020, 21:02:06,8.855837,-0.60777694,5.1661043,-0.47623336,-0.70458114,-0.20881,10.270534224541429,0.8756908232187384,fall
10/07/2020, 21:02:06,8.855837,-0.60777694,5.1661043,-0.53973114,-0.61299783,-0.19293556,10.270534224541429,0.8392259392415472,fall
10/07/2020, 21:02:06,8.30788,-0.49052864,4.8047876,-0.53973114,-0.61299783,-0.19293556,9.609759588167506,0.8392259392415472,fall
10/07/2020, 21:02:06,8.30788,-0.49052864,4.8047876,-0.48478112,-0.5910178,-0.15141778,9.609759588167506,0.779257398615887,fall
10/07/2020, 21:02:06,7.503892,-0.50488555,5.1326046,-0.48478112,-0.5910178,-0.15141778,9.105324470502648,0.779257398615887,fall
10/07/2020, 21:02:06,7.503892,-0.50488555,5.1326046,-0.35412225,-0.6459678,-0.10379445,9.105324470502648,0.743942357370766,fall
10/07/2020, 21:02:06,7.34118,-0.81834537,5.548956,-0.35412225,-0.6459678,-0.10379445,9.238697011510574,0.743942357370766,fall
10/07/2020, 21:02:06,7.34118,-0.81834537,5.548956,-0.24666445,-0.71801335,-0.13188,9.238697011510574,0.7705704707935682,fall
10/07/2020, 21:02:06,7.812566,-1.3256238,5.558527,-0.24666445,-0.71801335,-0.13188,9.679394872227258,0.7705704707935682,fall
10/07/2020, 21:02:06,7.812566,-1.3256238,5.558527,-0.1306589,-0.73999333,-0.1306589,9.679394872227258,0.7627146436654734,fall
10/07/2020, 21:02:06,8.319844,-1.442872,5.2666025,-0.1306589,-0.73999333,-0.1306589,9.951823455268112,0.7627146436654734,fall
10/07/2020, 21:02:07,9.1669035,-0.715454,7.4105716,1.34078,0.71435004,0.32481557,11.809342283658573,1.5535418253636244,fall
10/07/2020, 21:02:07,9.1669035,-0.715454,7.4105716,1.2894934,0.79250115,0.27719223,11.809342283658573,1.5387290035121088,fall
10/07/2020, 21:02:07,9.554541,-1.0073783,7.8221374,1.2894934,0.79250115,0.27719223,12.389103706976877,1.5387290035121088,fall
10/07/2020, 21:02:07,9.554541,-1.0073783,7.8221374,1.2333223,0.88408446,0.23201112,12.389103706976877,1.5350955356740708,fall
10/07/2020, 21:02:07,10.028319,-1.3423735,8.001599,1.2333223,0.88408446,0.23201112,12.899408796421811,1.5350955356740708,fall
10/07/2020, 21:02:07,10.028319,-1.3423735,8.001599,1.2052367,0.9610145,0.1856089,12.899408796421811,1.5526090902383103,fall
10/07/2020, 21:02:07,10.325029,-1.430908,8.063812,1.2052367,0.9610145,0.1856089,13.178725175752382,1.5526090902383103,fall
10/07/2020, 21:02:07,10.325029,-1.430908,8.063812,1.1344123,1.0232911,0.1526389,13.178725175752382,1.535354868257149,fall
10/07/2020, 21:02:07,10.372886,-1.2921243,8.152347,1.1344123,1.0232911,0.1526389,13.256209798734634,1.535354868257149,fall
10/07/2020, 21:02:07,10.372886,-1.2921243,8.152347,1.0171856,1.10999,0.098910004,13.256209798734634,1.5088165799642288,fall
10/07/2020, 21:02:07,10.363315,-1.0983056,8.147561,1.0171856,1.10999,0.098910004,13.228277162511842,1.5088165799642288,fall
10/07/2020, 21:02:07,10.363315,-1.0983056,8.147561,0.9048434,1.1783723,0.059834447,13.228277162511842,1.4869038011156919,fall
10/07/2020, 21:02:07,10.205389,-1.0624132,8.453842,0.9048434,1.1783723,0.059834447,13.294590413637081,1.4869038011156919,fall
10/07/2020, 21:02:07,10.205389,-1.0624132,8.453842,0.78273225,1.2101212,0.024422223,13.294590413637081,1.441408834009674,fall
10/07/2020, 21:02:07,10.150353,-1.1294123,8.803194,0.78273225,1.2101212,0.024422223,13.483377630583101,1.441408834009674,fall
10/07/2020, 21:02:07,10.150353,-1.1294123,8.803194,0.68138003,1.2382067,-0.03174889,13.483377630583101,1.4136628606150994,fall
10/07/2020, 21:02:07,10.188639,-1.1700903,8.975478,0.68138003,1.2382067,-0.03174889,13.628524427467188,1.4136628606150994,fall
10/07/2020, 21:02:07,10.188639,-1.1700903,8.975478,0.58979666,1.27484,-0.10135223,13.628524427467188,1.4083143811162282,fall
10/07/2020, 21:02:07,10.217353,-1.0671989,8.989835,0.58979666,1.27484,-0.10135223,13.651019834242286,1.4083143811162282,fall
10/07/2020, 21:02:07,10.217353,-1.0671989,8.989835,0.56293225,1.3029256,-0.15752333,13.651019834242286,1.428048110736614,fall
10/07/2020, 21:02:08,1.9501505,-5.278567,6.283552,0.44326335,2.7328467,2.1442711,8.435009345545982,3.5018327185049367,fall
10/07/2020, 21:02:08,1.9501505,-5.278567,6.283552,0.39197668,2.680339,2.0905423,8.435009345545982,3.4217291795253315,fall
10/07/2020, 21:02:08,1.8113668,-5.0416775,6.393622,0.39197668,2.680339,2.0905423,8.341340582226781,3.4217291795253315,fall
10/07/2020, 21:02:08,1.8113668,-5.0416775,6.393622,0.2759711,2.6302733,2.0844367,8.341340582226781,3.3673987110735357,fall
10/07/2020, 21:02:08,1.6893328,-4.8502517,6.491728,0.2759711,2.6302733,2.0844367,8.27776038351351,3.3673987110735357,fall
10/07/2020, 21:02:08,1.6893328,-4.8502517,6.491728,0.16362889,2.5838711,2.0905423,8.27776038351351,3.327691630469884,fall
10/07/2020, 21:02:08,1.5840486,-4.7018967,6.5754766,0.16362889,2.5838711,2.0905423,8.23735002641919,3.327691630469884,fall
10/07/2020, 21:02:08,1.5840486,-4.7018967,6.5754766,0.06349778,2.5423534,2.1027534,8.23735002641919,3.2998734219504993,fall
10/07/2020, 21:02:08,1.4644074,-4.790431,6.326623,0.06349778,2.5423534,2.1027534,8.069626798068237,3.2998734219504993,fall
10/07/2020, 21:02:08,1.4644074,-4.790431,6.326623,-0.014653334,2.5093834,2.1149645,8.069626798068237,3.2818127220741604,fall
10/07/2020, 21:02:08,1.3974084,-4.8861437,6.309873,-0.014653334,2.5093834,2.1149645,8.101953396323584,3.2818127220741604,fall
10/07/2020, 21:02:08,1.3974084,-4.8861437,6.309873,-0.023201112,2.481298,2.1015322,8.101953396323584,3.251740392749461,fall
10/07/2020, 21:02:08,1.2610176,-5.0081778,6.0897336,-0.023201112,2.481298,2.1015322,7.984789606737888,3.251740392749461,fall
10/07/2020, 21:02:08,1.2610176,-5.0081778,6.0897336,-0.012211111,2.3921568,2.0929844,7.984789606737888,3.1785448420399303,fall
10/07/2020, 21:02:08,1.0480564,-5.029713,5.7954164,-0.012211111,2.3921568,2.0929844,7.7448878159397125,3.1785448420399303,fall
10/07/2020, 21:02:08,1.0480564,-5.029713,5.7954164,0.015874445,2.3030157,2.07711,7.7448878159397125,3.1013738120608623,fall
10/07/2020, 21:02:08,0.8566305,-4.8598228,5.5274205,0.015874445,2.3030157,2.07711,7.409728105435641,3.1013738120608623,fall
10/07/2020, 21:02:08,0.8566305,-4.8598228,5.5274205,0.007326667,2.18701,2.0600145,7.409728105435641,3.0044510849545416,fall
10/07/2020, 21:02:08,0.6843473,-4.5320063,5.103891,0.007326667,2.18701,2.0600145,6.859818819748221,3.0044510849545416,fall
10/07/2020, 21:02:08,0.6843473,-4.5320063,5.103891,-0.04396,2.0636778,2.0172756,6.859818819748221,2.8861911277962897,fall
10/07/2020, 21:02:09,9.363115,-2.2707887,4.0414777,0.0,-0.22712667,-0.012211111,10.447868267853012,0.22745469168000365,fall
10/07/2020, 21:02:09,9.363115,-2.2707887,4.0414777,-0.0012211112,-0.20392556,0.0012211112,10.447868267853012,0.20393287679689318,fall
10/07/2020, 21:02:09,8.975478,-2.0027926,4.005585,-0.0012211112,-0.20392556,0.0012211112,10.030707819032479,0.20393287679689318,fall
10/07/2020, 21:02:09,8.975478,-2.0027926,4.005585,-0.013432222,-0.19293556,0.007326667,10.030707819032479,0.1935412965938435,fall
10/07/2020, 21:02:09,8.843872,-2.0267208,4.091727,-0.013432222,-0.19293556,0.007326667,9.953084862788009,0.1935412965938435,fall
10/07/2020, 21:02:09,8.843872,-2.0267208,4.091727,-0.04151778,-0.18072446,-0.015874445,9.953084862788009,0.18611032570585676,fall
10/07/2020, 21:02:09,8.903693,-2.2372892,4.017549,-0.04151778,-0.18072446,-0.015874445,10.02107358409894,0.18611032570585676,fall
10/07/2020, 21:02:09,8.903693,-2.2372892,4.017549,-0.039075557,-0.17706113,-0.034191113,10.02107358409894,0.18451713628638547,fall
10/07/2020, 21:02:09,8.973084,-2.2779672,4.0271206,-0.039075557,-0.17706113,-0.034191113,10.095696084049068,0.18451713628638547,fall
10/07/2020, 21:02:09,8.973084,-2.2779672,4.0271206,-0.045181114,-0.15386,-0.03297,10.095696084049068,0.16371088673243403,fall
10/07/2020, 21:02:09,9.150154,-2.2061825,3.9625144,-0.045181114,-0.15386,-0.03297,10.2124473959084,0.16371088673243403,fall
10/07/2020, 21:02:09,9.150154,-2.2061825,3.9625144,-0.08059334,-0.12211112,-0.04151778,10.2124473959084,0.1520859557111649,fall
10/07/2020, 21:02:09,9.217153,-2.1296122,3.7974095,-0.08059334,-0.12211112,-0.04151778,10.193697528150787,0.1520859557111649,fall
10/07/2020, 21:02:09,9.217153,-2.1296122,3.7974095,-0.098910004,-0.10013112,-0.05250778,10.193697528150787,0.15022149126186965,fall
10/07/2020, 21:02:09,9.047262,-2.1080768,3.790231,-0.098910004,-0.10013112,-0.05250778,10.03308486760165,0.15022149126186965,fall
10/07/2020, 21:02:09,9.047262,-2.1080768,3.790231,-0.091583334,-0.10013112,-0.057392225,10.03308486760165,0.14733504354226057,fall
10/07/2020, 21:02:09,8.805588,-2.1655045,3.926622,-0.091583334,-0.10013112,-0.057392225,9.881606405417868,0.14733504354226057,fall
10/07/2020, 21:02:09,8.805588,-2.1655045,3.926622,-0.064718895,-0.10867889,-0.070824444,9.881606405417868,0.1449680615079083,fall
10/07/2020, 21:02:09,8.79123,-2.2325034,3.9290147,-0.064718895,-0.10867889,-0.070824444,9.88468291506029,0.1449680615079083,fall
10/07/2020, 21:02:09,8.79123,-2.2325034,3.9290147,-0.026864445,-0.11356334,-0.07326667,9.88468291506029,0.13779090944853079,fall
10/07/2020, 21:02:10,8.331808,0.38285163,1.7300107,-1.0928944,0.07570889,0.30772,8.518129994952435,1.1379111052646123,fall
10/07/2020, 21:02:10,8.331808,0.38285163,1.7300107,-1.2321012,0.059834447,0.32115224,8.518129994952435,1.2746734069154462,fall
10/07/2020, 21:02:10,8.664411,0.4977071,2.0697916,-1.2321012,0.059834447,0.32115224,8.922093943158787,1.2746734069154462,fall
10/07/2020, 21:02:10,8.664411,0.4977071,2.0697916,-1.504409,0.11356334,0.35534334,8.922093943158787,1.5499715570209613,fall
10/07/2020, 21:02:10,8.894122,0.37806597,2.160719,-1.504409,0.11356334,0.35534334,9.16062489538181,1.5499715570209613,fall
10/07/2020, 21:02:10,8.894122,0.37806597,2.160719,-1.7840434,0.20392556,0.39808223,9.16062489538181,1.8392569314213074,fall
10/07/2020, 21:02:10,8.9826565,0.033499517,2.1343977,-1.7840434,0.20392556,0.39808223,9.232816112629623,1.8392569314213074,fall
10/07/2020, 21:02:10,8.9826565,0.033499517,2.1343977,-1.9342401,0.2625389,0.43349445,9.232816112629623,1.9995321681318827,fall
10/07/2020, 21:02:10,8.819944,-0.41874397,2.0961127,-1.9342401,0.2625389,0.43349445,9.075266055397647,1.9995321681318827,fall
10/07/2020, 21:02:10,8.819944,-0.41874397,2.0961127,-1.95622,0.23323223,0.45059,9.075266055397647,2.0209466700184,fall
10/07/2020, 21:02:10,8.537591,-0.89013004,2.254039,-1.95622,0.23323223,0.45059,8.87487933886508,2.0209466700184,fall
10/07/2020, 21:02:10,8.537591,-0.89013004,2.254039,-1.9024912,0.14531223,0.46035892,8.87487933886508,1.9627834292177873,fall
10/07/2020, 21:02:10,8.288737,-1.1078769,2.672783,-1.9024912,0.14531223,0.46035892,8.779198461010214,1.9627834292177873,fall
10/07/2020, 21:02:10,8.288737,-1.1078769,2.672783,-1.7498523,0.035412222,0.46158,8.779198461010214,1.8100533694456769,fall
10/07/2020, 21:02:10,8.243274,-1.0145568,3.1250265,-1.7498523,0.035412222,0.46158,8.87393248255988,1.8100533694456769,fall
10/07/2020, 21:02:10,8.243274,-1.0145568,3.1250265,-1.5801178,-0.06105556,0.47623336,8.87393248255988,1.6514533986697288,fall
10/07/2020, 21:02:10,8.379665,-0.8757731,3.6729827,-1.5801178,-0.06105556,0.47623336,9.191113758841059,1.6514533986697288,fall
10/07/2020, 21:02:10,8.379665,-0.8757731,3.6729827,-1.4470167,-0.09646778,0.53118336,9.191113758841059,1.5444478536601691,fall
10/07/2020, 21:02:10,8.705089,-0.83988076,4.321438,-1.4470167,-0.09646778,0.53118336,9.754936825453255,1.5444478536601691,fall
10/07/2020, 21:02:10,8.705089,-0.83988076,4.321438,-1.4201523,-0.13554333,0.58491224,9.754936825453255,1.5418582611985843,fall
10/07/2020, 21:02:11,6.1160545,0.16749759,1.9573289,0.37976557,-0.46158,-1.51662,6.4238084498656045,1.6301577647154404,fall
10/07/2020, 21:02:11,6.8602223,0.22013968,2.0458634,0.37976557,-0.46158,-1.51662,7.162169297028325,1.6301577647154404,fall
10/07/2020, 21:02:11,6.8602223,0.22013968,2.0458634,0.22468445,-0.8327978,-1.7107767,7.162169297028325,1.9159311548903402,fall
10/07/2020, 21:02:11,7.6546397,0.27756742,1.6749759,0.22468445,-0.8327978,-1.7107767,7.84066942930355,1.9159311548903402,fall
10/07/2020, 21:02:11,7.6546397,0.27756742,1.6749759,0.23811668,-1.2980411,-1.998959,7.84066942930355,2.3952968771967655,fall
10/07/2020, 21:02:11,8.078169,0.51206404,1.012164,0.23811668,-1.2980411,-1.998959,8.15741980122087,2.3952968771967655,fall
10/07/2020, 21:02:11,8.078169,0.51206404,1.012164,0.32970002,-1.79137,-2.3249958,8.15741980122087,2.9535256847926235,fall
10/07/2020, 21:02:11,8.078169,0.87338024,0.40917268,0.32970002,-1.79137,-2.3249958,8.135541015316495,2.9535256847926235,fall
10/07/2020, 21:02:11,8.078169,0.87338024,0.40917268,0.5507211,-2.2663822,-2.6168413,8.135541015316495,3.5053730998960733,fall
10/07/2020, 21:02:11,8.042277,1.1126626,0.18664017,0.5507211,-2.2663822,-2.6168413,8.121026860190181,3.5053730998960733,fall
10/07/2020, 21:02:11,8.042277,1.1126626,0.18664017,0.9634567,-2.7438369,-2.823209,8.121026860190181,4.053072777724201,fall
10/07/2020, 21:02:11,8.628518,0.6053841,0.70588267,0.9634567,-2.7438369,-2.823209,8.678484023412473,4.053072777724201,fall
10/07/2020, 21:02:11,8.628518,0.6053841,0.70588267,1.3993934,-3.229839,-2.933109,8.678484023412473,4.581843645614592,fall
10/07/2020, 21:02:11,10.028319,-0.30149564,1.3950156,1.3993934,-3.229839,-2.933109,10.129371021996127,4.581843645614592,fall
10/07/2020, 21:02:11,10.028319,-0.30149564,1.3950156,1.8976067,-3.6291423,-3.0466723,10.129371021996127,5.104292056379932,fall
10/07/2020, 21:02:11,11.830115,-0.85902333,2.4502504,1.8976067,-3.6291423,-3.0466723,12.111699983491768,5.104292056379932,fall
10/07/2020, 21:02:11,11.830115,-0.85902333,2.4502504,2.5118256,-3.9356413,-3.1065068,12.111699983491768,5.607934080917683,fall
10/07/2020, 21:02:11,13.574483,-1.0887343,3.3547373,2.5118256,-3.9356413,-3.1065068,14.025198430822753,5.607934080917683,fall
10/07/2020, 21:02:11,13.574483,-1.0887343,3.3547373,3.1272657,-4.129798,-3.0185869,14.025198430822753,5.995572400590224,fall
10/07/2020, 21:02:11,15.189638,-1.134198,3.95055,3.1272657,-4.129798,-3.0185869,15.735893926875036,5.995572400590224,fall
10/07/2020, 21:02:12,8.949157,-1.7994026,4.1180477,0.023201112,0.17950334,0.036633335,10.014168632992936,0.1846665661500021,fall
10/07/2020, 21:02:12,8.949157,-1.7994026,4.1180477,0.034191113,0.18194556,0.028085556,10.014168632992936,0.18724854690607629,fall
10/07/2020, 21:02:12,8.85823,-1.8305093,4.173083,0.034191113,0.18194556,0.028085556,9.961607145125093,0.18724854690607629,fall
10/07/2020, 21:02:12,8.85823,-1.8305093,4.173083,0.07448778,0.17950334,0.028085556,9.961607145125093,0.19636363232474902,fall
10/07/2020, 21:02:12,8.793623,-1.9238294,4.249653,0.07448778,0.17950334,0.028085556,9.954319369041913,0.19636363232474902,fall
10/07/2020, 21:02:12,8.793623,-1.9238294,4.249653,0.09280445,0.18683001,0.029306669,9.954319369041913,0.2106584921431393,fall
10/07/2020, 21:02:12,8.834301,-1.8137596,4.141976,0.09280445,0.18683001,0.029306669,9.924241130519109,0.2106584921431393,fall
10/07/2020, 21:02:12,8.834301,-1.8137596,4.141976,0.09036223,0.21247335,0.039075557,9.924241130519109,0.2341733439466815,fall
10/07/2020, 21:02:12,8.834301,-1.6893328,4.1228333,0.09036223,0.21247335,0.039075557,9.894264679362418,0.2341733439466815,fall
10/07/2020, 21:02:12,8.834301,-1.6893328,4.1228333,0.07204556,0.23567446,0.05006556,9.894264679362418,0.25147479306948234,fall
10/07/2020, 21:02:12,8.843872,-1.7347964,4.141976,0.07204556,0.23567446,0.05006556,9.918646881004266,0.25147479306948234,fall
10/07/2020, 21:02:12,8.843872,-1.7347964,4.141976,0.07204556,0.2503278,0.048844445,9.918646881004266,0.2650289559468925,fall
10/07/2020, 21:02:12,8.819944,-1.8257236,4.211368,0.07204556,0.2503278,0.048844445,9.942852049296416,0.2650289559468925,fall
10/07/2020, 21:02:12,8.819944,-1.8257236,4.211368,0.08059334,0.26620224,0.051286668,9.942852049296416,0.28282369411136093,fall
10/07/2020, 21:02:12,8.829515,-1.847259,4.194618,0.08059334,0.26620224,0.051286668,9.948242620707527,0.28282369411136093,fall
10/07/2020, 21:02:12,8.829515,-1.847259,4.194618,0.07937223,0.28085557,0.054950003,9.948242620707527,0.29698367351433225,fall
10/07/2020, 21:02:12,8.772088,-1.7778672,4.1515474,0.07937223,0.28085557,0.054950003,9.866391773344299,0.29698367351433225,fall
10/07/2020, 21:02:12,8.772088,-1.7778672,4.1515474,0.07204556,0.2955089,0.05250778,9.866391773344299,0.3086634642908344,fall
10/07/2020, 21:02:12,8.717052,-1.7467605,4.2448673,0.07204556,0.2955089,0.05250778,9.85175488893958,0.3086634642908344,fall
10/07/2020, 21:02:12,8.717052,-1.7467605,4.2448673,0.06960334,0.3174889,0.06105556,9.85175488893958,0.330713793685495,fall
10/07/2020, 21:02:13,5.575277,-7.757531,9.573684,-1.064809,-1.5141778,-2.81344,13.524733716197584,3.367788242729191,fall
10/07/2020, 21:02:13,5.575277,-7.757531,9.573684,-0.9915423,-1.3993934,-2.810998,13.524733716197584,3.2928965422751073,fall
10/07/2020, 21:02:13,5.465207,-7.728817,9.62154,-0.9915423,-1.3993934,-2.810998,13.497300987970586,3.2928965422751073,fall
10/07/2020, 21:02:13,5.465207,-7.728817,9.62154,-0.8865267,-1.2894934,-2.8036711,13.497300987970586,3.2108090398796088,fall
10/07/2020, 21:02:13,5.3623157,-7.853244,9.585648,-0.8865267,-1.2894934,-2.8036711,13.50231488990093,3.2108090398796088,fall
10/07/2020, 21:02:13,5.3623157,-7.853244,9.585648,-0.75953114,-1.17593,-2.7951233,13.50231488990093,3.1260859634879536,fall
10/07/2020, 21:02:13,5.13739,-7.989635,9.547362,-0.75953114,-1.17593,-2.7951233,13.46770849533649,3.1260859634879536,fall
10/07/2020, 21:02:13,5.13739,-7.989635,9.547362,-0.63742,-1.0721356,-2.7658167,13.46770849533649,3.0340601320209917,fall
10/07/2020, 21:02:13,4.8502517,-7.9154572,9.482756,-0.63742,-1.0721356,-2.7658167,13.270345123232483,3.0340601320209917,fall
10/07/2020, 21:02:13,4.8502517,-7.9154572,9.482756,-0.52996224,-0.97811,-2.7267413,13.270345123232483,2.944940979527659,fall
10/07/2020, 21:02:13,4.5966125,-7.635497,9.32483,-0.52996224,-0.97811,-2.7267413,12.89891923637922,2.944940979527659,fall
10/07/2020, 21:02:13,4.5966125,-7.635497,9.32483,-0.4383789,-0.86821,-2.6864445,12.89891923637922,2.857087478388594,fall
10/07/2020, 21:02:13,4.469793,-7.4010005,9.169296,-0.4383789,-0.86821,-2.6864445,12.60277153819578,2.857087478388594,fall
10/07/2020, 21:02:13,4.469793,-7.4010005,9.169296,-0.39197668,-0.7338878,-2.614399,12.60277153819578,2.7435959823678626,fall
10/07/2020, 21:02:13,4.412365,-7.389036,8.937193,-0.39197668,-0.7338878,-2.614399,12.407265509353186,2.7435959823678626,fall
10/07/2020, 21:02:13,4.412365,-7.389036,8.937193,-0.37488112,-0.59590226,-2.5081623,12.407265509353186,2.6050937188866956,fall
10/07/2020, 21:02:13,4.3405805,-7.32443,8.700303,-0.37488112,-0.59590226,-2.5081623,12.173051674286778,2.6050937188866956,fall
10/07/2020, 21:02:13,4.3405805,-7.32443,8.700303,-0.34313223,-0.46524334,-2.3933778,12.173051674286778,2.462203950288781,fall
10/07/2020, 21:02:13,4.168297,-7.1042905,8.489735,-0.34313223,-0.46524334,-2.3933778,11.828830713625372,2.462203950288781,fall
10/07/2020, 21:02:13,4.168297,-7.1042905,8.489735,-0.31993112,-0.35168,-2.2676034,11.828830713625372,2.316907404046745,fall
10/07/2020, 21:02:14,8.513663,-0.50009996,4.627719,-0.17339778,-0.5287411,0.06105556,9.70300701167252,0.5597872315751232,fall
10/07/2020, 21:02:14,8.513663,-0.50009996,4.627719,-0.23689556,-0.47501224,0.17706113,9.70300701167252,0.5595594516587663,fall
10/07/2020, 21:02:14,8.693125,-0.32063824,4.45065,-0.23689556,-0.47501224,0.17706113,9.771464296838447,0.5595594516587663,fall
10/07/2020, 21:02:14,8.693125,-0.32063824,4.45065,-0.27108666,-0.4383789,0.2515489,9.771464296838447,0.5735336792883804,fall
10/07/2020, 21:02:14,8.664411,-0.6891329,4.316652,-0.27108666,-0.4383789,0.2515489,9.704658573600174,0.5735336792883804,fall
10/07/2020, 21:02:14,8.664411,-0.6891329,4.316652,-0.19049335,-0.42983112,0.3052778,9.704658573600174,0.5605684935333382,fall
10/07/2020, 21:02:14,8.597412,-1.0983056,4.465007,-0.19049335,-0.42983112,0.3052778,9.749772105486121,0.5605684935333382,fall
10/07/2020, 21:02:14,8.597412,-1.0983056,4.465007,-0.09280445,-0.4359367,0.3394689,9.749772105486121,0.5602611838324235,fall
10/07/2020, 21:02:14,8.807981,-1.2131611,4.558327,-0.09280445,-0.4359367,0.3394689,9.991527804730724,0.5602611838324235,fall
10/07/2020, 21:02:14,8.807981,-1.2131611,4.558327,-0.058613338,-0.4163989,0.34069002,9.991527804730724,0.5411961431162192,fall
10/07/2020, 21:02:14,9.178867,-1.2921243,4.6061835,-0.058613338,-0.4163989,0.34069002,10.350754440211862,0.5411961431162192,fall
10/07/2020, 21:02:14,9.178867,-1.2921243,4.6061835,-0.09646778,-0.36389112,0.3394689,10.350754440211862,0.5069141095673138,fall
10/07/2020, 21:02:14,9.449257,-1.6175481,4.4147577,-0.09646778,-0.36389112,0.3394689,10.554383145832514,0.5069141095673138,fall
10/07/2020, 21:02:14,9.449257,-1.6175481,4.4147577,-0.14531223,-0.30405667,0.29673,10.554383145832514,0.44901537453219864,fall
10/07/2020, 21:02:14,9.628718,-2.0003998,4.156333,-0.14531223,-0.30405667,0.29673,10.676559408059065,0.44901537453219864,fall
10/07/2020, 21:02:14,9.628718,-2.0003998,4.156333,-0.14164889,-0.23445335,0.25887558,10.676559408059065,0.37689434371568437,fall
10/07/2020, 21:02:14,9.466006,-1.8711873,3.7950168,-0.14164889,-0.23445335,0.25887558,10.368643553828896,0.37689434371568437,fall
10/07/2020, 21:02:14,9.466006,-1.8711873,3.7950168,-0.14653334,-0.19293556,0.21980001,10.368643553828896,0.3271210680602774,fall
10/07/2020, 21:02:14,8.872586,-1.4955142,3.8117664,-0.14653334,-0.19293556,0.21980001,9.771842832183793,0.3271210680602774,fall
10/07/2020, 21:02:14,8.872586,-1.4955142,3.8117664,-0.14653334,-0.21491556,0.18683001,9.771842832183793,0.32025953739419516,fall
10/07/2020, 21:02:15,10.688739,-1.1150553,8.372486,0.6191034,1.2052367,-0.12577444,13.62317913466062,1.3607731753277448,fall
10/07/2020, 21:02:15,10.688739,-1.1150553,8.372486,0.41762,1.2992623,-0.15630223,13.62317913466062,1.3736518261830268,fall
10/07/2020, 21:02:15,10.69831,-1.0624132,8.595019,0.41762,1.2992623,-0.15630223,13.764334854481334,1.3736518261830268,fall
10/07/2020, 21:02:15,10.69831,-1.0624132,8.595019,0.19415668,1.3713078,-0.19293556,13.764334854481334,1.398358381471281,fall
10/07/2020, 21:02:15,10.602597,-0.98584294,8.571091,0.19415668,1.3713078,-0.19293556,13.669328814115138,1.398358381471281,fall
10/07/2020, 21:02:15,10.602597,-0.98584294,8.571091,0.0048844446,1.4274789,-0.24788557,13.669328814115138,1.4488502857869423,fall
10/07/2020, 21:02:15,10.365707,-0.89013004,8.262417,0.0048844446,1.4274789,-0.24788557,13.285622054483554,1.4488502857869423,fall
10/07/2020, 21:02:15,10.365707,-0.89013004,8.262417,-0.11844778,1.4641123,-0.2515489,13.285622054483554,1.4902789982567572,fall
10/07/2020, 21:02:15,10.102497,-0.8662018,7.759924,-0.11844778,1.4641123,-0.2515489,12.768209456997834,1.4902789982567572,fall
10/07/2020, 21:02:15,10.102497,-0.8662018,7.759924,-0.14164889,1.449459,-0.23567446,12.768209456997834,1.4753095010702657,fall
10/07/2020, 21:02:15,9.9038925,-0.89013004,7.0803623,-0.14164889,1.449459,-0.23567446,12.207004098683985,1.4753095010702657,fall
10/07/2020, 21:02:15,9.9038925,-0.89013004,7.0803623,-0.14531223,1.3822979,-0.23811668,12.207004098683985,1.4101640368020183,fall
10/07/2020, 21:02:15,9.762716,-0.87338024,6.4414787,-0.14531223,1.3822979,-0.23811668,11.728856325052543,1.4101640368020183,fall
10/07/2020, 21:02:15,9.762716,-0.87338024,6.4414787,-0.21125223,1.28583,-0.24544334,11.728856325052543,1.3259821949870172,fall
10/07/2020, 21:02:15,9.812965,-0.6221339,5.960521,-0.21125223,1.28583,-0.24544334,11.498223933991559,1.3259821949870172,fall
10/07/2020, 21:02:15,9.812965,-0.6221339,5.960521,-0.30405667,1.24187,-0.23933779,11.498223933991559,1.300759104432834,fall
10/07/2020, 21:02:15,9.997213,-0.2009971,5.7020965,-0.30405667,1.24187,-0.23933779,11.510802706024098,1.300759104432834,fall
10/07/2020, 21:02:15,9.997213,-0.2009971,5.7020965,-0.3504589,1.2125634,-0.21247335,11.510802706024098,1.2799516964889983,fall
10/07/2020, 21:02:15,10.315458,0.076570325,5.879165,-0.3504589,1.2125634,-0.21247335,11.873463101944889,1.2799516964889983,fall
10/07/2020, 21:02:15,10.315458,0.076570325,5.879165,-0.37366003,1.1954678,-0.15386,11.873463101944889,1.2619184002211081,fall
10/07/2020, 21:02:16,-1.7228323,-7.1425757,7.6737823,0.8547778,2.1699145,2.49473,10.624098783313334,3.4150917599802404,fall
10/07/2020, 21:02:16,-1.8137596,-7.6331043,8.1020975,0.8547778,2.1699145,2.49473,11.278208610841416,3.4150917599802404,fall
10/07/2020, 21:02:16,-1.8137596,-7.6331043,8.1020975,1.0330601,2.20899,2.6437056,11.278208610841416,3.596669250663191,fall
10/07/2020, 21:02:16,-1.8137596,-8.322237,8.693125,1.0330601,2.20899,2.6437056,12.170446621926226,3.596669250663191,fall
10/07/2020, 21:02:16,-1.8137596,-8.322237,8.693125,1.1637189,2.262719,2.8171034,12.170446621926226,3.7960782589571633,fall
10/07/2020, 21:02:16,-1.6271194,-8.903693,9.200403,1.1637189,2.262719,2.8171034,12.906226771951683,3.7960782589571633,fall
10/07/2020, 21:02:16,-1.6271194,-8.903693,9.200403,1.2455333,2.306679,2.977069,12.906226771951683,3.966744334774108,fall
10/07/2020, 21:02:16,-1.2562319,-9.193225,9.375079,1.2455333,2.306679,2.977069,13.190360569289325,3.966744334774108,fall
10/07/2020, 21:02:16,-1.2562319,-9.193225,9.375079,1.3041468,2.3469756,3.0808635,13.190360569289325,4.086662800870156,fall
10/07/2020, 21:02:16,-0.9092726,-9.23151,9.336794,1.3041468,2.3469756,3.0808635,13.161431414607717,4.086662800870156,fall
10/07/2020, 21:02:16,-0.9092726,-9.23151,9.336794,1.3273479,2.4019256,3.1541302,13.161431414607717,4.180865489552826,fall
10/07/2020, 21:02:16,-0.61016977,-9.016156,9.068798,1.3273479,2.4019256,3.1541302,12.802596535651894,4.180865489552826,fall
10/07/2020, 21:02:16,-0.61016977,-9.016156,9.068798,1.3456645,2.4654233,3.2249546,12.802596535651894,4.276617521780074,fall
10/07/2020, 21:02:16,-0.5288138,-8.678768,8.729017,1.3456645,2.4654233,3.2249546,12.320568292002399,4.276617521780074,fall
10/07/2020, 21:02:16,-0.5288138,-8.678768,8.729017,1.3798556,2.504499,3.2933369,12.320568292002399,4.3614887743635755,fall
10/07/2020, 21:02:16,-0.6149554,-8.353344,8.250452,1.3798556,2.504499,3.2933369,11.75697599048444,4.3614887743635755,fall
10/07/2020, 21:02:16,-0.6149554,-8.353344,8.250452,1.4543434,2.515489,3.3226435,11.75697599048444,4.413927979258534,fall
10/07/2020, 21:02:16,-0.7968099,-7.9633136,7.9298143,1.4543434,2.515489,3.3226435,11.26637584353644,4.413927979258534,fall
10/07/2020, 21:02:16,-0.7968099,-7.9633136,7.9298143,1.5740123,2.4849613,3.2872312,11.26637584353644,4.41117174721394,fall
10/07/2020, 21:02:16,-0.9762716,-7.554141,7.5924263,1.5740123,2.4849613,3.2872312,10.754677602693503,4.41117174721394,fall
10/07/2020, 21:02:17,8.006385,-2.5722845,4.7952166,0.0048844446,0.06594,-0.0048844446,9.680544796826787,0.06630082363247296,fall
10/07/2020, 21:02:17,8.176275,-2.7637103,4.87418,0.0048844446,0.06594,-0.0048844446,9.911972585442815,0.06630082363247296,fall
10/07/2020, 21:02:17,8.176275,-2.7637103,4.87418,0.026864445,0.06349778,-0.023201112,9.911972585442815,0.07274584708645347,fall
10/07/2020, 21:02:17,8.362915,-2.7732813,4.8215375,0.026864445,0.06349778,-0.023201112,10.043737408487504,0.07274584708645347,fall
10/07/2020, 21:02:17,8.362915,-2.7732813,4.8215375,0.03297,0.06105556,-0.015874445,10.043737408487504,0.07118146028166357,fall
10/07/2020, 21:02:17,8.391629,-2.658426,4.8358946,0.03297,0.06105556,-0.015874445,10.043532567181215,0.07118146028166357,fall
10/07/2020, 21:02:17,8.391629,-2.658426,4.8358946,0.014653334,0.078151114,-0.0048844446,10.043532567181215,0.07966288139604194,fall
10/07/2020, 21:02:17,8.372486,-2.617748,4.7569313,0.014653334,0.078151114,-0.0048844446,9.978954047617798,0.07966288139604194,fall
10/07/2020, 21:02:17,8.372486,-2.617748,4.7569313,0.01099,0.08303556,-0.013432222,9.978954047617798,0.08482988079368688,fall
10/07/2020, 21:02:17,8.2145605,-2.6129622,4.7425747,0.01099,0.08303556,-0.013432222,9.8386274834099,0.08482988079368688,fall
10/07/2020, 21:02:17,8.2145605,-2.6129622,4.7425747,0.028085556,0.09036223,-0.0024422223,9.8386274834099,0.09465777955375676,fall
10/07/2020, 21:02:17,8.1738825,-2.6799614,4.7688956,0.028085556,0.09036223,-0.0024422223,9.835492549810937,0.09465777955375676,fall
10/07/2020, 21:02:17,8.1738825,-2.6799614,4.7688956,0.035412222,0.098910004,-0.012211111,9.835492549810937,0.10576542719614561,fall
10/07/2020, 21:02:17,8.250452,-2.7086751,4.814359,0.035412222,0.098910004,-0.012211111,9.928994628366688,0.10576542719614561,fall
10/07/2020, 21:02:17,8.250452,-2.7086751,4.814359,0.039075557,0.11356334,-0.019537779,9.928994628366688,0.12167684799935731,fall
10/07/2020, 21:02:17,8.365308,-2.684747,4.7856455,0.039075557,0.11356334,-0.019537779,10.00443120716338,0.12167684799935731,fall
10/07/2020, 21:02:17,8.365308,-2.684747,4.7856455,0.026864445,0.13554333,-0.009768889,10.00443120716338,0.1385248147785843,fall
10/07/2020, 21:02:17,8.331808,-2.6249263,4.7449675,0.026864445,0.13554333,-0.009768889,9.941025122462735,0.1385248147785843,fall
10/07/2020, 21:02:17,8.331808,-2.6249263,4.7449675,0.026864445,0.15386,-0.0048844446,9.941025122462735,0.15626406062809323,fall
10/07/2020, 21:02:17,8.319844,-2.656033,4.7545385,0.026864445,0.15386,-0.0048844446,9.943840127031292,0.15626406062809323,fall
10/07/2020, 21:02:18,7.881958,-2.6368906,5.84088,-1.2662922,0.5324045,0.7717422,10.158461130624257,1.5756067296284386,fall
10/07/2020, 21:02:18,7.881958,-2.6368906,5.84088,-1.350549,0.61299783,0.75953114,10.158461130624257,1.6663242322738612,fall
10/07/2020, 21:02:18,7.877172,-2.684747,6.3218374,-1.350549,0.61299783,0.75953114,10.450996765504952,1.6663242322738612,fall
10/07/2020, 21:02:18,7.877172,-2.684747,6.3218374,-1.4189311,0.7216767,0.7558678,10.450996765504952,1.7622482548005127,fall
10/07/2020, 21:02:18,7.5230346,-2.8522446,6.771688,-1.4189311,0.7216767,0.7558678,10.516040447168544,1.7622482548005127,fall
10/07/2020, 21:02:18,7.5230346,-2.8522446,6.771688,-1.3652023,0.7680789,0.72778225,10.516040447168544,1.7272491354379165,fall
10/07/2020, 21:02:18,6.9990063,-3.3092737,7.1210403,-1.3652023,0.7680789,0.72778225,10.518868614224392,1.7272491354379165,fall
10/07/2020, 21:02:18,6.9990063,-3.3092737,7.1210403,-1.2040156,0.7216767,0.67039,10.518868614224392,1.5556007297985448,fall
10/07/2020, 21:02:18,6.4151573,-3.8141594,7.408179,-1.2040156,0.7216767,0.67039,10.515853199808948,1.5556007297985448,fall
10/07/2020, 21:02:18,6.4151573,-3.8141594,7.408179,-1.0086378,0.61788225,0.5885756,10.515853199808948,1.3211926047915465,fall
10/07/2020, 21:02:18,5.9724855,-4.15394,7.664211,-1.0086378,0.61788225,0.5885756,10.567210127361118,1.3211926047915465,fall
10/07/2020, 21:02:18,5.9724855,-4.15394,7.664211,-0.8621045,0.5153089,0.49577114,10.567210127361118,1.120069832326327,fall
10/07/2020, 21:02:18,5.74756,-4.220939,7.9346,-0.8621045,0.5153089,0.49577114,10.668113648551735,1.120069832326327,fall
10/07/2020, 21:02:18,5.74756,-4.220939,7.9346,-0.8266923,0.45547447,0.4273889,10.668113648551735,1.0361169806844341,fall
10/07/2020, 21:02:18,5.7188463,-4.06062,8.063812,-0.8266923,0.45547447,0.4273889,10.687324490010464,1.0361169806844341,fall
10/07/2020, 21:02:18,5.7188463,-4.06062,8.063812,-0.88896894,0.47867557,0.39686114,10.687324490010464,1.0848478468497174,fall
10/07/2020, 21:02:18,5.871987,-4.0151563,8.116454,-0.88896894,0.47867557,0.39686114,10.792522280442029,1.0848478468497174,fall
10/07/2020, 21:02:18,5.871987,-4.0151563,8.116454,-1.0074167,0.5458367,0.39197668,10.792522280442029,1.2109797141820768,fall
10/07/2020, 21:02:18,6.0011992,-4.2352962,8.092526,-1.0074167,0.5458367,0.39197668,10.928911694157042,1.2109797141820768,fall
10/07/2020, 21:02:18,6.0011992,-4.2352962,8.092526,-1.1038845,0.5885756,0.40052447,10.928911694157042,1.3135455779806988,fall
10/07/2020, 21:02:19,14.062618,4.8191447,2.7493532,-3.3092113,0.05617111,-1.1246433,15.11755042812575,3.4955481585109776,fall
10/07/2020, 21:02:19,14.062618,4.8191447,2.7493532,-3.3971312,0.6459678,1.1454023,15.11755042812575,3.642762859845223,fall
10/07/2020, 21:02:19,-2.1559331,2.6799614,9.109476,-3.3971312,0.6459678,1.1454023,9.737186229705385,3.642762859845223,fall
10/07/2020, 21:02:19,-2.1559331,2.6799614,9.109476,-2.73651,-0.3492378,-0.11234222,9.737186229705385,2.7609916707623157,fall
10/07/2020, 21:02:19,-3.8524444,-6.013163,11.07159,-2.73651,-0.3492378,-0.11234222,13.174960067726664,2.7609916707623157,fall
10/07/2020, 21:02:19,-3.8524444,-6.013163,11.07159,-0.8071545,-1.790149,-0.5702589,13.174960067726664,2.044829314877608,fall
10/07/2020, 21:02:19,3.1322048,-11.801401,9.164511,-0.8071545,-1.790149,-0.5702589,15.266696840473747,2.044829314877608,fall
10/07/2020, 21:02:19,3.1322048,-11.801401,9.164511,0.9964267,-2.0453613,0.5580478,15.266696840473747,2.3426024533211565,fall
10/07/2020, 21:02:19,10.4016,-6.4869423,8.13799,0.9964267,-2.0453613,0.5580478,14.713958734582098,2.3426024533211565,fall
10/07/2020, 21:02:19,10.4016,-6.4869423,8.13799,1.17593,-1.5031879,1.0013112,14.713958734582098,2.1552283757729156,fall
10/07/2020, 21:02:19,13.490734,-1.442872,8.047063,1.17593,-1.5031879,1.0013112,15.7745683683232,2.1552283757729156,fall
10/07/2020, 21:02:19,13.490734,-1.442872,8.047063,0.26620224,-0.9854367,0.8413456,15.7745683683232,1.3228044118163989,fall
10/07/2020, 21:02:19,11.928221,-0.6843473,6.879365,0.26620224,-0.9854367,0.8413456,13.78682138047253,1.3228044118163989,fall
10/07/2020, 21:02:19,11.928221,-0.6843473,6.879365,-0.27841336,-0.8743156,0.48111778,13.78682138047253,1.0360579722706513,fall
10/07/2020, 21:02:19,8.73141,-1.3854443,5.4628143,-0.27841336,-0.8743156,0.48111778,10.392272000383837,1.0360579722706513,fall
10/07/2020, 21:02:19,8.73141,-1.3854443,5.4628143,-0.16118668,-1.1222012,0.23079,10.392272000383837,1.1569704900357747,fall
10/07/2020, 21:02:19,6.518049,-2.5698915,5.0177493,-0.16118668,-1.1222012,0.23079,8.617836729303898,1.1569704900357747,fall
10/07/2020, 21:02:19,6.518049,-2.5698915,5.0177493,0.068382226,-1.3151367,0.109900005,8.617836729303898,1.3214910531445527,fall
10/07/2020, 21:02:19,6.45105,-3.507878,5.3647084,0.068382226,-1.3151367,0.109900005,9.094028181869334,1.3214910531445527,fall
10/07/2020, 21:02:19,6.45105,-3.507878,5.3647084,0.18438779,-1.3676445,-0.07326667,9.094028181869334,1.381961820091173,fall
10/07/2020, 21:02:20,8.489735,-3.6610186,4.8693943,0.07326667,0.46402225,0.012211111,10.449385271694858,0.4699295306120708,fall
10/07/2020, 21:02:20,8.489735,-3.6610186,4.8693943,0.11478445,0.48722336,0.029306669,10.449385271694858,0.5014189368332808,fall
10/07/2020, 21:02:20,8.659625,-3.3882368,4.76411,0.11478445,0.48722336,0.029306669,10.448253411393626,0.5014189368332808,fall
10/07/2020, 21:02:20,8.659625,-3.3882368,4.76411,0.09280445,0.5336256,0.06594,10.448253411393626,0.5456345231424696,fall
10/07/2020, 21:02:20,8.592627,-3.0580273,4.6875396,0.09280445,0.5336256,0.06594,10.254647212795822,0.5456345231424696,fall
10/07/2020, 21:02:20,8.592627,-3.0580273,4.6875396,0.047623336,0.58124894,0.07693,10.254647212795822,0.5882487028509525,fall
10/07/2020, 21:02:20,8.396415,-3.0317063,4.6707897,0.047623336,0.58124894,0.07693,10.075083158661897,0.5882487028509525,fall
10/07/2020, 21:02:20,8.396415,-3.0317063,4.6707897,0.03297,0.61544,0.07693,10.075083158661897,0.6211051868932395,fall
10/07/2020, 21:02:20,8.185846,-3.2087753,4.6636114,0.03297,0.61544,0.07693,9.952567022131994,0.6211051868932395,fall
10/07/2020, 21:02:20,8.185846,-3.2087753,4.6636114,0.057392225,0.6386411,0.06227667,9.952567022131994,0.6442318913379881,fall
10/07/2020, 21:02:20,7.881958,-3.1728828,4.6325045,0.057392225,0.6386411,0.06227667,9.677424495772325,0.6442318913379881,fall
10/07/2020, 21:02:20,7.881958,-3.1728828,4.6325045,0.10135223,0.62765115,0.068382226,9.677424495772325,0.6394484933580095,fall
10/07/2020, 21:02:20,7.585248,-3.0939198,4.7808595,0.10135223,0.62765115,0.068382226,9.484985178807488,0.6394484933580095,fall
10/07/2020, 21:02:20,7.585248,-3.0939198,4.7808595,0.1306589,0.60445005,0.036633335,9.484985178807488,0.6194946386849658,fall
10/07/2020, 21:02:20,7.7407813,-3.2542388,4.981857,0.1306589,0.60445005,0.036633335,9.763639849155927,0.6194946386849658,fall
10/07/2020, 21:02:20,7.7407813,-3.2542388,4.981857,0.15630223,0.6007867,0.0048844446,9.763639849155927,0.6208050309577963,fall
10/07/2020, 21:02:20,8.054241,-3.4983068,5.1421757,0.15630223,0.6007867,0.0048844446,10.175997336134124,0.6208050309577963,fall
10/07/2020, 21:02:20,8.054241,-3.4983068,5.1421757,0.19782001,0.6056711,0.023201112,10.175997336134124,0.637580220722741,fall
10/07/2020, 21:02:20,8.267202,-3.4576287,5.2402816,0.19782001,0.6056711,0.023201112,10.3808661786204,0.637580220722741,fall
10/07/2020, 21:02:20,8.267202,-3.4576287,5.2402816,0.20636779,0.6386411,0.054950003,10.3808661786204,0.6734015493770482,fall
10/07/2020, 21:02:21,1.5457634,-4.505685,8.348558,0.3260367,0.21613668,0.16851334,9.611920109329809,0.4259245649469628,fall
10/07/2020, 21:02:21,1.5960127,-4.505685,8.456235,0.3260367,0.21613668,0.16851334,9.713720285789561,0.4259245649469628,fall
10/07/2020, 21:02:21,1.5960127,-4.505685,8.456235,0.27963445,0.22102112,0.16240779,9.713720285789561,0.39169126336774357,fall
10/07/2020, 21:02:21,1.6342978,-4.642076,8.669196,0.27963445,0.22102112,0.16240779,9.968689016563923,0.39169126336774357,fall
10/07/2020, 21:02:21,1.6342978,-4.642076,8.669196,0.29184556,0.19049335,0.14531223,9.968689016563923,0.37759395002324037,fall
10/07/2020, 21:02:21,1.7300107,-4.790431,8.831908,0.29184556,0.19049335,0.14531223,10.195281726529794,0.37759395002324037,fall
10/07/2020, 21:02:21,1.7300107,-4.790431,8.831908,0.32970002,0.14531223,0.13432223,10.195281726529794,0.3845259563475816,fall
10/07/2020, 21:02:21,1.9334008,-4.871787,8.95155,0.32970002,0.14531223,0.13432223,10.373166667738081,0.3845259563475816,fall
10/07/2020, 21:02:21,1.9334008,-4.871787,8.95155,0.3492378,0.10745778,0.11478445,10.373166667738081,0.3830008940628335,fall
10/07/2020, 21:02:21,2.1248264,-4.871787,8.970692,0.3492378,0.10745778,0.11478445,10.427008481071768,0.3830008940628335,fall
10/07/2020, 21:02:21,2.1248264,-4.871787,8.970692,0.31504667,0.08792,0.098910004,10.427008481071768,0.3417126260277592,fall
10/07/2020, 21:02:21,2.3042881,-4.7880383,8.908479,0.31504667,0.08792,0.098910004,10.372851469011161,0.3417126260277592,fall
10/07/2020, 21:02:21,2.3042881,-4.7880383,8.908479,0.24544334,0.09280445,0.102573335,10.372851469011161,0.2817381578840629,fall
10/07/2020, 21:02:21,2.400001,-4.752146,8.867801,0.24544334,0.09280445,0.102573335,10.343151546137308,0.2817381578840629,fall
10/07/2020, 21:02:21,2.400001,-4.752146,8.867801,0.16607112,0.10379445,0.12943779,10.343151546137308,0.23474889697828893,fall
10/07/2020, 21:02:21,2.4382863,-4.7138605,8.822337,0.16607112,0.10379445,0.12943779,10.295598759931112,0.23474889697828893,fall
10/07/2020, 21:02:21,2.4382863,-4.7138605,8.822337,0.102573335,0.109900005,0.1526389,10.295598759931112,0.21423802928400507,fall
10/07/2020, 21:02:21,2.428715,-4.7425747,8.863015,0.102573335,0.109900005,0.1526389,10.34135915644471,0.21423802928400507,fall
10/07/2020, 21:02:21,2.428715,-4.7425747,8.863015,0.078151114,0.09402556,0.16118668,10.34135915644471,0.202310524734728,fall
10/07/2020, 21:02:21,2.3665016,-4.7784667,8.9108715,0.078151114,0.09402556,0.16118668,10.384493472904541,0.202310524734728,fall
10/07/2020, 21:02:22,23.088346,-19.982462,10.193424,2.6644645,-4.210391,-0.7754056,32.191247652525625,5.04262010295884,fall
10/07/2020, 21:02:22,33.46123,-20.575882,24.433111,2.6644645,-4.210391,-0.7754056,46.260110639213316,5.04262010295884,fall
10/07/2020, 21:02:22,33.46123,-20.575882,24.433111,-0.13554333,-1.2614079,-0.44082114,46.260110639213316,1.3430729848355443,fall
10/07/2020, 21:02:22,50.435917,-2.2827528,32.94199,-0.13554333,-1.2614079,-0.44082114,60.28405570481079,1.3430729848355443,fall
10/07/2020, 21:02:22,50.435917,-2.2827528,32.94199,-1.812129,0.42861003,-1.691239,60.28405570481079,2.5155133662364033,fall
10/07/2020, 21:02:22,44.001617,0.6029913,24.44029,-1.812129,0.42861003,-1.691239,50.337200283879895,2.5155133662364033,fall
10/07/2020, 21:02:22,44.001617,0.6029913,24.44029,-2.680339,1.1063267,0.051286668,50.337200283879895,2.9001390945785928,fall
10/07/2020, 21:02:22,32.197823,-1.2227324,9.29133,-2.680339,1.1063267,0.051286668,33.53391823697718,2.9001390945785928,fall
10/07/2020, 21:02:22,32.197823,-1.2227324,9.29133,-2.2444024,0.8401245,0.6887067,33.53391823697718,2.4934851593744414,fall
10/07/2020, 21:02:22,22.52364,5.204389,2.8594232,-2.2444024,0.8401245,0.6887067,23.29326750487897,2.4934851593744414,fall
10/07/2020, 21:02:22,22.52364,5.204389,2.8594232,-1.5801178,0.6227667,0.6874856,23.29326750487897,1.83227920276872,fall
10/07/2020, 21:02:22,11.691332,8.097312,7.140183,-1.5801178,0.6227667,0.6874856,15.913387911144673,1.83227920276872,fall
10/07/2020, 21:02:22,11.691332,8.097312,7.140183,-2.7181935,0.85111445,1.5850023,15.913387911144673,3.259632522736667,fall
10/07/2020, 21:02:22,7.350751,4.5272202,12.713067,-2.7181935,0.85111445,1.5850023,15.367216281987172,3.259632522736667,fall
10/07/2020, 21:02:22,7.350751,4.5272202,12.713067,-2.6986556,0.48111778,0.39686114,15.367216281987172,2.7697861217719755,fall
10/07/2020, 21:02:22,8.554341,-6.0490556,12.892529,-2.6986556,0.48111778,0.39686114,16.612799906043733,2.7697861217719755,fall
10/07/2020, 21:02:22,8.554341,-6.0490556,12.892529,-1.3615389,-0.21369445,0.36511225,16.612799906043733,1.4257490703953122,fall
10/07/2020, 21:02:22,8.817552,-11.093125,9.777073,-1.3615389,-0.21369445,0.36511225,17.21620750766311,1.4257490703953122,fall
10/07/2020, 21:02:22,8.817552,-11.093125,9.777073,-0.12699556,-0.58124894,1.2064579,17.21620750766311,1.3451835391921012,fall
10/07/2020, 21:02:22,9.717253,-6.017949,8.1738825,-0.12699556,-0.58124894,1.2064579,14.051799419854872,1.3451835391921012,fall
10/07/2020, 21:02:23,7.9393854,-2.9766715,5.8911295,0.3394689,0.6337567,-0.037854444,10.324718903212137,0.719944193519038,fall
10/07/2020, 21:02:23,7.987242,-2.6775684,5.864808,0.3394689,0.6337567,-0.037854444,10.264569395908099,0.719944193519038,fall
10/07/2020, 21:02:23,7.987242,-2.6775684,5.864808,0.31504667,0.65940005,-0.03174889,10.264569395908099,0.7314853488749055,fall
10/07/2020, 21:02:23,7.853244,-2.5627131,5.9988065,0.31504667,0.65940005,-0.03174889,10.209143765887548,0.7314853488749055,fall
10/07/2020, 21:02:23,7.853244,-2.5627131,5.9988065,0.29062447,0.6655056,-0.047623336,10.209143765887548,0.7277556266884954,fall
10/07/2020, 21:02:23,7.82453,-2.5842485,5.9437714,0.29062447,0.6655056,-0.047623336,10.16021801980756,0.7277556266884954,fall
10/07/2020, 21:02:23,7.82453,-2.5842485,5.9437714,0.29917222,0.68626446,-0.07570889,10.16021801980756,0.7524591398946768,fall
10/07/2020, 21:02:23,7.515856,-2.6273193,6.0155563,0.29917222,0.68626446,-0.07570889,9.97886833071634,0.7524591398946768,fall
10/07/2020, 21:02:23,7.515856,-2.6273193,6.0155563,0.31993112,0.62154555,-0.06960334,9.97886833071634,0.702509374193108,fall
10/07/2020, 21:02:23,7.372287,-2.6751757,6.2979093,0.31993112,0.62154555,-0.06960334,10.058371563219922,0.702509374193108,fall
10/07/2020, 21:02:23,7.372287,-2.6751757,6.2979093,0.3394689,0.57270116,-0.12821667,10.058371563219922,0.6779861798436784,fall
10/07/2020, 21:02:23,7.63789,-2.7948167,6.3481584,0.3394689,0.57270116,-0.12821667,10.317338642806451,0.6779861798436784,fall
10/07/2020, 21:02:23,7.63789,-2.7948167,6.3481584,0.37610224,0.56171113,-0.17950334,10.317338642806451,0.6994238617154493,fall
10/07/2020, 21:02:23,7.769495,-2.9359934,6.5539412,0.37610224,0.56171113,-0.17950334,10.580134973681568,0.6994238617154493,fall
10/07/2020, 21:02:23,7.769495,-2.9359934,6.5539412,0.41884112,0.52019334,-0.16729222,10.580134973681568,0.688487969234944,fall
10/07/2020, 21:02:23,7.9226356,-2.9718857,6.8219376,0.41884112,0.52019334,-0.16729222,10.869180775481047,0.688487969234944,fall
10/07/2020, 21:02:23,7.9226356,-2.9718857,6.8219376,0.48111778,0.5018767,-0.23689556,10.869180775481047,0.7344889814277675,fall
10/07/2020, 21:02:23,7.989635,-3.0077782,6.896115,0.48111778,0.5018767,-0.23689556,10.97439731770731,0.7344889814277675,fall
10/07/2020, 21:02:23,7.989635,-3.0077782,6.896115,0.57148004,0.48111778,-0.2820767,10.97439731770731,0.7985180094733565,fall
10/07/2020, 21:02:23,7.728817,-3.0556345,6.987042,0.57148004,0.48111778,-0.2820767,10.857728556544739,0.7985180094733565,fall
10/07/2020, 21:02:24,-4.1228333,-2.6321049,6.9391856,0.36511225,1.2430911,0.72411895,8.489877923103094,1.4842273077883663,fall
10/07/2020, 21:02:24,-4.165904,-2.251646,6.884151,0.36511225,1.2430911,0.72411895,8.35560896359616,1.4842273077883663,fall
10/07/2020, 21:02:24,-4.165904,-2.251646,6.884151,0.31016225,1.2369856,0.7338878,8.35560896359616,1.4713684772386681,fall
10/07/2020, 21:02:24,-4.1036906,-2.0554347,6.908079,0.31016225,1.2369856,0.7338878,8.293771522476685,1.4713684772386681,fall
10/07/2020, 21:02:24,-4.1036906,-2.0554347,6.908079,0.18438779,1.2491968,0.74609894,8.293771522476685,1.4666816433151648,fall
10/07/2020, 21:02:24,-4.0558343,-2.07697,6.802795,0.18438779,1.2491968,0.74609894,8.187894449612715,1.4666816433151648,fall
10/07/2020, 21:02:24,-4.0558343,-2.07697,6.802795,0.06227667,1.2650712,0.75098336,8.187894449612715,1.4725010731380304,fall
10/07/2020, 21:02:24,-4.0797625,-2.1487548,6.5682983,0.06227667,1.2650712,0.75098336,8.025219756675058,1.4725010731380304,fall
10/07/2020, 21:02:24,-4.0797625,-2.1487548,6.5682983,0.051286668,1.2711767,0.73755115,8.025219756675058,1.470544870833719,fall
10/07/2020, 21:02:24,-4.2568316,-2.2660031,6.0921264,0.051286668,1.2711767,0.73755115,7.769774099508382,1.470544870833719,fall
10/07/2020, 21:02:24,-4.2568316,-2.2660031,6.0921264,0.16851334,1.2089001,0.69603336,7.769774099508382,1.4050973703910137,fall
10/07/2020, 21:02:24,-4.5248275,-2.388037,5.65424,0.16851334,1.2089001,0.69603336,7.625432167585061,1.4050973703910137,fall
10/07/2020, 21:02:24,-4.5248275,-2.388037,5.65424,0.3284789,1.0928944,0.6447467,7.625432167585061,1.310730700528601,fall
10/07/2020, 21:02:24,-4.792824,-2.388037,5.424529,0.3284789,1.0928944,0.6447467,7.622295988821849,1.310730700528601,fall
10/07/2020, 21:02:24,-4.792824,-2.388037,5.424529,0.46646446,0.97933114,0.61788225,7.622295988821849,1.2483817696561625,fall
10/07/2020, 21:02:24,-4.95075,-2.2157538,5.424529,0.46646446,0.97933114,0.61788225,7.671049790132566,1.2483817696561625,fall
10/07/2020, 21:02:24,-4.95075,-2.2157538,5.424529,0.53973114,0.89019006,0.59346,7.671049790132566,1.198308332532787,fall
10/07/2020, 21:02:24,-4.900501,-1.9190438,5.6733823,0.53973114,0.89019006,0.59346,7.738533671666302,1.198308332532787,fall
10/07/2020, 21:02:24,-4.900501,-1.9190438,5.6733823,0.52019334,0.8437878,0.57270116,7.738533671666302,1.144799352288603,fall
10/07/2020, 21:02:24,-4.8215375,-1.5960127,5.8863435,0.52019334,0.8437878,0.57270116,7.774543069683524,1.144799352288603,fall
10/07/2020, 21:02:25,0.36131623,-7.2789664,10.523634,-0.20636779,0.05617111,0.045181114,12.800811432212905,0.21859595585779154,fall
10/07/2020, 21:02:25,0.24885355,-7.30768,9.954143,-0.20636779,0.05617111,0.045181114,12.351075713687887,0.21859595585779154,fall
10/07/2020, 21:02:25,0.24885355,-7.30768,9.954143,-0.12089001,0.10135223,0.11844778,12.351075713687887,0.19727276763978385,fall
10/07/2020, 21:02:25,-0.059820566,-6.5443697,8.889337,-0.12089001,0.10135223,0.11844778,11.038689151244846,0.19727276763978385,fall
10/07/2020, 21:02:25,-0.059820566,-6.5443697,8.889337,-0.05617111,0.11600556,0.11112112,11.038689151244846,0.17017751658033325,fall
10/07/2020, 21:02:25,-0.37088752,-5.2139606,7.513463,-0.05617111,0.11600556,0.11112112,9.152872212769426,0.17017751658033325,fall
10/07/2020, 21:02:25,-0.37088752,-5.2139606,7.513463,-0.0024422223,0.068382226,0.047623336,9.152872212769426,0.08336711242983995,fall
10/07/2020, 21:02:25,-0.83030945,-4.1084766,6.769295,-0.0024422223,0.068382226,0.047623336,7.961931410867006,0.08336711242983995,fall
10/07/2020, 21:02:25,-0.83030945,-4.1084766,6.769295,-0.035412222,-0.064718895,-0.08303556,7.961931410867006,0.11107414088157946,fall
10/07/2020, 21:02:25,-1.0169497,-4.063013,7.125826,-0.035412222,-0.064718895,-0.08303556,8.265570540506868,0.11107414088157946,fall
10/07/2020, 21:02:25,-1.0169497,-4.063013,7.125826,-0.085477784,-0.19904111,-0.19171445,8.265570540506868,0.28927192567754423,fall
10/07/2020, 21:02:25,-0.7704889,-4.9698925,7.9393854,-0.085477784,-0.19904111,-0.19171445,9.398261828989934,0.28927192567754423,fall
10/07/2020, 21:02:25,-0.7704889,-4.9698925,7.9393854,-0.10135223,-0.21613668,-0.18683001,9.398261828989934,0.30313824012803986,fall
10/07/2020, 21:02:25,-0.2105684,-6.06102,8.865408,-0.10135223,-0.21613668,-0.18683001,10.741310872348231,0.30313824012803986,fall
10/07/2020, 21:02:25,-0.2105684,-6.06102,8.865408,-0.07326667,-0.11356334,-0.10379445,10.741310872348231,0.1704051753380874,fall
10/07/2020, 21:02:25,0.22971097,-6.8315086,9.506684,-0.07326667,-0.11356334,-0.10379445,11.70894204531684,0.1704051753380874,fall
10/07/2020, 21:02:25,0.22971097,-6.8315086,9.506684,-0.036633335,0.013432222,0.01099,11.70894204531684,0.04053647670338389,fall
10/07/2020, 21:02:25,0.29192436,-7.0612197,9.626326,-0.036633335,0.013432222,0.01099,11.942034502970905,0.04053647670338389,fall
10/07/2020, 21:02:25,0.29192436,-7.0612197,9.626326,0.0048844446,0.081814446,0.089141116,11.942034502970905,0.12109335151774782,fall
10/07/2020, 21:02:25,0.14356937,-6.5659056,9.188439,0.0048844446,0.081814446,0.089141116,11.294208523450417,0.12109335151774782,fall
10/07/2020, 21:02:26,5.54417,-4.082155,8.123632,0.4359367,-0.9536878,-0.28085557,10.648718941184338,1.0855602431120834,fall
10/07/2020, 21:02:26,4.558327,-3.1513474,7.1425757,0.4359367,-0.9536878,-0.28085557,9.040228176612192,1.0855602431120834,fall
10/07/2020, 21:02:26,4.558327,-3.1513474,7.1425757,0.42372558,-0.96223557,-0.34069002,9.040228176612192,1.1052195902539912,fall
10/07/2020, 21:02:26,3.5964124,-2.565106,6.352944,0.42372558,-0.96223557,-0.34069002,7.737819254401688,1.1052195902539912,fall
10/07/2020, 21:02:26,3.5964124,-2.565106,6.352944,0.48600224,-1.0928944,-0.49821335,7.737819254401688,1.295697867086161,fall
10/07/2020, 21:02:26,2.9383862,-2.7206392,6.5850477,0.48600224,-1.0928944,-0.49821335,7.70706460229065,1.295697867086161,fall
10/07/2020, 21:02:26,2.9383862,-2.7206392,6.5850477,0.56171113,-1.2980411,-0.66062117,7.70706460229065,1.5610414576960294,fall
10/07/2020, 21:02:26,3.1728828,-3.5964124,7.472785,0.56171113,-1.2980411,-0.66062117,8.879407813956398,1.5610414576960294,fall
10/07/2020, 21:02:26,3.1728828,-3.5964124,7.472785,0.7534256,-1.3737501,-0.85966223,8.879407813956398,1.7871369844734255,fall
10/07/2020, 21:02:26,4.2975097,-4.85743,8.590233,0.7534256,-1.3737501,-0.85966223,10.763610722738207,1.7871369844734255,fall
10/07/2020, 21:02:26,4.2975097,-4.85743,8.590233,1.0574822,-1.3273479,-0.93903446,10.763610722738207,1.9395635577296562,fall
10/07/2020, 21:02:26,5.6183476,-6.0346985,8.872586,1.0574822,-1.3273479,-0.93903446,12.112233602762602,1.9395635577296562,fall
10/07/2020, 21:02:26,5.6183476,-6.0346985,8.872586,1.3639811,-1.2638501,-0.8584412,12.112233602762602,2.0480924840912946,fall
10/07/2020, 21:02:26,6.2213387,-6.0251274,8.855837,1.3639811,-1.2638501,-0.8584412,12.38681003261531,2.0480924840912946,fall
10/07/2020, 21:02:26,6.2213387,-6.0251274,8.855837,1.5373789,-1.2394278,-0.7851745,12.38681003261531,2.1251386228197244,fall
10/07/2020, 21:02:26,6.096912,-4.9435716,8.159525,1.5373789,-1.2394278,-0.7851745,11.322061717215202,2.1251386228197244,fall
10/07/2020, 21:02:26,6.096912,-4.9435716,8.159525,1.5239468,-1.2027946,-0.8535567,11.322061717215202,2.1207752108864413,fall
10/07/2020, 21:02:26,5.771488,-3.237489,7.5589266,1.5239468,-1.2027946,-0.8535567,10.046331764846448,2.1207752108864413,fall
10/07/2020, 21:02:26,5.771488,-3.237489,7.5589266,1.5007457,-1.1588345,-0.9976478,10.046331764846448,2.1425302785534655,fall
10/07/2020, 21:02:26,5.3814583,-2.321038,7.8699937,1.5007457,-1.1588345,-0.9976478,9.812446754385427,2.1425302785534655,fall
10/07/2020, 21:02:27,6.8243303,-3.5102708,11.827723,-0.41762,1.9195868,1.4152678,14.099237798045493,2.421198645506411,fall
10/07/2020, 21:02:27,6.8243303,-3.5102708,11.827723,-0.31260446,2.0111701,1.4921979,14.099237798045493,2.523723717264887,fall
10/07/2020, 21:02:27,6.599405,-4.101298,11.803794,-0.31260446,2.0111701,1.4921979,14.131607784401217,2.523723717264887,fall
10/07/2020, 21:02:27,6.599405,-4.101298,11.803794,-0.19171445,2.0514667,1.5495901,14.131607784401217,2.5780805994493767,fall
10/07/2020, 21:02:27,6.5276203,-4.4985065,11.794223,-0.19171445,2.0514667,1.5495901,14.210914127282663,2.5780805994493767,fall
10/07/2020, 21:02:27,6.5276203,-4.4985065,11.794223,-0.10501556,2.1003113,1.5618012,14.210914127282663,2.619457713181462,fall
10/07/2020, 21:02:27,6.4869423,-4.5415773,11.641082,-0.10501556,2.1003113,1.5618012,14.07910262498553,2.619457713181462,fall
10/07/2020, 21:02:27,6.4869423,-4.5415773,11.641082,-0.07448778,2.163809,1.5349368,14.07910262498553,2.6539873810157895,fall
10/07/2020, 21:02:27,6.4343,-4.1850467,11.356337,-0.07448778,2.163809,1.5349368,13.706976773686748,2.6539873810157895,fall
10/07/2020, 21:02:27,6.4343,-4.1850467,11.356337,-0.070824444,2.2468445,1.4860923,13.706976773686748,2.694772134107578,fall
10/07/2020, 21:02:27,6.1399827,-3.6634114,11.186446,-0.070824444,2.2468445,1.4860923,13.276164689036701,2.694772134107578,fall
10/07/2020, 21:02:27,6.1399827,-3.6634114,11.186446,-0.098910004,2.3530812,1.4641123,13.276164689036701,2.773156905114231,fall
