DATE,TIME,ax,ay,az,gx,gy,gz,ma,mg,label
10/07/2020, 21:01:24,-4.216153599999999,-1.7036897,8.549555999999999,-0.13920668,-0.07693,0.03174889,9.683667381013915,0.16218728770564428,fall
10/07/2020, 21:01:24,-4.3501515,-1.8664017,8.707481,-0.13920668,-0.07693,0.03174889,9.910979047051114,0.16218728770564428,fall
10/07/2020, 21:01:24,-4.3501515,-1.8664017,8.707481,-0.12089001,-0.036633335,-0.046402223,9.910979047051114,0.13457176980091895,fall
10/07/2020, 21:01:24,-4.3334017,-2.1224337,8.963513,-0.12089001,-0.036633335,-0.046402223,10.17976752108228,0.13457176980091895,fall
10/07/2020, 21:01:24,-4.3334017,-2.1224337,8.963513,-0.046402223,-0.058613338,0.0,10.17976752108228,0.0747575392791278,fall
10/07/2020, 21:01:24,-4.3645086,-2.184647,8.872586,-0.046402223,-0.058613338,0.0,10.126421145639924,0.0747575392791278,fall
10/07/2020, 21:01:24,-4.3645086,-2.184647,8.872586,-0.06105556,-0.10135223,0.057392225,10.126421145639924,0.13150636215252345,fall
10/07/2020, 21:01:24,-4.211368,-1.9357935000000002,8.796016,-0.06105556,-0.10135223,0.057392225,9.942475072904015,0.13150636215252345,fall
10/07/2020, 21:01:24,-4.211368,-1.9357935000000002,8.796016,-0.03052778,-0.08425667,0.01099,9.942475072904015,0.09028794005263607,fall
10/07/2020, 21:01:24,-4.182654,-1.9405792000000002,8.669196000000001,-0.03052778,-0.08425667,0.01099,9.819134520864546,0.09028794005263607,fall
10/07/2020, 21:01:24,-4.182654,-1.9405792000000002,8.669196000000001,0.007326666999999999,-0.05617111,-0.026864445,9.819134520864546,0.06269427601665928,fall
10/07/2020, 21:01:24,-4.082155,-2.0315065,8.62134,0.007326666999999999,-0.05617111,-0.026864445,9.752871886289238,0.06269427601665928,fall
10/07/2020, 21:01:24,-4.082155,-2.0315065,8.62134,0.0012211112,-0.03297,-0.012211111,9.752871886289238,0.0351798700581969,fall
10/07/2020, 21:01:24,-4.063013,-2.1128622999999997,8.609376,0.0012211112,-0.03297,-0.012211111,9.751595606758755,0.0351798700581969,fall
10/07/2020, 21:01:24,-4.063013,-2.1128622999999997,8.609376,0.009768889000000001,-0.018316668,0.0024422223,9.751595606758755,0.020902056287244997,fall
10/07/2020, 21:01:24,-4.113262000000001,-2.1080767999999996,8.630911,0.009768889000000001,-0.018316668,0.0024422223,9.79058405193102,0.020902056287244997,fall
10/07/2020, 21:01:24,-4.113262000000001,-2.1080767999999996,8.630911,0.04396,-0.006105555699999999,-0.0048844446,9.79058405193102,0.0446499420575248,fall
10/07/2020, 21:01:24,-4.1635113,-2.0099709999999997,8.645268,0.04396,-0.006105555699999999,-0.0048844446,9.803850038828868,0.0446499420575248,fall
10/07/2020, 21:01:24,-4.1635113,-2.0099709999999997,8.645268,0.070824444,-0.0036633335999999997,-0.013432221999999999,9.803850038828868,0.07217995928028963,fall
10/07/2020, 21:01:24,-4.173083,-1.8687943999999999,8.592627,0.070824444,-0.0036633335999999997,-0.013432221999999999,9.733460040353878,0.07217995928028963,fall
10/07/2020, 21:01:25,0.6628119,-3.6658044000000003,9.24826,0.03297,0.06105556,-0.12699556,9.970343323056113,0.14471584370874738,fall
10/07/2020, 21:01:25,0.6628119,-3.6658044000000003,9.24826,0.03052778,0.07204556,-0.13188,9.970343323056113,0.15334549916941642,fall
10/07/2020, 21:01:25,0.59581286,-3.6729827000000004,9.092725999999999,0.03052778,0.07204556,-0.13188,9.824635181791038,0.15334549916941642,fall
10/07/2020, 21:01:25,0.59581286,-3.6729827000000004,9.092725999999999,0.05372889,0.07693,-0.13554333,9.824635181791038,0.16485452196646294,fall
10/07/2020, 21:01:25,0.56470615,-3.6658044000000003,8.975478,0.05372889,0.07693,-0.13554333,9.711653991522217,0.16485452196646294,fall
10/07/2020, 21:01:25,0.56470615,-3.6658044000000003,8.975478,0.08303556,0.09280445,-0.15386,9.711653991522217,0.19794057129891052,fall
10/07/2020, 21:01:25,0.5240282,-3.6514472999999996,8.99462,0.08303556,0.09280445,-0.15386,9.721670003155413,0.19794057129891052,fall
10/07/2020, 21:01:25,0.5240282,-3.6514472999999996,8.99462,0.091583334,0.106236674,-0.17584,9.721670003155413,0.2249298677052317,fall
10/07/2020, 21:01:25,0.5240282,-3.6059837,8.970692,0.091583334,0.106236674,-0.17584,9.682511733031538,0.2249298677052317,fall
10/07/2020, 21:01:25,0.5240282,-3.6059837,8.970692,0.07693,0.11600556,-0.18683001,9.682511733031538,0.232982766984292,fall
10/07/2020, 21:01:25,0.48095736,-3.5581272000000004,8.913264,0.07693,0.11600556,-0.18683001,9.60925954125688,0.232982766984292,fall
10/07/2020, 21:01:25,0.48095736,-3.5581272000000004,8.913264,0.029306669,0.11844778,-0.18927222,9.60925954125688,0.2251948771319231,fall
10/07/2020, 21:01:25,0.42352959999999995,-3.5174494,8.848659,0.029306669,0.11844778,-0.18927222,9.53155736452425,0.2251948771319231,fall
10/07/2020, 21:01:25,0.42352959999999995,-3.5174494,8.848659,-0.024422223,0.11966889,-0.18072446,9.53155736452425,0.2181247770506946,fall
10/07/2020, 21:01:25,0.42592242,-3.5174494,8.796016,-0.024422223,0.11966889,-0.18072446,9.482813555744727,0.2181247770506946,fall
10/07/2020, 21:01:25,0.42592242,-3.5174494,8.796016,-0.04151778,0.11478445,-0.16973445,9.482813555744727,0.20906692398897092,fall
10/07/2020, 21:01:25,0.44506502,-3.546163,8.752945,-0.04151778,0.11478445,-0.16973445,9.454491033955977,0.20906692398897092,fall
10/07/2020, 21:01:25,0.44506502,-3.546163,8.752945,-0.014653333999999999,0.12821667,-0.16240779,9.454491033955977,0.20743799856825004,fall
10/07/2020, 21:01:25,0.51206404,-3.5581272000000004,8.805588,-0.014653333999999999,0.12821667,-0.16240779,9.511091128343713,0.20743799856825004,fall
10/07/2020, 21:01:25,0.51206404,-3.5581272000000004,8.805588,0.03174889,0.15996556,-0.15508112,9.511091128343713,0.2250491660795035,fall
10/07/2020, 21:01:26,0.44985065,-3.8141594,8.910871499999999,0.007326666999999999,0.08303556,-0.025643334,9.703288539223355,0.08721332804875298,fall
10/07/2020, 21:01:26,0.4331009,-3.7974095,8.896514999999999,0.007326666999999999,0.08303556,-0.025643334,9.682761631043137,0.08721332804875298,fall
10/07/2020, 21:01:26,0.4331009,-3.7974095,8.896514999999999,0.0024422223,0.08792,-0.024422223,9.682761631043137,0.0912816316568289,fall
10/07/2020, 21:01:26,0.36131623,-3.8021949999999998,8.920442999999999,0.0024422223,0.08792,-0.024422223,9.703686548513234,0.0912816316568289,fall
10/07/2020, 21:01:26,0.36131623,-3.8021949999999998,8.920442999999999,0.0012211112,0.081814446,-0.024422223,9.703686548513234,0.08539051222440137,fall
10/07/2020, 21:01:26,0.28953153,-3.7830527000000003,9.016156,0.0012211112,0.081814446,-0.024422223,9.781941968191203,0.08539051222440137,fall
10/07/2020, 21:01:26,0.28953153,-3.7830527000000003,9.016156,-0.01099,0.07204556,-0.02075889,9.781941968191203,0.07577779303800593,fall
10/07/2020, 21:01:26,0.22492532,-3.696911,9.083155,-0.01099,0.07204556,-0.02075889,9.809252875128672,0.07577779303800593,fall
10/07/2020, 21:01:26,0.22492532,-3.696911,9.083155,-0.028085556,0.054950003,-0.009768889000000001,9.809252875128672,0.062479856199203126,fall
10/07/2020, 21:01:26,0.18424734,-3.603591,9.12144,-0.028085556,0.054950003,-0.009768889000000001,9.80920391237346,0.062479856199203126,fall
10/07/2020, 21:01:26,0.18424734,-3.603591,9.12144,-0.04396,0.025643334,0.018316668,9.80920391237346,0.05408847005896628,fall
10/07/2020, 21:01:26,0.2009971,-3.6083765,9.042477,-0.04396,0.025643334,0.018316668,9.73792405291515,0.05408847005896628,fall
10/07/2020, 21:01:26,0.2009971,-3.6083765,9.042477,-0.06349778,0.01099,0.04396,9.73792405291515,0.07800788492771107,fall
10/07/2020, 21:01:26,0.26799613,-3.5940197,9.032906,-0.06349778,0.01099,0.04396,9.725337134200172,0.07800788492771107,fall
10/07/2020, 21:01:26,0.26799613,-3.5940197,9.032906,-0.06716111,0.015874445,0.06349778,9.725337134200172,0.09377942955780044,fall
10/07/2020, 21:01:26,0.35413775,-3.5988052,9.049655,-0.06716111,0.015874445,0.06349778,9.745412625472767,0.09377942955780044,fall
10/07/2020, 21:01:26,0.35413775,-3.5988052,9.049655,-0.04029667,0.03052778,0.06105556,9.745412625472767,0.07926883577153837,fall
10/07/2020, 21:01:26,0.42592242,-3.586841,8.999406,-0.04029667,0.03052778,0.06105556,9.697223565681584,0.07926883577153837,fall
10/07/2020, 21:01:26,0.42592242,-3.586841,8.999406,-0.023201112000000003,0.04151778,0.039075557000000004,9.697223565681584,0.061554177295965136,fall
10/07/2020, 21:01:26,0.40438703,-3.7208392999999997,8.953942,-0.023201112000000003,0.04151778,0.039075557000000004,9.704702796745917,0.061554177295965136,fall
10/07/2020, 21:01:27,-1.2370893,-4.5008992999999995,9.102298,-0.035412222,0.039075557000000004,-0.035412222,10.229384607531877,0.06352125723544616,fall
10/07/2020, 21:01:27,-1.2370893,-4.5008992999999995,9.102298,-0.08669889,-0.012211111,-0.006105555699999999,10.229384607531877,0.08776722926050155,fall
10/07/2020, 21:01:27,-1.1509477,-4.5128636,8.903692999999999,-0.08669889,-0.012211111,-0.006105555699999999,10.048202394814213,0.08776722926050155,fall
10/07/2020, 21:01:27,-1.1509477,-4.5128636,8.903692999999999,-0.09891000400000001,-0.046402223,0.006105555699999999,10.048202394814213,0.1094240970676811,fall
10/07/2020, 21:01:27,-1.0336994000000002,-4.57747,8.633303999999999,-0.09891000400000001,-0.046402223,0.006105555699999999,9.826275806272573,0.1094240970676811,fall
10/07/2020, 21:01:27,-1.0336994000000002,-4.57747,8.633303999999999,-0.07204556,-0.07815111400000001,-0.0012211112,9.826275806272573,0.10629981227096363,fall
10/07/2020, 21:01:27,-0.9834501,-4.694718,8.5423765,-0.07204556,-0.07815111400000001,-0.0012211112,9.796925370678547,0.10629981227096363,fall
10/07/2020, 21:01:27,-0.9834501,-4.694718,8.5423765,-0.024422223,-0.09646778,-0.018316668,9.796925370678547,0.10118289125263782,fall
10/07/2020, 21:01:27,-0.95473623,-4.867001,8.575876,-0.024422223,-0.09646778,-0.018316668,9.906809464924336,0.10118289125263782,fall
10/07/2020, 21:01:27,-0.95473623,-4.867001,8.575876,-0.007326666999999999,-0.10379445,0.0036633335999999997,9.906809464924336,0.10411718166095507,fall
10/07/2020, 21:01:27,-0.8805586999999999,-4.752146,8.834301,-0.007326666999999999,-0.10379445,0.0036633335999999997,10.069912965679773,0.10411718166095507,fall
10/07/2020, 21:01:27,-0.8805586999999999,-4.752146,8.834301,0.014653333999999999,-0.13310112,0.036633335,10.069912965679773,0.13882589725502062,fall
10/07/2020, 21:01:27,-0.83988076,-4.613362,9.0233345,0.014653333999999999,-0.13310112,0.036633335,10.169025158774028,0.13882589725502062,fall
10/07/2020, 21:01:27,-0.83988076,-4.613362,9.0233345,-0.026864445,-0.16973445,0.036633335,10.169025158774028,0.1757085158364965,fall
10/07/2020, 21:01:27,-0.7704889,-4.6612186,9.142975,-0.026864445,-0.16973445,0.036633335,10.291481991633763,0.1757085158364965,fall
10/07/2020, 21:01:27,-0.7704889,-4.6612186,9.142975,-0.11234222,-0.20881,0.048844445,10.291481991633763,0.2420912468791953,fall
10/07/2020, 21:01:27,-0.6795616,-4.673182499999999,9.162118,-0.11234222,-0.20881,0.048844445,10.307513959607254,0.2420912468791953,fall
10/07/2020, 21:01:27,-0.6795616,-4.673182499999999,9.162118,-0.123332225,-0.24178001,0.08303556,10.307513959607254,0.28383677748252145,fall
10/07/2020, 21:01:27,-0.55752766,-4.6971107000000005,9.123833,-0.123332225,-0.24178001,0.08303556,10.277062263344149,0.28383677748252145,fall
10/07/2020, 21:01:27,-0.55752766,-4.6971107000000005,9.123833,-0.06105556,-0.23567446,0.11356334,10.277062263344149,0.2686389060546469,fall
10/07/2020, 21:01:28,7.2670026,0.7920243,1.5553347,0.6569578,2.3921568,0.9378134,7.473666773325228,2.652075013534963,fall
10/07/2020, 21:01:28,7.2670026,0.7920243,1.5553347,0.7131289000000001,2.9978279999999997,1.4201523,7.473666773325228,3.3929866186904083,fall
10/07/2020, 21:01:28,6.1998034,0.52163535,1.7946168999999998,0.7131289000000001,2.9978279999999997,1.4201523,6.475362152252803,3.3929866186904083,fall
10/07/2020, 21:01:28,6.1998034,0.52163535,1.7946168999999998,0.81081784,3.6560068,1.9293556,6.475362152252803,4.212626792941455,fall
10/07/2020, 21:01:28,4.414757700000001,0.23449662,1.875973,0.81081784,3.6560068,1.9293556,4.802535696211751,4.212626792941455,fall
10/07/2020, 21:01:28,4.414757700000001,0.23449662,1.875973,1.0049745,4.327618,2.4629812,4.802535696211751,5.079815826896749,fall
10/07/2020, 21:01:28,2.1224337,0.05264209999999999,1.9453648000000001,1.0049745,4.327618,2.4629812,2.8795729153809146,5.079815826896749,fall
10/07/2020, 21:01:28,2.1224337,0.05264209999999999,1.9453648000000001,1.2614079,4.951606,2.9709635,2.8795729153809146,5.910683016767181,fall
10/07/2020, 21:01:28,-0.70348984,0.05503492,2.1487548,1.2614079,4.951606,2.9709635,2.2616529660843656,5.910683016767181,fall
10/07/2020, 21:01:28,-0.70348984,0.05503492,2.1487548,1.5398211000000002,5.532854599999999,3.4789457,2.2616529660843656,6.714655026426872,fall
10/07/2020, 21:01:28,-3.9242291,0.040677983,2.3018954,1.5398211000000002,5.532854599999999,3.4789457,4.549719927835644,6.714655026426872,fall
10/07/2020, 21:01:28,-3.9242291,0.040677983,2.3018954,1.8084656000000003,6.142189,4.0223403,4.549719927835644,7.561498219701793,fall
10/07/2020, 21:01:28,-7.4679994999999995,0.0023928226,2.0626130000000003,1.8084656000000003,6.142189,4.0223403,7.747605698902173,7.561498219701793,fall
10/07/2020, 21:01:28,-7.4679994999999995,0.0023928226,2.0626130000000003,2.0111701,6.885845699999999,4.58283,7.747605698902173,8.512461818306917,fall
10/07/2020, 21:01:28,-11.334800999999999,0.009571291,1.1724831,2.0111701,6.885845699999999,4.58283,11.395284795252659,8.512461818306917,fall
10/07/2020, 21:01:28,-11.334800999999999,0.009571291,1.1724831,2.1332812000000003,7.7601614,4.980912,11.395284795252659,9.4646965187038,fall
10/07/2020, 21:01:28,-15.744773,-0.18664017,0.038285162000000005,2.1332812000000003,7.7601614,4.980912,15.745925642181945,9.4646965187038,fall
10/07/2020, 21:01:28,-15.744773,-0.18664017,0.038285162000000005,2.294468,10.346475,7.2985815999999994,15.745925642181945,12.867921901767769,fall
10/07/2020, 21:01:28,-25.847271,-4.8191447,7.1976104,2.294468,10.346475,7.2985815999999994,27.260065433036512,12.867921901767769,fall
10/07/2020, 21:01:28,-25.847271,-4.8191447,7.1976104,2.7658167000000002,11.148745,7.785804700000001,27.260065433036512,13.876707221699734,fall
10/07/2020, 21:01:29,-11.46162,-1.6606188999999998,5.9557357,1.2614079,-0.60445005,0.24055889,13.022948332611241,1.4192879234378164,fall
10/07/2020, 21:01:29,-11.46162,-1.6606188999999998,5.9557357,1.2687344999999999,-0.7204556,0.23201112,13.022948332611241,1.4773532184883589,fall
10/07/2020, 21:01:29,-11.4903345,-1.5625132,6.1040906999999995,1.2687344999999999,-0.7204556,0.23201112,13.104547223398399,1.4773532184883589,fall
10/07/2020, 21:01:29,-11.4903345,-1.5625132,6.1040906999999995,1.3029256,-0.7937223000000001,0.21980001,13.104547223398399,1.5414026644448109,fall
10/07/2020, 21:01:29,-11.483156,-1.3639089,6.202196,1.3029256,-0.7937223000000001,0.21980001,13.122132471074009,1.5414026644448109,fall
10/07/2020, 21:01:29,-11.483156,-1.3639089,6.202196,1.3126944999999999,-0.8205867,0.20881,13.122132471074009,1.562091898338334,fall
10/07/2020, 21:01:29,-11.432906,-0.91405827,6.1064834999999995,1.3126944999999999,-0.8205867,0.20881,12.993690230710051,1.562091898338334,fall
10/07/2020, 21:01:29,-11.432906,-0.91405827,6.1064834999999995,1.1820356,-0.82913446,0.19049335,12.993690230710051,1.4563515208332152,fall
10/07/2020, 21:01:29,-11.38505,-0.16510476,5.8169518,1.1820356,-0.82913446,0.19049335,12.786068460113599,1.4563515208332152,fall
10/07/2020, 21:01:29,-11.38505,-0.16510476,5.8169518,0.78273225,-0.91461223,0.15386,12.786068460113599,1.213613699209265,fall
10/07/2020, 21:01:29,-11.420942,0.567099,5.4293146,0.78273225,-0.91461223,0.15386,12.658474694335391,1.213613699209265,fall
10/07/2020, 21:01:29,-11.420942,0.567099,5.4293146,0.16118668,-1.1331911,0.09768889,12.658474694335391,1.1487586143927904,fall
10/07/2020, 21:01:29,-11.650654,1.0121639999999998,5.345566000000001,0.16118668,-1.1331911,0.09768889,12.858354658092434,1.1487586143927904,fall
10/07/2020, 21:01:29,-11.650654,1.0121639999999998,5.345566000000001,-0.50798225,-1.4677756000000002,0.019537778999999998,12.858354658092434,1.553316728177031,fall
10/07/2020, 21:01:29,-12.02872,0.83988076,5.4699926,-0.50798225,-1.4677756000000002,0.019537778999999998,13.240706991547807,1.553316728177031,fall
10/07/2020, 21:01:29,-12.02872,0.83988076,5.4699926,-1.0794622999999999,-1.8560889999999999,-0.08792,13.240706991547807,2.1489614056124604,fall
10/07/2020, 21:01:29,-12.614961,0.10289137,5.623133,-1.0794622999999999,-1.8560889999999999,-0.08792,13.811858895170882,2.1489614056124604,fall
10/07/2020, 21:01:29,-12.614961,0.10289137,5.623133,-1.4140468000000002,-2.1699145,-0.27230778,13.811858895170882,2.604267391934745,fall
10/07/2020, 21:01:29,-13.251451500000002,-0.8997013,5.4628143,-1.4140468000000002,-2.1699145,-0.27230778,14.361503037389332,2.604267391934745,fall
10/07/2020, 21:01:29,-13.251451500000002,-0.8997013,5.4628143,-1.4787656,-2.3762822,-0.52996224,14.361503037389332,2.8485654044718856,fall
10/07/2020, 21:01:30,-5.182853700000001,-1.7108682000000002,0.58624154,1.5788968,4.221381,1.8157922999999998,5.489327986386293,4.8590200522927525,fall
10/07/2020, 21:01:30,-5.182853700000001,-1.7108682000000002,0.58624154,1.7803801,4.9125304000000005,2.3017945,5.489327986386293,5.7097256159414735,fall
10/07/2020, 21:01:30,-7.243074000000001,-1.3208381,0.57188463,1.7803801,4.9125304000000005,2.3017945,7.384699412074047,5.7097256159414735,fall
10/07/2020, 21:01:30,-7.243074000000001,-1.3208381,0.57188463,2.1186278,5.6537447,2.9111290000000003,7.384699412074047,6.702841550079008,fall
10/07/2020, 21:01:30,-9.509077,-0.6963114,0.27278179999999996,2.1186278,5.6537447,2.9111290000000003,9.53843835510535,6.702841550079008,fall
10/07/2020, 21:01:30,-9.509077,-0.6963114,0.27278179999999996,2.6388211,6.435256,3.5986147000000006,9.53843835510535,7.831087055935946,fall
10/07/2020, 21:01:30,-11.9306135,0.15553348,0.09810573,2.6388211,6.435256,3.5986147000000006,11.932030602829116,7.831087055935946,fall
10/07/2020, 21:01:30,-11.9306135,0.15553348,0.09810573,3.0808635,7.2546215,4.15422,11.932030602829116,8.909477965756864,fall
10/07/2020, 21:01:30,-14.77568,0.7728816999999999,0.85902333,3.0808635,7.2546215,4.15422,14.820795339123814,8.909477965756864,fall
10/07/2020, 21:01:30,-14.77568,0.7728816999999999,0.85902333,3.3470657,7.9128003,4.4521713,14.820795339123814,9.676625806849707,fall
10/07/2020, 21:01:30,-19.156939,0.17706887,3.9984066,3.3470657,7.9128003,4.4521713,19.570562174653993,9.676625806849707,fall
10/07/2020, 21:01:30,-19.156939,0.17706887,3.9984066,4.229929,8.4036875,4.5852723,19.570562174653993,10.466087353149797,fall
10/07/2020, 21:01:30,-28.113274,-4.6372905,13.529019,4.229929,8.4036875,4.5852723,31.54195589006796,10.466087353149797,fall
10/07/2020, 21:01:30,-28.113274,-4.6372905,13.529019,6.890730400000001,8.423224000000001,4.1957379999999995,31.54195589006796,11.663493958337146,fall
10/07/2020, 21:01:30,-45.55934,-15.706488,15.840485999999999,6.890730400000001,8.423224000000001,4.1957379999999995,50.727392297013864,11.663493958337146,fall
10/07/2020, 21:01:30,-45.55934,-15.706488,15.840485999999999,3.6767657,0.03052778,1.67048,50.727392297013864,4.03856921282118,fall
10/07/2020, 21:01:30,-61.847286,-6.0107703,24.3039,3.6767657,0.03052778,1.67048,66.72252780700799,4.03856921282118,fall
10/07/2020, 21:01:30,-61.847286,-6.0107703,24.3039,0.6703899999999999,-0.8999589,3.5351169999999996,66.72252780700799,3.7089621697200448,fall
10/07/2020, 21:01:30,-39.40979,-3.1154552000000004,37.050465,0.6703899999999999,-0.8999589,3.5351169999999996,54.1809426000204,3.7089621697200448,fall
10/07/2020, 21:01:30,-39.40979,-3.1154552000000004,37.050465,-1.7034501,1.0587034,4.5425334,54.1809426000204,4.965602158214936,fall
10/07/2020, 21:01:31,-9.743574,-1.2179468,3.3475589999999995,-1.3896245,-0.8621045,-1.2089001,10.37433286969933,2.033646908764261,fall
10/07/2020, 21:01:31,-9.743574,-1.2179468,3.3475589999999995,-1.2467545,-0.81448114,-1.1893623,10.37433286969933,1.9058748720436252,fall
10/07/2020, 21:01:31,-9.71486,-1.1078769,3.400201,-1.2467545,-0.81448114,-1.1893623,10.352162223828488,1.9058748720436252,fall
10/07/2020, 21:01:31,-9.71486,-1.1078769,3.400201,-1.1319700000000001,-0.81936556,-1.18692,10.352162223828488,1.833438111727544,fall
10/07/2020, 21:01:31,-9.501899,-1.0791629999999999,3.8117663999999998,-1.1319700000000001,-0.81936556,-1.18692,10.294670262653769,1.833438111727544,fall
10/07/2020, 21:01:31,-9.501899,-1.0791629999999999,3.8117663999999998,-1.0391655999999998,-0.79250115,-1.1673822,10.294670262653769,1.7523425885751251,fall
10/07/2020, 21:01:31,-9.193225,-1.2705889,4.35733,-1.0391655999999998,-0.79250115,-1.1673822,10.252614479239423,1.7523425885751251,fall
10/07/2020, 21:01:31,-9.193225,-1.2705889,4.35733,-0.9561299999999999,-0.6887066999999999,-1.1038845,10.252614479239423,1.6146400344897291,fall
10/07/2020, 21:01:31,-8.980264,-1.5768701,4.7162533,-0.9561299999999999,-0.6887066999999999,-1.1038845,10.265217999141242,1.6146400344897291,fall
10/07/2020, 21:01:31,-8.980264,-1.5768701,4.7162533,-0.8877478000000001,-0.5519421999999999,-1.0245123,10.265217999141242,1.463680927704978,fall
10/07/2020, 21:01:31,-8.953942,-2.0745773,4.8239303,-0.8877478000000001,-0.5519421999999999,-1.0245123,10.38013761872576,1.463680927704978,fall
10/07/2020, 21:01:31,-8.953942,-2.0745773,4.8239303,-0.85111445,-0.45303226,-0.9646778,10.38013761872576,1.363905170028988,fall
10/07/2020, 21:01:31,-8.949157000000001,-2.6608188,4.843073,-0.85111445,-0.45303226,-0.9646778,10.517733526444392,1.363905170028988,fall
10/07/2020, 21:01:31,-8.949157000000001,-2.6608188,4.843073,-0.85599893,-0.39197668,-0.91217005,10.517733526444392,1.3108905750009598,fall
10/07/2020, 21:01:31,-8.848659,-3.1154552000000004,4.924429,-0.85599893,-0.39197668,-0.91217005,10.595037494998273,1.3108905750009598,fall
10/07/2020, 21:01:31,-8.848659,-3.1154552000000004,4.924429,-0.8633255999999999,-0.33092109999999997,-0.8218078000000001,10.595037494998273,1.2370157358689349,fall
10/07/2020, 21:01:31,-8.609376,-3.3236306000000004,5.0727839999999995,-0.8633255999999999,-0.33092109999999997,-0.8218078000000001,10.530954916790273,1.2370157358689349,fall
10/07/2020, 21:01:31,-8.609376,-3.3236306000000004,5.0727839999999995,-0.8230289000000001,-0.26864445,-0.6899278,10.530954916790273,1.1070441906506188,fall
10/07/2020, 21:01:31,-8.26481,-3.4097722000000004,5.4053864,-0.8230289000000001,-0.26864445,-0.6899278,10.447575158021618,1.1070441906506188,fall
10/07/2020, 21:01:31,-8.26481,-3.4097722000000004,5.4053864,-0.7998278,-0.17584,-0.56171113,10.447575158021618,0.9930577204130292,fall
10/07/2020, 21:01:32,-17.596817,12.320642999999999,5.0679984000000005,-8.264481,-1.7596211,1.7999178,22.071040559924427,8.639306115221837,fall
10/07/2020, 21:01:32,-10.789237,7.597212,-4.287938,-8.264481,-1.7596211,1.7999178,13.87485771231869,8.639306115221837,fall
10/07/2020, 21:01:32,-10.789237,7.597212,-4.287938,-6.043279,0.085477784,1.2027946000000003,13.87485771231869,6.162405725370954,fall
10/07/2020, 21:01:32,-8.346166,6.3098730000000005,-1.6797615000000001,-6.043279,0.085477784,1.2027946000000003,10.596913633638925,6.162405725370954,fall
10/07/2020, 21:01:32,-8.346166,6.3098730000000005,-1.6797615000000001,-1.504409,1.7730534,-0.34557447,10.596913633638925,2.3508267493055293,fall
10/07/2020, 21:01:32,-10.162317999999999,5.745167299999999,2.7972097000000002,-1.504409,1.7730534,-0.34557447,12.004334255656106,2.3508267493055293,fall
10/07/2020, 21:01:32,-10.162317999999999,5.745167299999999,2.7972097000000002,0.12699556,1.90127,-1.7889278000000002,12.004334255656106,2.613659935383459,fall
10/07/2020, 21:01:32,-14.428720000000002,3.6514472999999996,6.4055862,0.12699556,1.90127,-1.7889278000000002,16.203474226001905,2.613659935383459,fall
10/07/2020, 21:01:32,-14.428720000000002,3.6514472999999996,6.4055862,-1.05504,0.63986224,-1.8060234,16.203474226001905,2.1872936394632934,fall
10/07/2020, 21:01:32,-16.505692,0.23928227,9.29133,-1.05504,0.63986224,-1.8060234,18.9426483964507,2.1872936394632934,fall
10/07/2020, 21:01:32,-16.505692,0.23928227,9.29133,-1.6643744999999999,-0.41273558,-0.9549089,18.9426483964507,1.9627389180334884,fall
10/07/2020, 21:01:32,-13.086347,-0.72023964,9.332008,-1.6643744999999999,-0.41273558,-0.9549089,16.089051967912845,1.9627389180334884,fall
10/07/2020, 21:01:32,-13.086347,-0.72023964,9.332008,-1.7962544999999999,-0.71435004,-0.78395337,16.089051967912845,2.0860031533117733,fall
10/07/2020, 21:01:32,-7.6043899999999995,-0.5886344,7.271788000000001,-1.7962544999999999,-0.71435004,-0.78395337,10.538128029074716,2.0860031533117733,fall
10/07/2020, 21:01:32,-7.6043899999999995,-0.5886344,7.271788000000001,-1.7645056000000001,-0.21857889999999996,-1.0501556,10.538128029074716,2.064965787849103,fall
10/07/2020, 21:01:32,-3.0317062999999997,-0.85184485,6.4343,-1.7645056000000001,-0.21857889999999996,-1.0501556,7.16359537712416,2.064965787849103,fall
10/07/2020, 21:01:32,-3.0317062999999997,-0.85184485,6.4343,-1.5495901,0.7656367,-1.0867889,7.16359537712416,2.041700060837779,fall
10/07/2020, 21:01:32,-1.1246266000000003,-1.4476577,6.7812595,-1.5495901,0.7656367,-1.0867889,7.024669302193557,2.041700060837779,fall
10/07/2020, 21:01:32,-1.1246266000000003,-1.4476577,6.7812595,-1.2382066999999999,1.5618012,-0.97078335,7.024669302193557,2.2169346478182805,fall
10/07/2020, 21:01:32,-2.1391835,-2.4670002,7.235895599999999,-1.2382066999999999,1.5618012,-0.97078335,7.938537773005795,2.2169346478182805,fall
10/07/2020, 21:01:33,-9.741181,-2.6105695,6.908078999999999,1.4457957000000001,-0.08059334,0.018316668,12.22404372758311,1.4481560218149658,fall
10/07/2020, 21:01:33,-9.978069999999999,-2.2827528,6.7669024,1.4457957000000001,-0.08059334,0.018316668,12.270444773819774,1.4481560218149658,fall
10/07/2020, 21:01:33,-9.978069999999999,-2.2827528,6.7669024,1.4091623,-0.20148334,0.037854444,12.270444773819774,1.4239967817881,fall
10/07/2020, 21:01:33,-10.133604,-2.0434706,6.6735826000000005,1.4091623,-0.20148334,0.037854444,12.3045685547406,1.4239967817881,fall
10/07/2020, 21:01:33,-10.133604,-2.0434706,6.6735826000000005,1.3615389,-0.3284789,0.06105556,12.3045685547406,1.401932349182168,fall
10/07/2020, 21:01:33,-10.226924,-1.9932213,6.5084777,1.3615389,-0.3284789,0.06105556,12.285079821593499,1.401932349182168,fall
10/07/2020, 21:01:33,-10.226924,-1.9932213,6.5084777,1.3542123,-0.44570556,0.09646778,12.285079821593499,1.4289333054141338,fall
10/07/2020, 21:01:33,-10.231709500000001,-2.0386848,6.678367999999999,1.3542123,-0.44570556,0.09646778,12.38728037757916,1.4289333054141338,fall
10/07/2020, 21:01:33,-10.231709500000001,-2.0386848,6.678367999999999,1.4287001,-0.54095227,0.11600556,12.38728037757916,1.532080477446418,fall
10/07/2020, 21:01:33,-10.102497,-2.120041,7.118647599999999,1.4287001,-0.54095227,0.11600556,12.539145280483249,1.532080477446418,fall
10/07/2020, 21:01:33,-10.102497,-2.120041,7.118647599999999,1.5410423,-0.6020078000000001,0.11356334,12.539145280483249,1.6583490243460526,fall
10/07/2020, 21:01:33,-9.9015,-2.2205392999999995,7.4823565,1.5410423,-0.6020078000000001,0.11356334,12.607781394943393,1.6583490243460526,fall
10/07/2020, 21:01:33,-9.9015,-2.2205392999999995,7.4823565,1.6057611999999999,-0.6667267,0.10135223,12.607781394943393,1.7416273179132484,fall
10/07/2020, 21:01:33,-9.77468,-2.2875384999999997,8.051848,1.6057611999999999,-0.6667267,0.10135223,12.868934188770748,1.7416273179132484,fall
10/07/2020, 21:01:33,-9.77468,-2.2875384999999997,8.051848,1.6240778,-0.74609894,0.07326667,12.868934188770748,1.788759435239647,fall
10/07/2020, 21:01:33,-9.853643,-2.268396,8.52802,1.6240778,-0.74609894,0.07326667,13.227510425643196,1.788759435239647,fall
10/07/2020, 21:01:33,-9.853643,-2.268396,8.52802,1.5959923,-0.8034911,0.064718895,13.227510425643196,1.7880095120350268,fall
10/07/2020, 21:01:33,-10.023534,-2.0267207999999997,8.573483,1.5959923,-0.8034911,0.064718895,13.344790971449266,1.7880095120350268,fall
10/07/2020, 21:01:33,-10.023534,-2.0267207999999997,8.573483,1.4946401000000002,-0.8437878000000001,0.08059334,13.344790971449266,1.7182613840989105,fall
10/07/2020, 21:01:33,-10.140782000000002,-1.4333007,8.334201,1.4946401000000002,-0.8437878000000001,0.08059334,13.20411760585465,1.7182613840989105,fall
10/07/2020, 21:01:34,-2.2827528,2.091327,-3.4480574,2.43978,4.9906809999999995,1.4250367,4.633973292140816,5.7349938531122575,fall
10/07/2020, 21:01:34,-2.2827528,2.091327,-3.4480574,3.2139645,5.965128,2.0905423,4.633973292140816,7.091028567224397,fall
10/07/2020, 21:01:34,-3.3164523,2.9575287999999995,-2.4526432000000002,3.2139645,5.965128,2.0905423,5.07555818145102,7.091028567224397,fall
10/07/2020, 21:01:34,-3.3164523,2.9575287999999995,-2.4526432000000002,3.7512536,7.1471634,2.7645957,5.07555818145102,8.532106292807152,fall
10/07/2020, 21:01:34,-5.2642097,2.8905298999999998,0.24646074,3.7512536,7.1471634,2.7645957,6.010641404465773,8.532106292807152,fall
10/07/2020, 21:01:34,-5.2642097,2.8905298999999998,0.24646074,4.0260034,8.168013,3.1663412999999996,6.010641404465773,9.641102139462726,fall
10/07/2020, 21:01:34,-8.889337,1.4404793,4.067798600000001,4.0260034,8.168013,3.1663412999999996,9.881410378042684,9.641102139462726,fall
10/07/2020, 21:01:34,-8.889337,1.4404793,4.067798600000001,4.421643700000001,8.700417,3.2664722999999998,9.881410378042684,10.291648228505716,fall
10/07/2020, 21:01:34,-14.316257,-1.7898313000000001,7.743174000000001,4.421643700000001,8.700417,3.2664722999999998,16.3742318576508,10.291648228505716,fall
10/07/2020, 21:01:34,-14.316257,-1.7898313000000001,7.743174000000001,5.492558,8.655236,3.250598,16.3742318576508,10.753961823936594,fall
10/07/2020, 21:01:34,-21.576082,-7.283752000000001,14.005191,5.492558,8.655236,3.250598,26.734355009722496,10.753961823936594,fall
10/07/2020, 21:01:34,-21.576082,-7.283752000000001,14.005191,8.931207,9.655325999999999,3.7927712999999996,26.734355009722496,13.688567698713813,fall
10/07/2020, 21:01:34,-32.992237,-22.604996,23.442484,8.931207,9.655325999999999,3.7927712999999996,46.3575623993491,13.688567698713813,fall
10/07/2020, 21:01:34,-32.992237,-22.604996,23.442484,10.356244,9.450178999999999,2.6705701,46.3575623993491,14.271987299020727,fall
10/07/2020, 21:01:34,-47.461636,-18.42952,7.408179,10.356244,9.450178999999999,2.6705701,51.450317401530704,14.271987299020727,fall
10/07/2020, 21:01:34,-47.461636,-18.42952,7.408179,7.351089,-0.12455334,1.80236,51.450317401530704,7.569843116487615,fall
10/07/2020, 21:01:34,-62.79963000000001,3.2039895,28.883762,7.351089,-0.12455334,1.80236,69.19776517990003,7.569843116487615,fall
10/07/2020, 21:01:34,-62.79963000000001,3.2039895,28.883762,2.735289,-0.52752,2.6229467,69.19776517990003,3.826216589700402,fall
10/07/2020, 21:01:34,-38.73023,14.045869,32.944379999999995,2.735289,-0.52752,2.6229467,52.75082286281476,3.826216589700402,fall
10/07/2020, 21:01:34,-38.73023,14.045869,32.944379999999995,-1.9415667,0.03052778,0.8718734,52.75082286281476,2.128562051390112,fall
10/07/2020, 21:01:35,-8.410771,-1.7659031000000003,4.536792,0.22102112,-0.37366003,-0.02198,9.718125781217276,0.434689855598452,fall
10/07/2020, 21:01:35,-8.410771,-1.7659031000000003,4.536792,0.22712667,-0.38465002,-0.019537778999999998,9.718125781217276,0.4471284933684284,fall
10/07/2020, 21:01:35,-8.367701,-1.7994026,4.6085763,0.22712667,-0.38465002,-0.019537778999999998,9.720866120479648,0.4471284933684284,fall
10/07/2020, 21:01:35,-8.367701,-1.7994026,4.6085763,0.22590557,-0.3944189,-0.018316668,9.720866120479648,0.4549011877551168,fall
10/07/2020, 21:01:35,-8.403592999999999,-1.8233308999999998,4.646861599999999,0.22590557,-0.3944189,-0.018316668,9.774366177102273,0.4549011877551168,fall
10/07/2020, 21:01:35,-8.403592999999999,-1.8233308999999998,4.646861599999999,0.23567446,-0.3944189,-0.018316668,9.774366177102273,0.4598306365760495,fall
10/07/2020, 21:01:35,-8.484949,-1.8161523000000002,4.701896700000001,0.23567446,-0.3944189,-0.018316668,9.869174383144607,0.4598306365760495,fall
10/07/2020, 21:01:35,-8.484949,-1.8161523000000002,4.701896700000001,0.27597109999999997,-0.39930335,-0.012211111,9.869174383144607,0.4855433350150937,fall
10/07/2020, 21:01:35,-8.41795,-1.8352950000000001,4.790431,0.27597109999999997,-0.39930335,-0.012211111,9.85791122582823,0.4855433350150937,fall
10/07/2020, 21:01:35,-8.41795,-1.8352950000000001,4.790431,0.30772,-0.39075556,-0.0048844446,9.85791122582823,0.4973986031030409,fall
10/07/2020, 21:01:35,-8.391629,-1.9238293999999998,4.8622155,0.30772,-0.39075556,-0.0048844446,9.887451663741032,0.4973986031030409,fall
10/07/2020, 21:01:35,-8.391629,-1.9238293999999998,4.8622155,0.3492378,-0.37854445,0.012211111,9.887451663741032,0.5151815722835911,fall
10/07/2020, 21:01:35,-8.362915,-1.9740787,4.991428,0.3492378,-0.37854445,0.012211111,9.937287706042275,0.5151815722835911,fall
10/07/2020, 21:01:35,-8.362915,-1.9740787,4.991428,0.40663,-0.34801668,0.029306669,9.937287706042275,0.5360246770927689,fall
10/07/2020, 21:01:35,-8.405986,-2.0793629,5.2546387,0.40663,-0.34801668,0.029306669,10.128947394740537,0.5360246770927689,fall
10/07/2020, 21:01:35,-8.405986,-2.0793629,5.2546387,0.49455002,-0.30894113,0.035412222,10.128947394740537,0.5841903512735539,fall
10/07/2020, 21:01:35,-8.4682,-2.2301106,5.407779,0.49455002,-0.30894113,0.035412222,10.292126904258039,0.5841903512735539,fall
10/07/2020, 21:01:35,-8.4682,-2.2301106,5.407779,0.54950005,-0.29184556,0.045181114,10.292126904258039,0.6238312808332281,fall
10/07/2020, 21:01:35,-8.628518,-2.2947168,5.343173,0.54950005,-0.29184556,0.045181114,10.405121240543457,0.6238312808332281,fall
10/07/2020, 21:01:35,-8.628518,-2.2947168,5.343173,0.5800278,-0.28696109999999997,0.057392225,10.405121240543457,0.6496713135544727,fall
10/07/2020, 21:01:36,0.4019942,-4.902893499999999,7.8341009999999995,0.12943779,-1.5996556,0.21735778,9.250573281992937,1.619535944842559,fall
10/07/2020, 21:01:36,0.4019942,-4.902893499999999,7.8341009999999995,0.16607112,-1.6607112000000002,0.025643334,9.250573281992937,1.6691910567974135,fall
10/07/2020, 21:01:36,0.6843473000000001,-5.446064499999999,8.047063,0.16607112,-1.6607112000000002,0.025643334,9.740799264919962,1.6691910567974135,fall
10/07/2020, 21:01:36,0.6843473000000001,-5.446064499999999,8.047063,0.37732336,-1.6643744999999999,-0.12699556,9.740799264919962,1.7113278965004517,fall
10/07/2020, 21:01:36,0.93559366,-5.6662040000000005,8.178668,0.37732336,-1.6643744999999999,-0.12699556,9.993588625510991,1.7113278965004517,fall
10/07/2020, 21:01:36,0.93559366,-5.6662040000000005,8.178668,0.6459678000000001,-1.6191934,-0.2503278,9.993588625510991,1.7611717006412486,fall
10/07/2020, 21:01:36,1.2514462,-5.4436717,7.9680995999999995,0.6459678000000001,-1.6191934,-0.2503278,9.730893610808172,1.7611717006412486,fall
10/07/2020, 21:01:36,1.2514462,-5.4436717,7.9680995999999995,0.80227005,-1.5618012,-0.36633334,9.730893610808172,1.793616549547689,fall
10/07/2020, 21:01:36,1.5026926,-4.7784667,7.422536,0.80227005,-1.5618012,-0.36633334,8.954656226788106,1.793616549547689,fall
10/07/2020, 21:01:36,1.5026926,-4.7784667,7.422536,0.7888378,-1.6118667,-0.51164556,8.954656226788106,1.86605480446174,fall
10/07/2020, 21:01:36,1.6630118000000003,-4.065405999999999,6.7118673,0.7888378,-1.6118667,-0.51164556,8.021364970485262,1.86605480446174,fall
10/07/2020, 21:01:36,1.6630118000000003,-4.065405999999999,6.7118673,0.5824699999999999,-1.7657267,-0.6899278,8.021364970485262,1.9831950031343744,fall
10/07/2020, 21:01:36,1.8065811,-3.6059837,6.070591,0.5824699999999999,-1.7657267,-0.6899278,7.28827338022568,1.9831950031343744,fall
10/07/2020, 21:01:36,1.8065811,-3.6059837,6.070591,0.27841336,-1.9647678,-0.8633255999999999,7.28827338022568,2.1640604526168103,fall
10/07/2020, 21:01:36,1.9860427,-3.5820556000000003,5.76431,0.27841336,-1.9647678,-0.8633255999999999,7.0712627078078745,2.1640604526168103,fall
10/07/2020, 21:01:36,1.9860427,-3.5820556000000003,5.76431,-0.029306669,-2.141829,-1.01108,7.0712627078078745,2.3686648613805525,fall
10/07/2020, 21:01:36,2.2325034,-3.9457644999999997,5.582455,-0.029306669,-2.141829,-1.01108,7.1914487348413845,2.3686648613805525,fall
10/07/2020, 21:01:36,2.2325034,-3.9457644999999997,5.582455,-0.27841336,-2.2456234,-1.1392968,7.1914487348413845,2.5334433795721023,fall
10/07/2020, 21:01:36,2.5411777,-4.4410787,5.601598,-0.27841336,-2.2456234,-1.1392968,7.586742502590308,2.5334433795721023,fall
10/07/2020, 21:01:36,2.5411777,-4.4410787,5.601598,-0.37854445,-2.3030157000000004,-1.2601867,7.586742502590308,2.652404136786893,fall
10/07/2020, 21:01:37,-8.702696000000001,-2.7493532000000003,3.522235,-0.06594,0.15386,0.08059334,9.782739731873727,0.18578554984661733,fall
10/07/2020, 21:01:37,-8.743374000000001,-2.6321049,3.3762727,-0.06594,0.15386,0.08059334,9.735182582269783,0.18578554984661733,fall
10/07/2020, 21:01:37,-8.743374000000001,-2.6321049,3.3762727,-0.048844445,0.12821667,0.06716111,9.735182582269783,0.15276095429970973,fall
10/07/2020, 21:01:37,-8.69791,-2.3569303,3.266203,-0.048844445,0.12821667,0.06716111,9.585241026165255,0.15276095429970973,fall
10/07/2020, 21:01:37,-8.69791,-2.3569303,3.266203,-0.03297,0.10867889,0.048844445,9.585241026165255,0.12362808087759905,fall
10/07/2020, 21:01:37,-8.556734,-2.1080767999999996,3.4097722000000004,-0.03297,0.10867889,0.048844445,9.44924506034341,0.12362808087759905,fall
10/07/2020, 21:01:37,-8.556734,-2.1080767999999996,3.4097722000000004,-0.0048844446,0.12943779,0.008547778,9.44924506034341,0.1298116466909857,fall
10/07/2020, 21:01:37,-8.484949,-2.2325034,3.5724843,-0.0048844446,0.12943779,0.008547778,9.473176694090194,0.1298116466909857,fall
10/07/2020, 21:01:37,-8.484949,-2.2325034,3.5724843,0.0024422223,0.13432223,-0.006105555699999999,9.473176694090194,0.13448309436682146,fall
10/07/2020, 21:01:37,-8.482556,-2.3090740000000003,3.6514472999999996,0.0024422223,0.13432223,-0.006105555699999999,9.519382955906838,0.13448309436682146,fall
10/07/2020, 21:01:37,-8.482556,-2.3090740000000003,3.6514472999999996,0.0,0.15019667,-0.013432221999999999,9.519382955906838,0.15079610314773834,fall
10/07/2020, 21:01:37,-8.525627,-2.3808583999999997,3.6466617999999995,0.0,0.15019667,-0.013432221999999999,9.573554557674512,0.15079610314773834,fall
10/07/2020, 21:01:37,-8.525627,-2.3808583999999997,3.6466617999999995,-0.02075889,0.12577444,-0.013432221999999999,9.573554557674512,0.12818177189738514,fall
10/07/2020, 21:01:37,-8.673982,-2.498107,3.5341989999999996,-0.02075889,0.12577444,-0.013432221999999999,9.693763917350307,0.12818177189738514,fall
10/07/2020, 21:01:37,-8.673982,-2.498107,3.5341989999999996,-0.02198,0.11356334,-0.006105555699999999,9.693763917350307,0.11583190243114035,fall
10/07/2020, 21:01:37,-8.829514999999999,-2.5387847000000003,3.4360932999999996,-0.02198,0.11356334,-0.006105555699999999,9.808797507912493,0.11583190243114035,fall
10/07/2020, 21:01:37,-8.829514999999999,-2.5387847000000003,3.4360932999999996,-0.019537778999999998,0.085477784,-0.017095556,9.808797507912493,0.08933327738131651,fall
10/07/2020, 21:01:37,-8.898908,-2.5268207,3.3212377999999996,-0.019537778999999998,0.085477784,-0.017095556,9.82883516768706,0.08933327738131651,fall
10/07/2020, 21:01:37,-8.898908,-2.5268207,3.3212377999999996,-0.019537778999999998,0.034191112999999995,-0.019537778999999998,9.82883516768706,0.043960002147489116,fall
10/07/2020, 21:01:37,-8.82473,-2.4215364,3.0628130000000002,-0.019537778999999998,0.034191112999999995,-0.019537778999999998,9.64989744237797,0.043960002147489116,fall
10/07/2020, 21:01:38,-10.861022,-0.27756742,1.6079768,-1.1124322,-1.4921978999999999,-0.9610145,10.982915452155085,2.09468586320909,fall
10/07/2020, 21:01:38,-10.861022,-0.27756742,1.6079768,-1.32979,-1.5459266999999999,-1.0806833999999998,10.982915452155085,2.307836057696861,fall
10/07/2020, 21:01:38,-11.071589999999999,-0.34695929999999997,1.7371893,-1.32979,-1.5459266999999999,-1.0806833999999998,11.212418200277384,2.307836057696861,fall
10/07/2020, 21:01:38,-11.071589999999999,-0.34695929999999997,1.7371893,-1.5532534,-1.6130878999999998,-1.17593,11.212418200277384,2.529320092660875,fall
10/07/2020, 21:01:38,-11.404193,-0.5982057,2.1798615000000003,-1.5532534,-1.6130878999999998,-1.17593,11.626059635978592,2.529320092660875,fall
10/07/2020, 21:01:38,-11.404193,-0.5982057,2.1798615000000003,-1.6973445,-1.7046710999999999,-1.2357645000000002,11.626059635978592,2.7044400735879925,fall
10/07/2020, 21:01:38,-11.700903,-1.0719845,3.0317062999999997,-1.6973445,-1.7046710999999999,-1.2357645000000002,12.134723882570276,2.7044400735879925,fall
10/07/2020, 21:01:38,-11.700903,-1.0719845,3.0317062999999997,-1.7559578000000002,-1.7535156000000003,-1.2467545,12.134723882570276,2.777157135771259,fall
10/07/2020, 21:01:38,-11.822937,-1.7012968999999998,3.7184464999999998,-1.7559578000000002,-1.7535156000000003,-1.2467545,12.510119709033473,2.777157135771259,fall
10/07/2020, 21:01:38,-11.822937,-1.7012968999999998,3.7184464999999998,-1.6985656000000002,-1.7596211,-1.2125633999999998,12.510119709033473,2.7297805152658845,fall
10/07/2020, 21:01:38,-11.822937,-2.2348964,4.3405805,-1.6985656000000002,-1.7596211,-1.2125633999999998,12.791295491737044,2.7297805152658845,fall
10/07/2020, 21:01:38,-11.822937,-2.2348964,4.3405805,-1.5410423,-1.73642,-1.1466234,12.791295491737044,2.5893457001934435,fall
10/07/2020, 21:01:38,-11.660225,-2.5268207,4.773681,-1.5410423,-1.73642,-1.1466234,12.850435773053935,2.5893457001934435,fall
10/07/2020, 21:01:38,-11.660225,-2.5268207,4.773681,-1.3358957,-1.6900178,-1.0867889,12.850435773053935,2.4128587888920565,fall
10/07/2020, 21:01:38,-11.399407,-2.6177479999999997,5.209175,-1.3358957,-1.6900178,-1.0867889,12.803694732462564,2.4128587888920565,fall
10/07/2020, 21:01:38,-11.399407,-2.6177479999999997,5.209175,-1.1600556,-1.6375101,-1.0318389000000001,12.803694732462564,2.2565149645982205,fall
10/07/2020, 21:01:38,-11.035698,-2.6679974,5.5633125,-1.1600556,-1.6375101,-1.0318389000000001,12.643388991222654,2.2565149645982205,fall
10/07/2020, 21:01:38,-11.035698,-2.6679974,5.5633125,-1.02207,-1.5642433999999998,-0.96712005,12.643388991222654,2.1039976017134,fall
10/07/2020, 21:01:38,-10.727024,-2.8498517999999997,5.883950700000001,-1.02207,-1.5642433999999998,-0.96712005,12.562307793045914,2.1039976017134,fall
10/07/2020, 21:01:38,-10.727024,-2.8498517999999997,5.883950700000001,-0.9182756,-1.4421322,-0.86088336,12.562307793045914,1.9141827501563813,fall
10/07/2020, 21:01:39,-8.829514999999999,0.55752766,6.13759,-0.32359445,0.7265611,-1.1527288999999998,10.767599104180727,1.400495767564781,fall
10/07/2020, 21:01:39,-9.186047,-0.9834501,6.1471615,-0.32359445,0.7265611,-1.1527288999999998,11.096766221710146,1.400495767564781,fall
10/07/2020, 21:01:39,-9.186047,-0.9834501,6.1471615,-0.19537778,0.74609894,-1.1051056000000001,11.096766221710146,1.3476255309458909,fall
10/07/2020, 21:01:39,-9.789038,-1.5050854999999999,5.7810597,-0.19537778,0.74609894,-1.1051056000000001,11.467832976924072,1.3476255309458909,fall
10/07/2020, 21:01:39,-9.789038,-1.5050854999999999,5.7810597,-0.06594,0.68260115,-1.0880101,11.467832976924072,1.2861019932990798,fall
10/07/2020, 21:01:39,-9.640682,-1.68694,5.5369915999999995,-0.06594,0.68260115,-1.0880101,11.244856425204553,1.2861019932990798,fall
10/07/2020, 21:01:39,-9.640682,-1.68694,5.5369915999999995,0.037854444,0.6752745,-1.0013112,11.244856425204553,1.2083263974253224,fall
10/07/2020, 21:01:39,-8.963513,-1.5290136,5.493921,0.037854444,0.6752745,-1.0013112,10.623823252214816,1.2083263974253224,fall
10/07/2020, 21:01:39,-8.963513,-1.5290136,5.493921,0.014653333999999999,0.71435004,-0.8303556000000001,10.623823252214816,1.095445618697155,fall
10/07/2020, 21:01:39,-8.281559,-1.2418749,5.3886366,0.014653333999999999,0.71435004,-0.8303556000000001,9.958106092598326,1.095445618697155,fall
10/07/2020, 21:01:39,-8.281559,-1.2418749,5.3886366,-0.12821667,0.7570889000000001,-0.65085226,9.958106092598326,1.0065941507551746,fall
10/07/2020, 21:01:39,-7.745566999999999,-1.1700903,5.312066000000001,-0.12821667,0.7570889000000001,-0.65085226,9.46472203078822,1.0065941507551746,fall
10/07/2020, 21:01:39,-7.745566999999999,-1.1700903,5.312066000000001,-0.25887558,0.79128003,-0.45425335,9.46472203078822,0.9484127556632402,fall
10/07/2020, 21:01:39,-7.245467,-1.6103697,5.4173503,-0.25887558,0.79128003,-0.45425335,9.189002636042707,0.9484127556632402,fall
10/07/2020, 21:01:39,-7.245467,-1.6103697,5.4173503,-0.31016225,0.85599893,-0.25277,9.189002636042707,0.9448954805092654,fall
10/07/2020, 21:01:39,-6.888936500000001,-2.28036,5.5800624,-0.31016225,0.85599893,-0.25277,9.153938184999408,0.9448954805092654,fall
10/07/2020, 21:01:39,-6.888936500000001,-2.28036,5.5800624,-0.28818223,0.91583335,-0.08303556,9.153938184999408,0.9636880373126048,fall
10/07/2020, 21:01:39,-6.8099732,-2.7876383999999996,5.4628143,-0.28818223,0.91583335,-0.08303556,9.164551485853522,0.9636880373126048,fall
10/07/2020, 21:01:39,-6.8099732,-2.7876383999999996,5.4628143,-0.23323223,0.9426978000000001,0.08303556,9.164551485853522,0.9746647437116072,fall
10/07/2020, 21:01:39,-7.018149,-2.8809586,5.032106,-0.23323223,0.9426978000000001,0.08303556,9.103649059294373,0.9746647437116072,fall
10/07/2020, 21:01:40,-8.602198,-0.5814559,4.5008992999999995,0.29673,-0.57270116,0.08914111599999999,9.725944167542806,0.6511385816925789,fall
10/07/2020, 21:01:40,-8.640483,-0.5407779,4.4961139999999995,0.29673,-0.57270116,0.08914111599999999,9.755276759098411,0.6511385816925789,fall
10/07/2020, 21:01:40,-8.640483,-0.5407779,4.4961139999999995,0.31382558,-0.5470578,0.10501556,9.755276759098411,0.6393645328196171,fall
10/07/2020, 21:01:40,-8.73141,-0.5982057,4.706682,0.31382558,-0.5470578,0.10501556,9.937214321669526,0.6393645328196171,fall
10/07/2020, 21:01:40,-8.73141,-0.5982057,4.706682,0.35534334,-0.5262989,0.11356334,9.937214321669526,0.6451015684830704,fall
10/07/2020, 21:01:40,-8.736196000000001,-0.6867401,4.8813580000000005,0.35534334,-0.5262989,0.11356334,10.03097115232036,0.6451015684830704,fall
10/07/2020, 21:01:40,-8.736196000000001,-0.6867401,4.8813580000000005,0.42983112,-0.5092034000000001,0.10745778,10.03097115232036,0.6749741034339024,fall
10/07/2020, 21:01:40,-8.817552000000001,-0.7609176,4.8382874000000005,0.42983112,-0.5092034000000001,0.10745778,10.08648782087027,0.6749741034339024,fall
10/07/2020, 21:01:40,-8.817552000000001,-0.7609176,4.8382874000000005,0.4689067,-0.5006556,0.109900005,10.08648782087027,0.6946995942856453,fall
10/07/2020, 21:01:40,-8.920442999999999,-0.7178468000000001,4.847859,0.4689067,-0.5006556,0.109900005,10.177982897329986,0.6946995942856453,fall
10/07/2020, 21:01:40,-8.920442999999999,-0.7178468000000001,4.847859,0.4823389,-0.49210779999999993,0.10867889,10.177982897329986,0.6975901493686552,fall
10/07/2020, 21:01:40,-8.963513,-0.6580262,5.096712,0.4823389,-0.49210779999999993,0.10867889,10.332184903148326,0.6975901493686552,fall
10/07/2020, 21:01:40,-8.963513,-0.6580262,5.096712,0.52141446,-0.45547447,0.106236674,10.332184903148326,0.7004400459216016,fall
10/07/2020, 21:01:40,-8.910871499999999,-0.78723866,5.465207,0.52141446,-0.45547447,0.106236674,10.482932048837275,0.7004400459216016,fall
10/07/2020, 21:01:40,-8.910871499999999,-0.78723866,5.465207,0.65451556,-0.37366003,0.10867889,10.482932048837275,0.7614614515710986,fall
10/07/2020, 21:01:40,-8.882157000000001,-1.052842,5.8456660000000005,0.65451556,-0.37366003,0.10867889,10.685176894440986,0.7614614515710986,fall
10/07/2020, 21:01:40,-8.882157000000001,-1.052842,5.8456660000000005,0.8498934000000001,-0.28574002,0.091583334,10.685176894440986,0.9013066299349759,fall
10/07/2020, 21:01:40,-8.982656500000001,-1.1653046999999999,6.0083776,0.8498934000000001,-0.28574002,0.091583334,10.869528654814845,0.9013066299349759,fall
10/07/2020, 21:01:40,-8.982656500000001,-1.1653046999999999,6.0083776,1.0599245000000002,-0.23445335,0.045181114,10.869528654814845,1.0864849823395857,fall
10/07/2020, 21:01:40,-9.267402,-1.0504491000000002,5.936593,1.0599245000000002,-0.23445335,0.045181114,11.055827181684963,1.0864849823395857,fall
10/07/2020, 21:01:41,2.036292,-5.898308,4.8263235,-0.5641534,-2.2663822,-2.865948,7.888594231030184,3.697081971461616,fall
10/07/2020, 21:01:41,2.0315065,-7.030112700000001,5.204389,-0.5641534,-2.2663822,-2.865948,8.979708784558179,3.697081971461616,fall
10/07/2020, 21:01:41,2.0315065,-7.030112700000001,5.204389,-0.57270116,-2.21998,-2.9905012,8.979708784558179,3.768208465740518,fall
10/07/2020, 21:01:41,1.8687943999999999,-8.793623,5.544169999999999,-0.57270116,-2.21998,-2.9905012,10.562102893051527,3.768208465740518,fall
10/07/2020, 21:01:41,1.8687943999999999,-8.793623,5.544169999999999,-0.47134890000000007,-2.0710046,-3.1052855999999998,10.562102893051527,3.7621840604130066,fall
10/07/2020, 21:01:41,1.6654046000000002,-10.394422,5.862415299999999,-0.47134890000000007,-2.0710046,-3.1052855999999998,12.049293986902008,3.7621840604130066,fall
10/07/2020, 21:01:41,1.6654046000000002,-10.394422,5.862415299999999,-0.24910668,-1.8292244999999998,-3.1480246,12.049293986902008,3.6494074740439935,fall
10/07/2020, 21:01:41,1.3782659,-11.145767999999999,6.013163,-0.24910668,-1.8292244999999998,-3.1480246,12.739148131625345,3.6494074740439935,fall
10/07/2020, 21:01:41,1.3782659,-11.145767999999999,6.013163,-0.058613338,-1.5605799999999999,-3.108949,12.739148131625345,3.4791391256973383,fall
10/07/2020, 21:01:41,1.1365907,-11.016556,5.881558,-0.058613338,-1.5605799999999999,-3.108949,12.539898870025954,3.4791391256973383,fall
10/07/2020, 21:01:41,1.1365907,-11.016556,5.881558,-0.08914111599999999,-1.3322322,-3.0417879,12.539898870025954,3.321936524612929,fall
10/07/2020, 21:01:41,0.8566305000000001,-10.193424,5.4412785,-0.08914111599999999,-1.3322322,-3.0417879,11.586510454059642,3.321936524612929,fall
10/07/2020, 21:01:41,0.8566305000000001,-10.193424,5.4412785,-0.3712178,-1.1905833000000001,-2.9929435,11.586510454059642,3.2423760270041715,fall
10/07/2020, 21:01:41,0.58624154,-9.080762,4.900501,-0.3712178,-1.1905833000000001,-2.9929435,10.33531924246017,3.2423760270041715,fall
10/07/2020, 21:01:41,0.58624154,-9.080762,4.900501,-0.78273225,-1.1295278,-2.9953856,10.33531924246017,3.29557855513004,fall
10/07/2020, 21:01:41,0.39481574,-8.092526,4.278367,-0.78273225,-1.1295278,-2.9953856,9.162384413271806,3.29557855513004,fall
10/07/2020, 21:01:41,0.39481574,-8.092526,4.278367,-1.2040156000000002,-1.0489344999999999,-2.9917222999999997,9.162384413271806,3.3912121266277024,fall
10/07/2020, 21:01:41,0.31106696,-7.389036,3.8476589,-1.2040156000000002,-1.0489344999999999,-2.9917222999999997,8.336611847694684,3.3912121266277024,fall
10/07/2020, 21:01:41,0.31106696,-7.389036,3.8476589,-1.526389,-0.8987378,-2.9196767999999995,8.336611847694684,3.4149825041383086,fall
10/07/2020, 21:01:41,0.41874397,-6.9678993,3.5198421000000004,-1.526389,-0.8987378,-2.9196767999999995,7.817688675369286,3.4149825041383086,fall
10/07/2020, 21:01:42,-9.104691,-0.6412765,2.8546374,-0.0048844446,0.035412222,0.02075889,9.563241090863817,0.04133781289480993,fall
10/07/2020, 21:01:42,-9.104691,-0.6412765,2.8546374,0.007326666999999999,0.035412222,0.014653333999999999,9.563241090863817,0.03901827441685711,fall
10/07/2020, 21:01:42,-9.116653999999999,-0.6628119,2.9982069,0.007326666999999999,0.035412222,0.014653333999999999,9.619872727734831,0.03901827441685711,fall
10/07/2020, 21:01:42,-9.116653999999999,-0.6628119,2.9982069,0.013432221999999999,0.03297,0.019537778999999998,9.619872727734831,0.04060997776963871,fall
10/07/2020, 21:01:42,-9.12144,-0.6867401,3.0101709999999997,0.013432221999999999,0.03297,0.019537778999999998,9.629818663839526,0.04060997776963871,fall
10/07/2020, 21:01:42,-9.12144,-0.6867401,3.0101709999999997,0.014653333999999999,0.013432221999999999,0.02198,9.629818663839526,0.029635540099191383,fall
10/07/2020, 21:01:42,-9.12144,-0.69152576,3.0197423,0.014653333999999999,0.013432221999999999,0.02198,9.633157197805591,0.029635540099191383,fall
10/07/2020, 21:01:42,-9.12144,-0.69152576,3.0197423,0.007326666999999999,0.0,0.019537778999999998,9.633157197805591,0.020866356742743297,fall
10/07/2020, 21:01:42,-9.109475999999999,-0.67477596,2.9431717,0.007326666999999999,0.0,0.019537778999999998,9.596881634520269,0.020866356742743297,fall
10/07/2020, 21:01:42,-9.109475999999999,-0.67477596,2.9431717,0.006105555699999999,-0.026864445,0.02075889,9.596881634520269,0.03449503884208713,fall
10/07/2020, 21:01:42,-9.135797,-0.6771688,2.8833512999999997,0.006105555699999999,-0.026864445,0.02075889,9.603908109802713,0.03449503884208713,fall
10/07/2020, 21:01:42,-9.135797,-0.6771688,2.8833512999999997,0.014653333999999999,-0.051286668,0.036633335,9.603908109802713,0.06470736988976293,fall
10/07/2020, 21:01:42,-9.145369,-0.6987042,2.8713872000000005,0.014653333999999999,-0.051286668,0.036633335,9.610973864708077,0.06470736988976293,fall
10/07/2020, 21:01:42,-9.145369,-0.6987042,2.8713872000000005,0.014653333999999999,-0.06105556,0.02075889,9.610973864708077,0.06613193686062199,fall
10/07/2020, 21:01:42,-9.128618,-0.6412765,2.952743,0.014653333999999999,-0.06105556,0.02075889,9.615695400750012,0.06613193686062199,fall
10/07/2020, 21:01:42,-9.128618,-0.6412765,2.952743,0.034191112999999995,-0.07570889,0.015874445,9.615695400750012,0.0845746180441789,fall
10/07/2020, 21:01:42,-9.164511,-0.6340979999999999,2.9766715,0.034191112999999995,-0.07570889,0.015874445,9.656651080671859,0.0845746180441789,fall
10/07/2020, 21:01:42,-9.164511,-0.6340979999999999,2.9766715,0.039075557000000004,-0.10501556,0.017095556,9.656651080671859,0.1133464832553767,fall
10/07/2020, 21:01:42,-9.171689,-0.69152576,2.9096723,0.039075557000000004,-0.10501556,0.017095556,9.646982961665897,0.1133464832553767,fall
10/07/2020, 21:01:42,-9.171689,-0.69152576,2.9096723,0.059834447,-0.11844778,0.01099,9.646982961665897,0.13315711718612716,fall
10/07/2020, 21:01:43,-9.351150500000001,-0.4331009,2.7206392000000004,-1.0562612,1.3493278,0.31382558,9.748511174628279,1.7420848705965777,fall
10/07/2020, 21:01:43,-9.351150500000001,-0.4331009,2.7206392000000004,-1.1234223,1.4250367,0.40663,9.748511174628279,1.8596115340392347,fall
10/07/2020, 21:01:43,-9.238688,-0.44267219999999996,2.6512474999999998,-1.1234223,1.4250367,0.40663,9.621768891946829,1.8596115340392347,fall
10/07/2020, 21:01:43,-9.238688,-0.44267219999999996,2.6512474999999998,-1.174709,1.5007457,0.5104245,9.621768891946829,1.9729956486496572,fall
10/07/2020, 21:01:43,-9.260223,-0.6723832,2.737389,-1.174709,1.5007457,0.5104245,9.679728063254636,1.9729956486496572,fall
10/07/2020, 21:01:43,-9.260223,-0.6723832,2.737389,-1.1881411,1.5788968,0.6239878000000001,9.679728063254636,2.0721860534577368,fall
10/07/2020, 21:01:43,-9.360723,-1.0432707,2.952743,-1.1881411,1.5788968,0.6239878000000001,9.870675347346065,2.0721860534577368,fall
10/07/2020, 21:01:43,-9.360723,-1.0432707,2.952743,-1.1319700000000001,1.6411734,0.73999333,9.870675347346065,2.1265926573021345,fall
10/07/2020, 21:01:43,-9.5760765,-1.4979069,3.2207394,-1.1319700000000001,1.6411734,0.73999333,10.213624649677199,2.1265926573021345,fall
10/07/2020, 21:01:43,-9.5760765,-1.4979069,3.2207394,-1.0355023,1.68147,0.8621045,10.213624649677199,2.154722871698005,fall
10/07/2020, 21:01:43,-9.779466000000001,-1.98365,3.4121652,-1.0355023,1.68147,0.8621045,10.545884847096644,2.154722871698005,fall
10/07/2020, 21:01:43,-9.779466000000001,-1.98365,3.4121652,-0.9683412,1.7071134,0.98055226,10.545884847096644,2.19394700523453,fall
10/07/2020, 21:01:43,-9.820144,-2.239682,3.4408788999999995,-0.9683412,1.7071134,0.98055226,10.643826611928947,2.19394700523453,fall
10/07/2020, 21:01:43,-9.820144,-2.239682,3.4408788999999995,-0.9720045,1.7022289000000002,1.0867889,10.643826611928947,2.241313461826926,fall
10/07/2020, 21:01:43,-9.71486,-2.239682,3.4576287000000003,-0.9720045,1.7022289000000002,1.0867889,10.552245058845044,2.241313461826926,fall
10/07/2020, 21:01:43,-9.71486,-2.239682,3.4576287000000003,-1.02207,1.6790278000000003,1.185699,10.552245058845044,2.295570432847968,fall
10/07/2020, 21:01:43,-9.456435,-2.1870399,3.5054849999999997,-1.02207,1.6790278000000003,1.185699,10.319677105632524,2.295570432847968,fall
10/07/2020, 21:01:43,-9.456435,-2.1870399,3.5054849999999997,-1.1185378000000001,1.6594901000000002,1.2907145,10.319677105632524,2.3813815570178245,fall
10/07/2020, 21:01:43,-9.193225,-2.2707887,3.615555,-1.1185378000000001,1.6594901000000002,1.2907145,10.136276617979536,2.3813815570178245,fall
10/07/2020, 21:01:43,-9.193225,-2.2707887,3.615555,-1.2174479,1.6680379,1.3969512,10.136276617979536,2.4931912063369794,fall
10/07/2020, 21:01:44,-3.8763726000000003,-5.221139,6.690332000000001,-0.30894113,-1.80236,-1.5959923,9.329903415205736,2.4271666412340087,fall
10/07/2020, 21:01:44,-3.0675986,-5.2833524,6.463014,-0.30894113,-1.80236,-1.5959923,8.893510272407688,2.4271666412340087,fall
10/07/2020, 21:01:44,-3.0675986,-5.2833524,6.463014,-0.25765446,-1.8145711,-1.6472789,8.893510272407688,2.4642609522013244,fall
10/07/2020, 21:01:44,-2.2372892,-5.221139,6.259624,-0.25765446,-1.8145711,-1.6472789,8.452730184720396,2.4642609522013244,fall
10/07/2020, 21:01:44,-2.2372892,-5.221139,6.259624,-0.1526389,-1.812129,-1.7071134,8.452730184720396,2.494262682744106,fall
10/07/2020, 21:01:44,-1.4715858999999998,-5.2259245000000005,6.0825553,-0.1526389,-1.812129,-1.7071134,8.153117849757505,2.494262682744106,fall
10/07/2020, 21:01:44,-1.4715858999999998,-5.2259245000000005,6.0825553,-0.014653333999999999,-1.7730534,-1.779159,8.153117849757505,2.511839898459731,fall
10/07/2020, 21:01:44,-0.8327023000000001,-5.4341,5.938986,-0.014653333999999999,-1.7730534,-1.779159,8.09286044374895,2.511839898459731,fall
10/07/2020, 21:01:44,-0.8327023000000001,-5.4341,5.938986,0.10379445,-1.6765857,-1.8255612,8.09286044374895,2.4808035756150946,fall
10/07/2020, 21:01:44,-0.3493521,-5.759524,5.517849,0.10379445,-1.6765857,-1.8255612,7.983784773879715,2.4808035756150946,fall
10/07/2020, 21:01:44,-0.3493521,-5.759524,5.517849,0.21857889999999996,-1.5569167,-1.8450990000000003,7.983784773879715,2.424078507135273,fall
10/07/2020, 21:01:44,-0.05503492,-6.0634127,4.914858000000001,0.21857889999999996,-1.5569167,-1.8450990000000003,7.805371857358162,2.424078507135273,fall
10/07/2020, 21:01:44,-0.05503492,-6.0634127,4.914858000000001,0.3492378,-1.4677756000000002,-1.8487623,7.805371857358162,2.3862636376811683,fall
10/07/2020, 21:01:44,0.17228323,-6.1974105999999995,4.244867299999999,0.3492378,-1.4677756000000002,-1.8487623,7.513752594937673,2.3862636376811683,fall
10/07/2020, 21:01:44,0.17228323,-6.1974105999999995,4.244867299999999,0.47989670000000006,-1.4140468000000002,-1.8316667000000002,7.513752594937673,2.363224919113958,fall
10/07/2020, 21:01:44,0.35413775,-6.2117677,3.8093736000000002,0.47989670000000006,-1.4140468000000002,-1.8316667000000002,7.295395707537177,2.363224919113958,fall
10/07/2020, 21:01:44,0.35413775,-6.2117677,3.8093736000000002,0.5421733,-1.3481067,-1.7974756,7.295395707537177,2.3113334140210493,fall
10/07/2020, 21:01:44,0.60777694,-6.1160545,3.4791641,0.5421733,-1.3481067,-1.7974756,7.0625844335589765,2.3113334140210493,fall
10/07/2020, 21:01:44,0.60777694,-6.1160545,3.4791641,0.52752,-1.27484,-1.7608423,7.0625844335589765,2.236975649759356,fall
10/07/2020, 21:01:44,0.7968099000000001,-6.092126400000001,3.225525,0.52752,-1.27484,-1.7608423,6.939230550481531,2.236975649759356,fall
10/07/2020, 21:01:45,-8.989835000000001,-1.3016955,2.9910283,0.09280445,-0.27963445,0.025643334,9.563356675386403,0.2957459539095829,fall
10/07/2020, 21:01:45,-8.930014,-1.2681959999999999,3.0388846000000003,0.09280445,-0.27963445,0.025643334,9.517787811345805,0.2957459539095829,fall
10/07/2020, 21:01:45,-8.930014,-1.2681959999999999,3.0388846000000003,0.091583334,-0.30161446,0.03174889,9.517787811345805,0.31680717102255895,fall
10/07/2020, 21:01:45,-8.982656500000001,-1.2442678,3.0077782,0.091583334,-0.30161446,0.03174889,9.554216311921717,0.31680717102255895,fall
10/07/2020, 21:01:45,-8.982656500000001,-1.2442678,3.0077782,0.09524667,-0.32115224,0.03174889,9.554216311921717,0.3364798389211797,fall
10/07/2020, 21:01:45,-9.0233345,-1.2346965,3.0939197999999997,0.09524667,-0.32115224,0.03174889,9.618595555799864,0.3364798389211797,fall
10/07/2020, 21:01:45,-9.0233345,-1.2346965,3.0939197999999997,0.10013112,-0.34435335,0.03297,9.618595555799864,0.36012843507184816,fall
10/07/2020, 21:01:45,-9.090333,-1.2753743999999998,3.1202407,0.10013112,-0.34435335,0.03297,9.69518620873414,0.36012843507184816,fall
10/07/2020, 21:01:45,-9.090333,-1.2753743999999998,3.1202407,0.10013112,-0.3712178,0.034191112999999995,9.69518620873414,0.38600248489021216,fall
10/07/2020, 21:01:45,-9.114262,-1.2610176000000002,3.0388846000000003,0.10013112,-0.3712178,0.034191112999999995,9.689930348134338,0.38600248489021216,fall
10/07/2020, 21:01:45,-9.114262,-1.2610176000000002,3.0388846000000003,0.09646778,-0.39808223,0.029306669,9.689930348134338,0.4106511562280471,fall
10/07/2020, 21:01:45,-9.0951185,-1.174876,3.0939197999999997,0.09646778,-0.39808223,0.029306669,9.678525401171985,0.4106511562280471,fall
10/07/2020, 21:01:45,-9.0951185,-1.174876,3.0939197999999997,0.09646778,-0.43471557,0.015874445,9.678525401171985,0.44557340155662667,fall
10/07/2020, 21:01:45,-9.080762,-1.1533405,3.0436704,0.09646778,-0.43471557,0.015874445,9.646468818760068,0.44557340155662667,fall
10/07/2020, 21:01:45,-9.080762,-1.1533405,3.0436704,0.09891000400000001,-0.4591378,0.008547778,9.646468818760068,0.4697486246335003,fall
10/07/2020, 21:01:45,-8.980264,-1.0791629999999999,3.101098,0.09891000400000001,-0.4591378,0.008547778,9.561722552296803,0.4697486246335003,fall
10/07/2020, 21:01:45,-8.980264,-1.0791629999999999,3.101098,0.11234222,-0.47745445,-0.008547778,9.561722552296803,0.4905676253727079,fall
10/07/2020, 21:01:45,-8.958728,-1.105484,3.2973095999999997,0.11234222,-0.47745445,-0.008547778,9.610054640158506,0.4905676253727079,fall
10/07/2020, 21:01:45,-8.958728,-1.105484,3.2973095999999997,0.1306589,-0.49455002,-0.019537778999999998,9.610054640158506,0.5118917789591717,fall
10/07/2020, 21:01:45,-9.040084,-1.18684,3.3308089999999995,0.1306589,-0.49455002,-0.019537778999999998,9.707007537998487,0.5118917789591717,fall
10/07/2020, 21:01:46,-10.755738000000001,0.91405827,1.052842,-3.3140957,-1.8463200000000002,-1.4519011999999998,10.845731156587586,4.062037086983231,fall
10/07/2020, 21:01:46,-10.593026,0.567099,1.3543376,-3.3140957,-1.8463200000000002,-1.4519011999999998,10.694299171108325,4.062037086983231,fall
10/07/2020, 21:01:46,-10.593026,0.567099,1.3543376,-3.0784214,-1.8585311999999998,-1.6179723,10.694299171108325,3.94317772986731,fall
10/07/2020, 21:01:46,-10.447063,0.15553348,2.050649,-3.0784214,-1.8585311999999998,-1.6179723,10.647557763778165,3.94317772986731,fall
10/07/2020, 21:01:46,-10.447063,0.15553348,2.050649,-2.6986556,-1.7962544999999999,-1.7303145,10.647557763778165,3.6746782997149814,fall
10/07/2020, 21:01:46,-10.451849000000001,-0.33738798,2.928815,-2.6986556,-1.7962544999999999,-1.7303145,10.859693111501343,3.6746782997149814,fall
10/07/2020, 21:01:46,-10.451849000000001,-0.33738798,2.928815,-2.2370756000000003,-1.7083346000000001,-1.7522944999999999,10.859693111501343,3.315637229316609,fall
10/07/2020, 21:01:46,-10.600204,-0.8662018,3.8428730000000004,-2.2370756000000003,-1.7083346000000001,-1.7522944999999999,11.30850626668415,3.315637229316609,fall
10/07/2020, 21:01:46,-10.600204,-0.8662018,3.8428730000000004,-1.8048023000000002,-1.6301835,-1.6973445,11.30850626668415,2.9657693668543885,fall
10/07/2020, 21:01:46,-10.805987,-1.2777673,4.5726843,-1.8048023000000002,-1.6301835,-1.6973445,11.803029003426134,2.9657693668543885,fall
10/07/2020, 21:01:46,-10.805987,-1.2777673,4.5726843,-1.504409,-1.5532534,-1.62652,11.803029003426134,2.7058103963780984,fall
10/07/2020, 21:01:46,-10.949556,-1.5002997999999999,5.2546387,-1.504409,-1.5532534,-1.62652,12.237438922146694,2.7058103963780984,fall
10/07/2020, 21:01:46,-10.949556,-1.5002997999999999,5.2546387,-1.3749712,-1.4812078000000002,-1.5776756,12.237438922146694,2.563899879800928,fall
10/07/2020, 21:01:46,-11.066805,-1.4859428,5.7547383000000005,-1.3749712,-1.4812078000000002,-1.5776756,12.56181554408836,2.563899879800928,fall
10/07/2020, 21:01:46,-11.066805,-1.4859428,5.7547383000000005,-1.3481067,-1.4519011999999998,-1.5447056000000001,12.56181554408836,2.5122747373686605,fall
10/07/2020, 21:01:46,-11.160125,-1.3591232,6.128019,-1.3481067,-1.4519011999999998,-1.5447056000000001,12.804226494856096,2.5122747373686605,fall
10/07/2020, 21:01:46,-11.160125,-1.3591232,6.128019,-1.3481067,-1.4592278,-1.4885344999999999,12.804226494856096,2.4824327526356984,fall
10/07/2020, 21:01:46,-11.117054,-1.3902299999999999,6.3361945,-1.3481067,-1.4592278,-1.4885344999999999,12.871246619526909,2.4824327526356984,fall
10/07/2020, 21:01:46,-11.117054,-1.3902299999999999,6.3361945,-1.350549,-1.5105145,-1.3676445,12.871246619526909,2.4446038969949506,fall
10/07/2020, 21:01:46,-10.877771000000001,-1.7611175,6.4055862,-1.350549,-1.5105145,-1.3676445,12.74593974397254,2.4446038969949506,fall
10/07/2020, 21:01:47,5.883950700000001,27.074790000000004,-12.997812,-3.0124812000000003,-5.87965,-1.5349368,30.604055315416012,6.7824302044798985,fall
10/07/2020, 21:01:47,5.883950700000001,27.074790000000004,-12.997812,-4.559629,-3.3226435,1.2040156000000002,30.604055315416012,5.76886729181668,fall
10/07/2020, 21:01:47,11.322837,16.309479,-14.81875,-4.559629,-3.3226435,1.2040156000000002,24.775009489446173,5.76886729181668,fall
10/07/2020, 21:01:47,11.322837,16.309479,-14.81875,-3.3849201,0.67161113,2.3335435,24.775009489446173,4.16583379160627,fall
10/07/2020, 21:01:47,11.389835,2.9455647000000003,-5.4819565,-3.3849201,0.67161113,2.3335435,12.979081170193734,4.16583379160627,fall
10/07/2020, 21:01:47,11.389835,2.9455647000000003,-5.4819565,-1.5361578000000002,3.2139645,0.8950745000000001,12.979081170193734,3.672942530289893,fall
10/07/2020, 21:01:47,3.9816568,-14.787644,9.899107,-1.5361578000000002,3.2139645,0.8950745000000001,18.23514014961309,3.672942530289893,fall
10/07/2020, 21:01:47,3.9816568,-14.787644,9.899107,0.29795113,2.647369,0.42006224,18.23514014961309,2.6969963478922736,fall
10/07/2020, 21:01:47,-6.1639113,-19.475182999999998,18.920048,0.29795113,2.647369,0.42006224,27.84321788390598,2.6969963478922736,fall
10/07/2020, 21:01:47,-6.1639113,-19.475182999999998,18.920048,0.91583335,0.15141778,-0.35534334,27.84321788390598,0.9939552133005104,fall
10/07/2020, 21:01:47,-11.303694,-13.651053,20.348564,0.91583335,0.15141778,-0.35534334,26.98497388310379,0.9939552133005104,fall
10/07/2020, 21:01:47,-11.303694,-13.651053,20.348564,0.3712178,-2.0514667,-1.0611455,26.98497388310379,2.33930505630716,fall
10/07/2020, 21:01:47,-8.60459,-5.994021,20.511276000000002,0.3712178,-2.0514667,-1.0611455,23.036486634152737,2.33930505630716,fall
10/07/2020, 21:01:47,-8.60459,-5.994021,20.511276000000002,-0.92560226,-2.4068099999999997,-1.2821666999999999,23.036486634152737,2.879830833389304,fall
10/07/2020, 21:01:47,-3.4887354,-0.2943172,17.812172,-0.92560226,-2.4068099999999997,-1.2821666999999999,18.152998833165423,2.879830833389304,fall
10/07/2020, 21:01:47,-3.4887354,-0.2943172,17.812172,-2.1479343999999996,-1.8475412,-0.89019006,18.152998833165423,2.969759119913164,fall
10/07/2020, 21:01:47,-1.1844472,1.8209380000000002,13.110275,-2.1479343999999996,-1.8475412,-0.89019006,13.289019823964967,2.969759119913164,fall
10/07/2020, 21:01:47,-1.1844472,1.8209380000000002,13.110275,-2.7670379,-1.4763233999999998,-0.6667267,13.289019823964967,3.2063302622947365,fall
10/07/2020, 21:01:47,-0.6628119,0.23449662,8.080561999999999,-2.7670379,-1.4763233999999998,-0.6667267,8.111090224623142,3.2063302622947365,fall
10/07/2020, 21:01:47,-0.6628119,0.23449662,8.080561999999999,-2.536248,-1.3822979,-0.6459678000000001,8.111090224623142,2.959826945020331,fall
10/07/2020, 21:01:48,6.2548385,-1.3639089,2.1391835,-0.39930335,-2.603409,-2.9905012,6.749767242896607,3.985006784751067,fall
10/07/2020, 21:01:48,5.8600224999999995,-1.2681959999999999,2.2971098,-0.39930335,-2.603409,-2.9905012,6.420661875124233,3.985006784751067,fall
10/07/2020, 21:01:48,5.8600224999999995,-1.2681959999999999,2.2971098,-0.33336335,-2.4800767999999995,-2.9978279999999997,6.420661875124233,3.9049820444568977,fall
10/07/2020, 21:01:48,5.3742795,-1.4404793,1.9716859,-0.33336335,-2.4800767999999995,-2.9978279999999997,5.902999739156978,3.9049820444568977,fall
10/07/2020, 21:01:48,5.3742795,-1.4404793,1.9716859,-0.32481557,-2.4446645,-2.9465413,5.902999739156978,3.842394468893227,fall
10/07/2020, 21:01:48,5.089534,-1.5984055,1.4045869,-0.32481557,-2.4446645,-2.9465413,5.516440775690782,3.842394468893227,fall
10/07/2020, 21:01:48,5.089534,-1.5984055,1.4045869,-0.24910668,-2.4629812,-2.8195457000000004,5.516440775690782,3.7520885995313455,fall
10/07/2020, 21:01:48,5.2283173,-1.4452649,0.8111669,-0.24910668,-2.4629812,-2.8195457000000004,5.4847136501398746,3.7520885995313455,fall
10/07/2020, 21:01:48,5.2283173,-1.4452649,0.8111669,-0.09524667,-2.4434435000000003,-2.6742334,5.4847136501398746,3.6236739256340456,fall
10/07/2020, 21:01:48,5.706882,-0.8350950999999999,0.23449662,-0.09524667,-2.4434435000000003,-2.6742334,5.772423638868448,3.6236739256340456,fall
10/07/2020, 21:01:48,5.706882,-0.8350950999999999,0.23449662,0.106236674,-2.3567445,-2.5838711,5.772423638868448,3.4988456663525933,fall
10/07/2020, 21:01:48,6.367301,-0.038285162000000005,-0.09332009,0.106236674,-2.3567445,-2.5838711,6.368099893560798,3.4988456663525933,fall
10/07/2020, 21:01:48,6.367301,-0.038285162000000005,-0.09332009,0.24055889,-2.2028844,-2.5338056,6.368099893560798,3.366116349820726,fall
10/07/2020, 21:01:48,6.9009004,0.63888365,-0.46660042,0.24055889,-2.2028844,-2.5338056,6.946100640040232,3.366116349820726,fall
10/07/2020, 21:01:48,6.9009004,0.63888365,-0.46660042,0.19537778,-1.9965167000000001,-2.4751923,6.946100640040232,3.1860364707531863,fall
10/07/2020, 21:01:48,7.233503,1.0959128,-0.64845496,0.19537778,-1.9965167000000001,-2.4751923,7.344731610641491,3.1860364707531863,fall
10/07/2020, 21:01:48,7.233503,1.0959128,-0.64845496,0.03052778,-1.7925912,-2.4104732999999996,7.344731610641491,3.004113340354704,fall
10/07/2020, 21:01:48,7.2406809999999995,1.2849457,-0.6891329,0.03052778,-1.7925912,-2.4104732999999996,7.3860309733658,3.004113340354704,fall
10/07/2020, 21:01:48,7.2406809999999995,1.2849457,-0.6891329,-0.19293556,-1.6643744999999999,-2.3079002,7.3860309733658,2.8519764718915277,fall
10/07/2020, 21:01:48,7.032505499999999,1.1844472,-0.71306115,-0.19293556,-1.6643744999999999,-2.3079002,7.167112744034978,2.8519764718915277,fall
10/07/2020, 21:01:49,0.5623133000000001,-3.414558,8.834301,0.26620224,0.18316667,0.054950003,9.487901570907342,0.3277699867194328,fall
10/07/2020, 21:01:49,0.71306115,-3.3212377999999996,8.62134,0.26620224,0.18316667,0.054950003,9.266421998921732,0.3277699867194328,fall
10/07/2020, 21:01:49,0.71306115,-3.3212377999999996,8.62134,0.31382558,0.2295689,0.06960334,9.266421998921732,0.3950101227932307,fall
10/07/2020, 21:01:49,0.8446664,-3.1561332,8.592627,0.31382558,0.2295689,0.06960334,9.1928161833608,0.3950101227932307,fall
10/07/2020, 21:01:49,0.8446664,-3.1561332,8.592627,0.30894113,0.31504667,0.08303556,9.1928161833608,0.4489921227303221,fall
10/07/2020, 21:01:49,0.863809,-3.0364918999999997,8.889337,0.30894113,0.31504667,0.08303556,9.433279058284937,0.4489921227303221,fall
10/07/2020, 21:01:49,0.863809,-3.0364918999999997,8.889337,0.25277,0.37976557,0.11112112,9.433279058284937,0.4695343091061809,fall
10/07/2020, 21:01:49,0.71306115,-3.1058838,9.066405,0.25277,0.37976557,0.11112112,9.6101340060266,0.4695343091061809,fall
10/07/2020, 21:01:49,0.71306115,-3.1058838,9.066405,0.21491556,0.39808223,0.14409111,9.6101340060266,0.4747845887200594,fall
10/07/2020, 21:01:49,0.552742,-3.2733814999999997,9.202796000000001,0.21491556,0.39808223,0.14409111,9.783251191460591,0.4747845887200594,fall
10/07/2020, 21:01:49,0.552742,-3.2733814999999997,9.202796000000001,0.21369445,0.38465002,0.14531223,9.783251191460591,0.463396810714342,fall
10/07/2020, 21:01:49,0.4019942,-3.5389847999999997,9.394221,0.21369445,0.38465002,0.14531223,10.046760996482199,0.463396810714342,fall
10/07/2020, 21:01:49,0.4019942,-3.5389847999999997,9.394221,0.23811668,0.36389112,0.13798556,10.046760996482199,0.4562415135943012,fall
10/07/2020, 21:01:49,0.32303107,-3.7639099999999996,9.305686999999999,0.23811668,0.36389112,0.13798556,10.043265285665642,0.4562415135943012,fall
10/07/2020, 21:01:49,0.32303107,-3.7639099999999996,9.305686999999999,0.3162678,0.34801668,0.14042778,10.043265285665642,0.4907757994472086,fall
10/07/2020, 21:01:49,0.41635114,-3.7495529999999997,8.760123,0.3162678,0.34801668,0.14042778,9.537937676218188,0.4907757994472086,fall
10/07/2020, 21:01:49,0.41635114,-3.7495529999999997,8.760123,0.44204223,0.3809867,0.14897557,9.537937676218188,0.6022839132091097,fall
10/07/2020, 21:01:49,0.6580262,-3.438486,8.518449,0.44204223,0.3809867,0.14897557,9.209785861907406,0.6022839132091097,fall
10/07/2020, 21:01:49,0.6580262,-3.438486,8.518449,0.49821335,0.49455002,0.16851334,9.209785861907406,0.7219369857260158,fall
10/07/2020, 21:01:49,0.8207382,-3.0963125,8.85823,0.49821335,0.49455002,0.16851334,9.419606930800851,0.7219369857260158,fall
10/07/2020, 21:01:50,5.06082,4.206582,-2.821138,0.27475002,0.6325356,-0.5800278,7.160031557059628,0.9011221349617672,fall
10/07/2020, 21:01:50,4.766503,4.986642400000001,-2.6871397,0.27475002,0.6325356,-0.5800278,7.403166319532669,0.9011221349617672,fall
10/07/2020, 21:01:50,4.766503,4.986642400000001,-2.6871397,0.24666445,0.8767578000000001,-0.14653334,7.403166319532669,0.9225072418978352,fall
10/07/2020, 21:01:50,4.4721855999999995,5.73081,-2.5196424,0.24666445,0.8767578000000001,-0.14653334,7.6935834878783345,0.9225072418978352,fall
10/07/2020, 21:01:50,4.4721855999999995,5.73081,-2.5196424,0.03174889,1.0721356000000002,0.32359445,7.6935834878783345,1.1203553169465954,fall
10/07/2020, 21:01:50,4.199404,6.2644095,-2.199004,0.03174889,1.0721356000000002,0.32359445,7.855790041723707,1.1203553169465954,fall
10/07/2020, 21:01:50,4.199404,6.2644095,-2.199004,-0.29917222,1.2345434,0.7973856,7.855790041723707,1.4998084155678082,fall
10/07/2020, 21:01:50,3.9864426,6.431907,-1.8568304,-0.29917222,1.2345434,0.7973856,7.791596321987301,1.4998084155678082,fall
10/07/2020, 21:01:50,3.9864426,6.431907,-1.8568304,-0.61544,1.3774133999999998,1.2601867,7.791596321987301,1.9657325628458884,fall
10/07/2020, 21:01:50,3.8069808,6.1447687,-1.5290136,-0.61544,1.3774133999999998,1.2601867,7.388448310113295,1.9657325628458884,fall
10/07/2020, 21:01:50,3.8069808,6.1447687,-1.5290136,-0.8779789000000001,1.51662,1.6949023,7.388448310113295,2.437965779196013,fall
10/07/2020, 21:01:50,3.7160535000000006,5.477171,-1.3016955,-0.8779789000000001,1.51662,1.6949023,6.745581231317511,2.437965779196013,fall
10/07/2020, 21:01:50,3.7160535000000006,5.477171,-1.3016955,-1.0904523000000002,1.6619323000000001,2.0978689999999998,6.745581231317511,2.8900102740394207,fall
10/07/2020, 21:01:50,3.6059837,4.620540599999999,-1.3567305,-1.0904523000000002,1.6619323000000001,2.0978689999999998,6.016081103660519,2.8900102740394207,fall
10/07/2020, 21:01:50,3.6059837,4.620540599999999,-1.3567305,-1.2760612,1.8194556,2.4556546000000004,6.016081103660519,3.3119466349399387,fall
10/07/2020, 21:01:50,3.5294135000000004,3.7495529999999997,-1.5696917,-1.2760612,1.8194556,2.4556546000000004,5.383292554130208,3.3119466349399387,fall
10/07/2020, 21:01:50,3.5294135000000004,3.7495529999999997,-1.5696917,-1.4531223,1.9818633999999997,2.7743645,5.383292554130208,3.7062710333323126,fall
10/07/2020, 21:01:50,3.4432718999999996,3.0029924,-1.8927227,-1.4531223,1.9818633999999997,2.7743645,4.945349717536294,3.7062710333323126,fall
10/07/2020, 21:01:50,3.4432718999999996,3.0029924,-1.8927227,-1.6179723,2.1479343999999996,3.0588834,4.945349717536294,4.0728643964090265,fall
10/07/2020, 21:01:50,3.3092737000000003,2.3449662,-2.2420747000000003,-1.6179723,2.1479343999999996,3.0588834,4.634334687070868,4.0728643964090265,fall
10/07/2020, 21:01:51,-9.080762,-1.0983056,3.1752756,-0.10867889,0.21980001,-0.15019667,9.682400886090512,0.28754510304542125,fall
10/07/2020, 21:01:51,-9.013762,-1.2203395000000001,3.2805598,-0.10867889,0.21980001,-0.15019667,9.669499210505053,0.28754510304542125,fall
10/07/2020, 21:01:51,-9.013762,-1.2203395000000001,3.2805598,-0.08303556,0.22712667,-0.14775445,9.669499210505053,0.2833951405921117,fall
10/07/2020, 21:01:51,-9.02812,-1.3734802,3.3643086,-0.08303556,0.22712667,-0.14775445,9.732007586387207,0.2833951405921117,fall
10/07/2020, 21:01:51,-9.02812,-1.3734802,3.3643086,-0.07570889,0.23567446,-0.13432223,9.732007586387207,0.2816322873936255,fall
10/07/2020, 21:01:51,-9.01137,-1.4811572,3.3068809999999997,-0.07570889,0.23567446,-0.13432223,9.712572892394586,0.2816322873936255,fall
10/07/2020, 21:01:51,-9.01137,-1.4811572,3.3068809999999997,-0.07326667,0.24422224,-0.12455334,9.712572892394586,0.2837711062374817,fall
10/07/2020, 21:01:51,-9.008977,-1.5314065000000001,3.2183464,-0.07326667,0.24422224,-0.12455334,9.688375748821603,0.2837711062374817,fall
10/07/2020, 21:01:51,-9.008977,-1.5314065000000001,3.2183464,-0.07937223,0.24300112,-0.10379445,9.688375748821603,0.27590357264331844,fall
10/07/2020, 21:01:51,-9.0233345,-1.5840486,3.1274192000000003,-0.07937223,0.24300112,-0.10379445,9.68041975719783,0.27590357264331844,fall
10/07/2020, 21:01:51,-9.0233345,-1.5840486,3.1274192000000003,-0.10013112,0.23445335,-0.07815111400000001,9.68041975719783,0.2666499778484814,fall
10/07/2020, 21:01:51,-9.01137,-1.6582261000000003,3.0963125,-0.10013112,0.23445335,-0.07815111400000001,9.671693187304108,0.2666499778484814,fall
10/07/2020, 21:01:51,-9.01137,-1.6582261000000003,3.0963125,-0.09402556,0.22834780000000002,-0.06105556,9.671693187304108,0.2543841620785645,fall
10/07/2020, 21:01:51,-8.896514999999999,-1.6582261000000003,3.0795627,-0.09402556,0.22834780000000002,-0.06105556,9.559361764349898,0.2543841620785645,fall
10/07/2020, 21:01:51,-8.896514999999999,-1.6582261000000003,3.0795627,-0.06838222599999999,0.22102112,-0.05372889,9.559361764349898,0.2375147490776373,fall
10/07/2020, 21:01:51,-8.829514999999999,-1.5792629999999999,2.9982069,-0.06838222599999999,0.22102112,-0.05372889,9.457465785347946,0.2375147490776373,fall
10/07/2020, 21:01:51,-8.829514999999999,-1.5792629999999999,2.9982069,-0.042738892,0.21003112,-0.05372889,9.457465785347946,0.22096714389797845,fall
10/07/2020, 21:01:51,-8.800801,-1.4452649,2.9240294,-0.042738892,0.21003112,-0.05372889,9.38577868347335,0.22096714389797845,fall
10/07/2020, 21:01:51,-8.800801,-1.4452649,2.9240294,-0.03174889,0.18927222,-0.05617111,9.38577868347335,0.19996789989474606,fall
10/07/2020, 21:01:51,-8.891729,-1.3615161,2.8498517999999997,-0.03174889,0.18927222,-0.05617111,9.436007238650786,0.19996789989474606,fall
10/07/2020, 21:01:52,-7.743174000000001,-1.0887343,4.1108693999999995,-0.21980001,-0.93537116,-0.27597109999999997,8.834100654173623,0.9996956079527176,fall
10/07/2020, 21:01:52,-7.743174000000001,-1.0887343,4.1108693999999995,-0.5470578,-0.9964267,-0.45547447,8.834100654173623,1.224579685237425,fall
10/07/2020, 21:01:52,-8.035098,-0.17467605,3.8572302000000005,-0.5470578,-0.9964267,-0.45547447,8.914681010620697,1.224579685237425,fall
10/07/2020, 21:01:52,-8.035098,-0.17467605,3.8572302000000005,-0.96223557,-1.1136534,-0.59834445,8.914681010620697,1.588753382441959,fall
10/07/2020, 21:01:52,-8.360522,0.8063812,3.1728827999999996,-0.96223557,-1.1136534,-0.59834445,8.978628433366497,1.588753382441959,fall
10/07/2020, 21:01:52,-8.360522,0.8063812,3.1728827999999996,-1.3993934,-1.2626289,-0.6899278,8.978628433366497,2.007120863705537,fall
10/07/2020, 21:01:52,-8.63809,1.4763715,2.629712,-1.3993934,-1.2626289,-0.6899278,9.149407619970642,2.007120863705537,fall
10/07/2020, 21:01:52,-8.63809,1.4763715,2.629712,-1.8218979,-1.4531223,-0.7717421999999999,9.149407619970642,2.4548853713980434,fall
10/07/2020, 21:01:52,-8.796016,1.7084754,2.1176481,-1.8218979,-1.4531223,-0.7717421999999999,9.207237071707796,2.4548853713980434,fall
10/07/2020, 21:01:52,-8.796016,1.7084754,2.1176481,-2.2016635,-1.6997868000000003,-0.8523356,9.207237071707796,2.909136156003925,fall
10/07/2020, 21:01:52,-8.769695,1.550549,2.0291135,-2.2016635,-1.6997868000000003,-0.8523356,9.133950917119373,2.909136156003925,fall
10/07/2020, 21:01:52,-8.769695,1.550549,2.0291135,-2.3408701,-1.8976066999999999,-0.9842155999999999,9.133950917119373,3.170057524118413,fall
10/07/2020, 21:01:52,-8.4705925,1.0695918,2.8498517999999997,-2.3408701,-1.8976066999999999,-0.9842155999999999,9.000923250584119,3.170057524118413,fall
10/07/2020, 21:01:52,-8.4705925,1.0695918,2.8498517999999997,-2.2541710999999998,-2.0184968,-1.1515079,9.000923250584119,3.237527910750996,fall
10/07/2020, 21:01:52,-8.068598,0.3804588,4.508078,-2.2541710999999998,-2.0184968,-1.1515079,9.25039390485094,3.237527910750996,fall
10/07/2020, 21:01:52,-8.068598,0.3804588,4.508078,-2.1601458,-2.0514667,-1.339559,9.25039390485094,3.2663685558306232,fall
10/07/2020, 21:01:52,-7.8293157,-0.34456646,6.5682982999999995,-2.1601458,-2.0514667,-1.339559,10.225431671614253,3.2663685558306232,fall
10/07/2020, 21:01:52,-7.8293157,-0.34456646,6.5682982999999995,-2.1796834,-2.1857889,-1.5129567,10.225431671614253,3.437692686192697,fall
10/07/2020, 21:01:52,-8.252846,-0.6269195,9.449257000000001,-2.1796834,-2.1857889,-1.5129567,12.561486662871074,3.437692686192697,fall
10/07/2020, 21:01:52,-8.252846,-0.6269195,9.449257000000001,-2.2566135,-2.4446645,-1.5984346,12.561486662871074,3.6910272194241855,fall
10/07/2020, 21:01:53,-7.3842506,-0.92602235,4.902893499999999,-0.13554333,0.6801589,0.09646778,8.911960503599271,0.7002100927877636,fall
10/07/2020, 21:01:53,-7.5708910000000005,-1.3998013,4.9292145,-0.13554333,0.6801589,0.09646778,9.141935680660424,0.7002100927877636,fall
10/07/2020, 21:01:53,-7.5708910000000005,-1.3998013,4.9292145,-0.16607112,0.66306335,0.11966889,9.141935680660424,0.6939403883166578,fall
10/07/2020, 21:01:53,-7.9944205,-1.6175481000000003,4.687539599999999,-0.16607112,0.66306335,0.11966889,9.407457082421047,0.6939403883166578,fall
10/07/2020, 21:01:53,-7.9944205,-1.6175481000000003,4.687539599999999,-0.17828223,0.59468114,0.15752333,9.407457082421047,0.6405027848734052,fall
10/07/2020, 21:01:53,-8.238488,-1.7132610000000001,4.2352962,-0.17828223,0.59468114,0.15752333,9.420492841673296,0.6405027848734052,fall
10/07/2020, 21:01:53,-8.238488,-1.7132610000000001,4.2352962,-0.15141778,0.53851,0.18683001,9.420492841673296,0.5897676185075099,fall
10/07/2020, 21:01:53,-8.255239,-1.5577276000000002,4.0295134,-0.15141778,0.53851,0.18683001,9.31732023421098,0.5897676185075099,fall
10/07/2020, 21:01:53,-8.255239,-1.5577276000000002,4.0295134,-0.102573335,0.52752,0.18683001,9.31732023421098,0.5689499930589201,fall
10/07/2020, 21:01:53,-8.116454,-1.3112668,4.2855453,-0.102573335,0.52752,0.18683001,9.271577377218733,0.5689499930589201,fall
10/07/2020, 21:01:53,-8.116454,-1.3112668,4.2855453,-0.08059334,0.5372889,0.17950334,9.271577377218733,0.572185372817414,fall
10/07/2020, 21:01:53,-8.02792,-1.2705889,4.706682,-0.08059334,0.5372889,0.17950334,9.39227072073987,0.572185372817414,fall
10/07/2020, 21:01:53,-8.02792,-1.2705889,4.706682,-0.07815111400000001,0.5507211,0.18927222,9.39227072073987,0.5875587728785836,fall
10/07/2020, 21:01:53,-8.154739,-1.4476577,4.8047876,-0.07815111400000001,0.5507211,0.18927222,9.575044198746687,0.5875587728785836,fall
10/07/2020, 21:01:53,-8.154739,-1.4476577,4.8047876,-0.07448778,0.56293225,0.21125223,9.575044198746687,0.6058619106262406,fall
10/07/2020, 21:01:53,-8.262417,-1.4763715,4.725825,-0.07448778,0.56293225,0.21125223,9.63226999557276,0.6058619106262406,fall
10/07/2020, 21:01:53,-8.262417,-1.4763715,4.725825,-0.06838222599999999,0.56659555,0.22712667,9.63226999557276,0.6142419527846658,fall
10/07/2020, 21:01:53,-8.449057,-1.4045869,4.6037908,-0.06838222599999999,0.56659555,0.22712667,9.723904134245435,0.6142419527846658,fall
10/07/2020, 21:01:53,-8.449057,-1.4045869,4.6037908,-0.08303556,0.5556055999999999,0.23933779,9.723904134245435,0.6106349582946243,fall
10/07/2020, 21:01:53,-8.645268,-1.3663018,4.5463629999999995,-0.08303556,0.5556055999999999,0.23933779,9.862903342962246,0.6106349582946243,fall
10/07/2020, 21:01:54,-9.710074,0.040677983,6.183053500000001,0.15874445,-1.1344123,0.0048844446,11.511618067668278,1.1454758401088208,fall
10/07/2020, 21:01:54,-9.710074,0.040677983,6.183053500000001,-0.081814446,-1.1698245,0.02075889,11.511618067668278,1.1728656578529848,fall
10/07/2020, 21:01:54,-9.700503,0.014356935,5.898308,-0.081814446,-1.1698245,0.02075889,11.352973454494329,1.1728656578529848,fall
10/07/2020, 21:01:54,-9.700503,0.014356935,5.898308,-0.34191114,-1.0745778,0.034191112999999995,11.352973454494329,1.128179827928429,fall
10/07/2020, 21:01:54,-9.602397,0.09571291,5.1876397,-0.34191114,-1.0745778,0.034191112999999995,10.914522171378676,1.128179827928429,fall
10/07/2020, 21:01:54,-9.602397,0.09571291,5.1876397,-0.59834445,-0.94758224,-0.029306669,10.914522171378676,1.1210651483165448,fall
10/07/2020, 21:01:54,-9.454042,0.16271193,4.0869412,-0.59834445,-0.94758224,-0.029306669,10.300897157409665,1.1210651483165448,fall
10/07/2020, 21:01:54,-9.454042,0.16271193,4.0869412,-0.81448114,-0.99886894,-0.13188,10.300897157409665,1.2955736275332372,fall
10/07/2020, 21:01:54,-9.209974,0.10289137,3.6586258000000003,-0.81448114,-0.99886894,-0.13188,9.910588079552175,1.2955736275332372,fall
10/07/2020, 21:01:54,-9.209974,0.10289137,3.6586258000000003,-0.8498934000000001,-1.0074167,-0.27963445,9.910588079552175,1.347368790553238,fall
10/07/2020, 21:01:54,-8.941978,-0.12921242,3.6227336,-0.8498934000000001,-1.0074167,-0.27963445,9.648827556685992,1.347368790553238,fall
10/07/2020, 21:01:54,-8.941978,-0.12921242,3.6227336,-0.7888378,-0.84745115,-0.43837890000000007,9.648827556685992,1.2379881147517504,fall
10/07/2020, 21:01:54,-8.707481,-0.54317075,3.2925239,-0.7888378,-0.84745115,-0.43837890000000007,9.32501902926466,1.2379881147517504,fall
10/07/2020, 21:01:54,-8.707481,-0.54317075,3.2925239,-0.72778225,-0.6752745,-0.54461557,9.32501902926466,1.1323730643011696,fall
10/07/2020, 21:01:54,-8.568698,-0.9403792999999999,2.8546374,-0.72778225,-0.6752745,-0.54461557,9.080520473516094,1.1323730643011696,fall
10/07/2020, 21:01:54,-8.568698,-0.9403792999999999,2.8546374,-0.7265611,-0.5360678000000001,-0.6191034000000001,9.080520473516094,1.094782502835234,fall
10/07/2020, 21:01:54,-8.496913000000001,-1.1030912,2.510071,-0.7265611,-0.5360678000000001,-0.6191034000000001,8.928314325297912,1.094782502835234,fall
10/07/2020, 21:01:54,-8.496913000000001,-1.1030912,2.510071,-0.80471224,-0.40174556,-0.68138003,8.928314325297912,1.128379380303697,fall
10/07/2020, 21:01:54,-8.477771,-0.8111669,2.160719,-0.80471224,-0.40174556,-0.68138003,8.786312979937888,1.128379380303697,fall
10/07/2020, 21:01:54,-8.477771,-0.8111669,2.160719,-0.9512456,-0.3284789,-0.7436567,8.786312979937888,1.2513160560478715,fall
10/07/2020, 21:01:55,-1.1820544,-4.331009,4.4721855999999995,-0.14042778,-1.2235534,-1.7034501,6.3368237264137095,2.1020335676357256,fall
10/07/2020, 21:01:55,-0.9092726000000001,-3.8285162000000006,4.1204405,-0.14042778,-1.2235534,-1.7034501,5.697573439057983,2.1020335676357256,fall
10/07/2020, 21:01:55,-0.9092726000000001,-3.8285162000000006,4.1204405,-0.21247335,-1.1331911,-1.6533846,5.697573439057983,2.0156754541506645,fall
10/07/2020, 21:01:55,-0.55034924,-3.4193434999999996,3.8524443999999995,-0.21247335,-1.1331911,-1.6533846,5.180359253175976,2.0156754541506645,fall
10/07/2020, 21:01:55,-0.55034924,-3.4193434999999996,3.8524443999999995,-0.27963445,-1.0245123,-1.6350678,5.180359253175976,1.949683983482681,fall
10/07/2020, 21:01:55,-0.21056839999999996,-3.2327034,3.6083765,-0.27963445,-1.0245123,-1.6350678,4.849236188940282,1.949683983482681,fall
10/07/2020, 21:01:55,-0.21056839999999996,-3.2327034,3.6083765,-0.39197668,-0.8999589,-1.6326256000000001,4.849236188940282,1.9050034231152424,fall
10/07/2020, 21:01:55,0.050249275,-3.2590244,3.3834512,-0.39197668,-0.8999589,-1.6326256000000001,4.698032257304664,1.9050034231152424,fall
10/07/2020, 21:01:55,0.050249275,-3.2590244,3.3834512,-0.5104245,-0.75953114,-1.61553,4.698032257304664,1.8567062083752024,fall
10/07/2020, 21:01:55,0.14596218,-3.4097722000000004,3.1752756,-0.5104245,-0.75953114,-1.61553,4.6615690527325535,1.8567062083752024,fall
10/07/2020, 21:01:55,0.14596218,-3.4097722000000004,3.1752756,-0.59956557,-0.60933447,-1.5544745,4.6615690527325535,1.7740231817995742,fall
10/07/2020, 21:01:55,0.16749759,-3.5509489000000003,2.969493,-0.59956557,-0.60933447,-1.5544745,4.631973811763044,1.7740231817995742,fall
10/07/2020, 21:01:55,0.16749759,-3.5509489000000003,2.969493,-0.64841,-0.4591378,-1.4604489999999999,4.631973811763044,1.6625745992518022,fall
10/07/2020, 21:01:55,0.17467605,-3.6921253,2.8307092000000003,-0.64841,-0.4591378,-1.4604489999999999,4.655664913325898,1.6625745992518022,fall
10/07/2020, 21:01:55,0.17467605,-3.6921253,2.8307092000000003,-0.7387723,-0.2942878,-1.3798556,4.655664913325898,1.5926052079724489,fall
10/07/2020, 21:01:55,0.17946170000000003,-3.7686956,2.5459633,-0.7387723,-0.2942878,-1.3798556,4.55161532151878,1.5926052079724489,fall
10/07/2020, 21:01:55,0.17946170000000003,-3.7686956,2.5459633,-0.8962956,-0.14897557,-1.3053678,4.55161532151878,1.5904479555817046,fall
10/07/2020, 21:01:55,0.2009971,-3.7040894,2.2731814,-0.8962956,-0.14897557,-1.3053678,4.3506358147472115,1.5904479555817046,fall
10/07/2020, 21:01:55,0.2009971,-3.7040894,2.2731814,-1.0525978,-0.024422223,-1.2040156000000002,4.3506358147472115,1.5994411796439048,fall
10/07/2020, 21:01:55,0.30388847,-3.4887354,2.0338993000000003,-1.0525978,-0.024422223,-1.2040156000000002,4.049736972485763,1.5994411796439048,fall
10/07/2020, 21:01:56,-8.803194,-2.1535404,3.3403803999999995,-0.02075889,0.109900005,-0.008547778,9.658783720944713,0.11216954642632923,fall
10/07/2020, 21:01:56,-8.829514999999999,-2.184647,3.2590244,-0.02075889,0.109900005,-0.008547778,9.662001138827929,0.11216954642632923,fall
10/07/2020, 21:01:56,-8.829514999999999,-2.184647,3.2590244,-0.018316668,0.09280445,0.0,9.662001138827929,0.09459474434766164,fall
10/07/2020, 21:01:56,-8.819944,-2.1511476000000003,3.237489,-0.018316668,0.09280445,0.0,9.638474456005348,0.09459474434766164,fall
10/07/2020, 21:01:56,-8.819944,-2.1511476000000003,3.237489,-0.02075889,0.07815111400000001,0.0036633335999999997,9.638474456005348,0.08094410525238999,fall
10/07/2020, 21:01:56,-8.85823,-2.2085752,3.2446675,-0.02075889,0.07815111400000001,0.0036633335999999997,9.688854644089108,0.08094410525238999,fall
10/07/2020, 21:01:56,-8.85823,-2.2085752,3.2446675,-0.018316668,0.06227667,-0.0012211112,9.688854644089108,0.06492591858718655,fall
10/07/2020, 21:01:56,-8.805588,-2.1822543,3.196811,-0.018316668,0.06227667,-0.0012211112,9.618742649714306,0.06492591858718655,fall
10/07/2020, 21:01:56,-8.805588,-2.1822543,3.196811,-0.006105555699999999,0.046402223,-0.01099,9.618742649714306,0.04807519375651333,fall
10/07/2020, 21:01:56,-8.800801,-2.050649,3.2087752999999997,-0.006105555699999999,0.046402223,-0.01099,9.589343197241122,0.04807519375651333,fall
10/07/2020, 21:01:56,-8.800801,-2.050649,3.2087752999999997,0.0048844446,0.02075889,-0.018316668,9.589343197241122,0.02811209004737814,fall
10/07/2020, 21:01:56,-8.781659,-1.9190438000000003,3.1513473999999997,0.0048844446,0.02075889,-0.018316668,9.525295610374336,0.02811209004737814,fall
10/07/2020, 21:01:56,-8.781659,-1.9190438000000003,3.1513473999999997,0.006105555699999999,0.01099,-0.034191112999999995,9.525295610374336,0.036429248184786135,fall
10/07/2020, 21:01:56,-8.702696000000001,-1.8305093000000001,3.2638102000000004,0.006105555699999999,0.01099,-0.034191112999999995,9.473127047569081,0.036429248184786135,fall
10/07/2020, 21:01:56,-8.702696000000001,-1.8305093000000001,3.2638102000000004,-0.0036633335999999997,0.007326666999999999,-0.04029667,9.473127047569081,0.041120818113735635,fall
10/07/2020, 21:01:56,-8.673982,-1.9812572,3.2997023999999997,-0.0036633335999999997,0.007326666999999999,-0.04029667,9.489540242451646,0.041120818113735635,fall
10/07/2020, 21:01:56,-8.673982,-1.9812572,3.2997023999999997,0.0012211112,0.0036633335999999997,-0.04029667,9.489540242451646,0.040481264093323636,fall
10/07/2020, 21:01:56,-8.721839,-2.1176481,3.2901309999999997,0.0012211112,0.0036633335999999997,-0.04029667,9.559281922412037,0.040481264093323636,fall
10/07/2020, 21:01:56,-8.721839,-2.1176481,3.2901309999999997,0.01099,-0.015874445,-0.035412222,9.559281922412037,0.04033365347467724,fall
10/07/2020, 21:01:56,-8.784052,-2.105684,3.2327034,0.01099,-0.015874445,-0.035412222,9.593948330048134,0.04033365347467724,fall
10/07/2020, 21:01:57,-9.5665045,-2.0721843,4.2496529999999995,-2.1699145,-0.19782001,-0.3394689,10.671059238060149,2.205198574976714,fall
10/07/2020, 21:01:57,-9.5665045,-2.0721843,4.2496529999999995,-1.9806423,-0.07570889,-0.3382478,10.671059238060149,2.010742999160159,fall
10/07/2020, 21:01:57,-9.789038,-2.5028924999999997,4.476971,-1.9806423,-0.07570889,-0.3382478,11.05138003554225,2.010742999160159,fall
10/07/2020, 21:01:57,-9.789038,-2.5028924999999997,4.476971,-1.80236,0.034191112999999995,-0.32481557,11.05138003554225,1.831713942086461,fall
10/07/2020, 21:01:57,-9.982856,-2.548356,4.5942197,-1.80236,0.034191112999999995,-0.32481557,11.28088573471052,1.831713942086461,fall
10/07/2020, 21:01:57,-9.982856,-2.548356,4.5942197,-1.6411734,0.08059334,-0.30772,11.28088573471052,1.6717167507689763,fall
10/07/2020, 21:01:57,-10.167104,-2.37368,4.800002,-1.6411734,0.08059334,-0.30772,11.491056367702885,1.6717167507689763,fall
10/07/2020, 21:01:57,-10.167104,-2.37368,4.800002,-1.5581379,0.054950003,-0.30894113,11.491056367702885,1.5894205918348836,fall
10/07/2020, 21:01:57,-10.234102,-2.2755744,4.9340005,-1.5581379,0.054950003,-0.30894113,11.587037963172573,1.5894205918348836,fall
10/07/2020, 21:01:57,-10.234102,-2.2755744,4.9340005,-1.5202833,0.015874445,-0.3052778,11.587037963172573,1.5507120841908475,fall
10/07/2020, 21:01:57,-10.157532000000002,-2.4047867999999997,5.17089,-1.5202833,0.015874445,-0.3052778,11.648886323396304,1.5507120841908475,fall
10/07/2020, 21:01:57,-10.157532000000002,-2.4047867999999997,5.17089,-1.4836501,0.009768889000000001,-0.28085557,11.648886323396304,1.5100307496345513,fall
10/07/2020, 21:01:57,-9.927821,-2.7732813,5.3096733,-1.4836501,0.009768889000000001,-0.28085557,11.595057265564892,1.5100307496345513,fall
10/07/2020, 21:01:57,-9.927821,-2.7732813,5.3096733,-1.4079412,0.054950003,-0.24055889,11.595057265564892,1.4294007725908109,fall
10/07/2020, 21:01:57,-9.626325999999999,-3.2853456,5.400601,-1.4079412,0.054950003,-0.24055889,11.516341880144287,1.4294007725908109,fall
10/07/2020, 21:01:57,-9.626325999999999,-3.2853456,5.400601,-1.3065889,0.13432223,-0.19171445,11.516341880144287,1.3273927126924556,fall
10/07/2020, 21:01:57,-9.334401,-3.7471601999999997,5.4580283,-1.3065889,0.13432223,-0.19171445,11.443877276029733,1.3273927126924556,fall
10/07/2020, 21:01:57,-9.334401,-3.7471601999999997,5.4580283,-1.2052367,0.23567446,-0.15386,11.443877276029733,1.2376634390442578,fall
10/07/2020, 21:01:57,-9.195618,-4.1635113,5.575277,-1.2052367,0.23567446,-0.15386,11.53160537649248,1.2376634390442578,fall
10/07/2020, 21:01:57,-9.195618,-4.1635113,5.575277,-1.0806833999999998,0.33214223,-0.11234222,11.53160537649248,1.1361407231838183,fall
10/07/2020, 21:01:58,-9.444471,-6.472585,7.838887,0.39808223,-2.5399112999999995,-1.3774133999999998,13.875898212639544,2.916656711357151,fall
10/07/2020, 21:01:58,-9.444471,-6.472585,7.838887,0.32359445,-2.3628502,-1.1979101,13.875898212639544,2.668850487034253,fall
10/07/2020, 21:01:58,-9.367901,-5.757130999999999,7.1976104,0.32359445,-2.3628502,-1.1979101,13.14183092121103,2.668850487034253,fall
10/07/2020, 21:01:58,-9.367901,-5.757130999999999,7.1976104,0.1965989,-2.1479343999999996,-1.0086378,13.14183092121103,2.3810971539092796,fall
10/07/2020, 21:01:58,-9.363114999999999,-4.962714,6.15434,0.1965989,-2.1479343999999996,-1.0086378,12.254483210631445,2.3810971539092796,fall
10/07/2020, 21:01:58,-9.363114999999999,-4.962714,6.15434,0.034191112999999995,-1.9098178,-0.76075226,12.254483210631445,2.056044046263003,fall
10/07/2020, 21:01:58,-9.38465,-4.15394,4.8622155,0.034191112999999995,-1.9098178,-0.76075226,11.356408714540567,2.056044046263003,fall
10/07/2020, 21:01:58,-9.38465,-4.15394,4.8622155,-0.12577444,-1.6350678,-0.46035892,11.356408714540567,1.7032898524509896,fall
10/07/2020, 21:01:58,-9.236296000000001,-3.3978080000000004,3.6179477999999996,-0.12577444,-1.6350678,-0.46035892,10.485409118333699,1.7032898524509896,fall
10/07/2020, 21:01:58,-9.236296000000001,-3.3978080000000004,3.6179477999999996,-0.38831335,-1.2943778000000001,-0.22346334,10.485409118333699,1.369721513366422,fall
10/07/2020, 21:01:58,-8.927621,-2.737389,2.3090740000000003,-0.38831335,-1.2943778000000001,-0.22346334,9.619123459236608,1.369721513366422,fall
10/07/2020, 21:01:58,-8.927621,-2.737389,2.3090740000000003,-0.6972545,-0.9414766999999999,-0.09646778,9.619123459236608,1.1755204048876322,fall
10/07/2020, 21:01:58,-8.374879,-1.9501505000000001,1.0983056,-0.6972545,-0.9414766999999999,-0.09646778,8.668792211001714,1.1755204048876322,fall
10/07/2020, 21:01:58,-8.374879,-1.9501505000000001,1.0983056,-0.8034911,-0.5470578,0.0024422223,8.668792211001714,0.9720474175352798,fall
10/07/2020, 21:01:58,-7.6546397,-0.9906286,0.30149564,-0.8034911,-0.5470578,0.0024422223,7.724361067573072,0.9720474175352798,fall
10/07/2020, 21:01:58,-7.6546397,-0.9906286,0.30149564,-0.5592689000000001,-0.07448778,0.16118668,7.724361067573072,0.5867804265988562,fall
10/07/2020, 21:01:58,-6.8099732,0.083748795,-0.15792629,-0.5592689000000001,-0.07448778,0.16118668,6.8123189959276225,0.5867804265988562,fall
10/07/2020, 21:01:58,-6.8099732,0.083748795,-0.15792629,-0.048844445,0.5104245,0.37488112,6.8123189959276225,0.6351809173178063,fall
10/07/2020, 21:01:58,-6.101698000000001,1.0815558,-0.23928227,-0.048844445,0.5104245,0.37488112,6.201430203840514,0.6351809173178063,fall
10/07/2020, 21:01:58,-6.101698000000001,1.0815558,-0.23928227,0.5324045000000001,1.1686034,0.59346,6.201430203840514,1.4146671997531262,fall
10/07/2020, 21:01:59,-8.458628,-1.1700903,4.304688,0.14531223,-0.4261678,-0.11234222,9.562836007712344,0.4640640070991188,fall
10/07/2020, 21:01:59,-8.446664,-1.1653046999999999,4.369294,0.14531223,-0.4261678,-0.11234222,9.580960117402881,0.4640640070991188,fall
10/07/2020, 21:01:59,-8.446664,-1.1653046999999999,4.369294,0.14287001,-0.42128336,-0.106236674,9.580960117402881,0.4573595340299989,fall
10/07/2020, 21:01:59,-8.458628,-1.282553,4.4985065,0.14287001,-0.42128336,-0.106236674,9.665913604740501,0.4573595340299989,fall
10/07/2020, 21:01:59,-8.458628,-1.282553,4.4985065,0.16485001,-0.42128336,-0.081814446,9.665913604740501,0.4597268784996222,fall
10/07/2020, 21:01:59,-8.4705925,-1.4524434,4.5487556,0.16485001,-0.42128336,-0.081814446,9.723770201052137,0.4597268784996222,fall
10/07/2020, 21:01:59,-8.4705925,-1.4524434,4.5487556,0.19904111,-0.41884112,-0.06349778,9.723770201052137,0.4680568553679207,fall
10/07/2020, 21:01:59,-8.525627,-1.5194423000000001,4.5248275,0.19904111,-0.41884112,-0.06349778,9.77082835567515,0.4680568553679207,fall
10/07/2020, 21:01:59,-8.525627,-1.5194423000000001,4.5248275,0.22468445,-0.43227336,-0.045181114,9.77082835567515,0.4892695473435172,fall
10/07/2020, 21:01:59,-8.508878,-1.4955142,4.4745784,0.22468445,-0.43227336,-0.045181114,9.729307010585249,0.4892695473435172,fall
10/07/2020, 21:01:59,-8.508878,-1.4955142,4.4745784,0.24788557,-0.45059,-0.02198,9.729307010585249,0.5147443417246638,fall
10/07/2020, 21:01:59,-8.465807,-1.3399807,4.5008992999999995,0.24788557,-0.45059,-0.02198,9.681091388812339,0.5147443417246638,fall
10/07/2020, 21:01:59,-8.465807,-1.3399807,4.5008992999999995,0.27597109999999997,-0.4481478,-0.024422223,9.681091388812339,0.5268709091412441,fall
10/07/2020, 21:01:59,-8.372486,-1.2203395000000001,4.7042894,0.27597109999999997,-0.4481478,-0.024422223,9.680810473464684,0.5268709091412441,fall
10/07/2020, 21:01:59,-8.372486,-1.2203395000000001,4.7042894,0.28818223,-0.44692668,-0.025643334,9.680810473464684,0.5324002608106048,fall
10/07/2020, 21:01:59,-8.405986,-1.2346965,4.790431,0.28818223,-0.44692668,-0.025643334,9.753630229797409,0.5324002608106048,fall
10/07/2020, 21:01:59,-8.405986,-1.2346965,4.790431,0.28085557,-0.45547447,-0.019537778999999998,9.753630229797409,0.5354610752877677,fall
10/07/2020, 21:01:59,-8.465807,-1.2490535,4.7569313,0.28085557,-0.45547447,-0.019537778999999998,9.790731205240453,0.5354610752877677,fall
10/07/2020, 21:01:59,-8.465807,-1.2490535,4.7569313,0.28085557,-0.46524334,-0.02075889,9.790731205240453,0.5438401838629591,fall
10/07/2020, 21:01:59,-8.566305,-1.2466606000000002,4.7808595,0.28085557,-0.46524334,-0.02075889,9.88900217441999,0.5438401838629591,fall
10/07/2020, 21:02:00,-2.9072795,-4.914858000000001,7.893922,-0.5128667,0.3602278,1.2235534,9.742797548731222,1.3747287950000553,fall
10/07/2020, 21:02:00,-2.6153553,-4.362116,7.793423,-0.5128667,0.3602278,1.2235534,9.306212047538953,1.3747287950000553,fall
10/07/2020, 21:02:00,-2.6153553,-4.362116,7.793423,-0.48966557,0.15874445,1.0733567,9.306212047538953,1.1904061818710656,fall
10/07/2020, 21:02:00,-2.3138595,-3.9768712999999996,7.8484583,-0.48966557,0.15874445,1.0733567,9.097678170841398,1.1904061818710656,fall
10/07/2020, 21:02:00,-2.3138595,-3.9768712999999996,7.8484583,-0.4481478,-0.0012211112,0.9072856,9.097678170841398,1.011931347699977,fall
10/07/2020, 21:02:00,-2.1798615000000003,-3.723232,7.977670699999999,-0.4481478,-0.0012211112,0.9072856,9.069591083692657,1.011931347699977,fall
10/07/2020, 21:02:00,-2.1798615000000003,-3.723232,7.977670699999999,-0.3370267,-0.12089001,0.7436567,9.069591083692657,0.8253645620145248,fall
10/07/2020, 21:02:00,-2.2444677000000004,-3.5150563999999997,7.982456,-0.3370267,-0.12089001,0.7436567,9.006268029099507,0.8253645620145248,fall
10/07/2020, 21:02:00,-2.2444677000000004,-3.5150563999999997,7.982456,-0.16118668,-0.24422224,0.58979666,9.006268029099507,0.6583963476702629,fall
10/07/2020, 21:02:00,-2.3880369999999997,-3.3044882000000007,7.8149586,-0.16118668,-0.24422224,0.58979666,8.814530060422474,0.6583963476702629,fall
10/07/2020, 21:02:00,-2.3880369999999997,-3.3044882000000007,7.8149586,-0.013432221999999999,-0.39075556,0.44326335,8.814530060422474,0.5910606859950733,fall
10/07/2020, 21:02:00,-2.4406790000000003,-3.0819557,7.5876410000000005,-0.013432221999999999,-0.39075556,0.44326335,8.545622121126693,0.5910606859950733,fall
10/07/2020, 21:02:00,-2.4406790000000003,-3.0819557,7.5876410000000005,0.07326667,-0.5458367,0.29184556,8.545622121126693,0.6232812566207402,fall
10/07/2020, 21:02:00,-2.400001,-2.8953154,7.391429,0.07326667,-0.5458367,0.29184556,8.29313440361838,0.6232812566207402,fall
10/07/2020, 21:02:00,-2.400001,-2.8953154,7.391429,0.11844778,-0.6777167,0.12943779,8.29313440361838,0.7000599303718503,fall
10/07/2020, 21:02:00,-2.3234307999999997,-2.7804599999999997,7.214360000000001,0.11844778,-0.6777167,0.12943779,8.073182851483894,0.7000599303718503,fall
10/07/2020, 21:02:00,-2.3234307999999997,-2.7804599999999997,7.214360000000001,0.123332225,-0.79616445,-0.048844445,8.073182851483894,0.8071396742786204,fall
10/07/2020, 21:02:00,-2.2612174,-2.6919255,7.058827000000001,0.123332225,-0.79616445,-0.048844445,7.885848369051537,0.8071396742786204,fall
10/07/2020, 21:02:00,-2.2612174,-2.6919255,7.058827000000001,0.13432223,-0.9133912000000001,-0.23445335,7.885848369051537,0.952519957053778,fall
10/07/2020, 21:02:00,-2.239682,-2.7445676,7.056433999999999,0.13432223,-0.9133912000000001,-0.23445335,7.895700712756431,0.952519957053778,fall
10/07/2020, 21:02:01,-8.946764,-1.2346965,3.5605202000000005,-0.06227667,0.41762,-0.14042778,9.708056720872273,0.4449773172311305,fall
10/07/2020, 21:02:01,-8.946764,-1.2346965,3.5605202000000005,-0.06105556,0.3809867,-0.13676445,9.708056720872273,0.4093692160058857,fall
10/07/2020, 21:02:01,-8.953942,-1.1413764,3.6418760000000003,-0.06105556,0.3809867,-0.13676445,9.73340040243981,0.4093692160058857,fall
10/07/2020, 21:02:01,-8.953942,-1.1413764,3.6418760000000003,-0.04151778,0.35656446,-0.14409111,9.73340040243981,0.3868128629389784,fall
10/07/2020, 21:02:01,-8.925228,-1.0576276000000002,3.7734813999999997,-0.04151778,0.35656446,-0.14409111,9.74768868345772,0.3868128629389784,fall
10/07/2020, 21:02:01,-8.925228,-1.0576276000000002,3.7734813999999997,-0.028085556,0.35900667,-0.14653334,9.74768868345772,0.3887757831611161,fall
10/07/2020, 21:02:01,-8.915657000000001,-0.997807,3.9553358999999997,-0.028085556,0.35900667,-0.14653334,9.80455206050621,0.3887757831611161,fall
10/07/2020, 21:02:01,-8.915657000000001,-0.997807,3.9553358999999997,-0.03052778,0.36389112,-0.15874445,9.80455206050621,0.3981814885112077,fall
10/07/2020, 21:02:01,-9.044869,-1.0791629999999999,3.9840497999999998,-0.03052778,0.36389112,-0.15874445,9.942178249610873,0.3981814885112077,fall
10/07/2020, 21:02:01,-9.044869,-1.0791629999999999,3.9840497999999998,-0.039075557000000004,0.36633334,-0.16118668,9.942178249610873,0.40212952868305335,fall
10/07/2020, 21:02:01,-9.224331,-1.2753743999999998,3.9242291,-0.039075557000000004,0.36633334,-0.16118668,10.10516872033531,0.40212952868305335,fall
10/07/2020, 21:02:01,-9.224331,-1.2753743999999998,3.9242291,-0.037854444,0.35656446,-0.14897557,10.10516872033531,0.38828455276436,fall
10/07/2020, 21:02:01,-9.32483,-1.2969098999999997,3.8668015,-0.037854444,0.35656446,-0.14897557,10.177749494073234,0.38828455276436,fall
10/07/2020, 21:02:01,-9.32483,-1.2969098999999997,3.8668015,-0.03297,0.34435335,-0.14531223,10.177749494073234,0.3752091347034876,fall
10/07/2020, 21:02:01,-9.300901,-1.2227324,3.7950168,-0.03297,0.34435335,-0.14531223,10.119485852913543,0.3752091347034876,fall
10/07/2020, 21:02:01,-9.300901,-1.2227324,3.7950168,-0.039075557000000004,0.32115224,-0.14653334,10.119485852913543,0.35515866910739224,fall
10/07/2020, 21:02:01,-9.176475,-1.1318051000000002,3.694518,-0.039075557000000004,0.32115224,-0.14653334,9.956813354058252,0.35515866910739224,fall
10/07/2020, 21:02:01,-9.176475,-1.1318051000000002,3.694518,-0.04029667,0.31260446,-0.15386,9.956813354058252,0.35073960239607965,fall
10/07/2020, 21:02:01,-9.037691,-1.0600204,3.7064822,-0.04029667,0.31260446,-0.15386,9.825554139755976,0.35073960239607965,fall
10/07/2020, 21:02:01,-9.037691,-1.0600204,3.7064822,-0.028085556,0.31016225,-0.16485001,9.825554139755976,0.35237046373792386,fall
10/07/2020, 21:02:02,-10.102497,-0.22253251,0.89730847,-1.8792901000000002,-0.91094893,-0.77296335,10.144709501944243,2.2268883188158064,fall
10/07/2020, 21:02:02,-10.102497,-0.22253251,0.89730847,-2.0978689999999998,-0.8975167,-0.80471224,10.144709501944243,2.419535505333419,fall
10/07/2020, 21:02:02,-10.454242,0.08853444,1.3734802,-2.0978689999999998,-0.8975167,-0.80471224,10.544451471308225,2.419535505333419,fall
10/07/2020, 21:02:02,-10.454242,0.08853444,1.3734802,-2.2419599999999997,-0.91217005,-0.8083756,10.544451471308225,2.5518444643849576,fall
10/07/2020, 21:02:02,-10.966306,0.27996024,1.5577276000000002,-2.2419599999999997,-0.91217005,-0.8083756,11.079925738073337,2.5518444643849576,fall
10/07/2020, 21:02:02,-10.966306,0.27996024,1.5577276000000002,-2.4104732999999996,-0.9842155999999999,-0.8755367000000001,11.079925738073337,2.7469303985930247,fall
10/07/2020, 21:02:02,-11.416157,0.22731815,1.5864413999999998,-2.4104732999999996,-0.9842155999999999,-0.8755367000000001,11.528100677067686,2.7469303985930247,fall
10/07/2020, 21:02:02,-11.416157,0.22731815,1.5864413999999998,-2.5570068,-1.1160955,-1.0086378,11.528100677067686,2.9666990752515066,fall
10/07/2020, 21:02:02,-11.669796,-0.23449662,1.8927227,-2.5570068,-1.1160955,-1.0086378,11.824615276250588,2.9666990752515066,fall
10/07/2020, 21:02:02,-11.669796,-0.23449662,1.8927227,-2.591198,-1.229659,-1.1551711999999998,11.824615276250588,3.0920524684285953,fall
10/07/2020, 21:02:02,-11.736794999999999,-1.1246266000000003,2.5004997,-2.591198,-1.229659,-1.1551711999999998,12.052786018428046,3.0920524684285953,fall
10/07/2020, 21:02:02,-11.736794999999999,-1.1246266000000003,2.5004997,-2.4446645,-1.2516388999999999,-1.27484,12.052786018428046,3.0279037863522014,fall
10/07/2020, 21:02:02,-11.617154,-2.0889342,3.3475589999999995,-2.4446645,-1.2516388999999999,-1.27484,12.268988018346114,3.0279037863522014,fall
10/07/2020, 21:02:02,-11.617154,-2.0889342,3.3475589999999995,-2.1393867,-1.1820356,-1.3664234,12.268988018346114,2.8002314466053715,fall
10/07/2020, 21:02:02,-11.3683,-2.902494,4.173083,-2.1393867,-1.1820356,-1.3664234,12.453005512404339,2.8002314466053715,fall
10/07/2020, 21:02:02,-11.3683,-2.902494,4.173083,-1.7803801,-1.06603,-1.4213733999999998,12.453005512404339,2.5152486300887875,fall
10/07/2020, 21:02:02,-11.172089,-3.3930225,4.900501,-1.7803801,-1.06603,-1.4213733999999998,12.662664568688047,2.5152486300887875,fall
10/07/2020, 21:02:02,-11.172089,-3.3930225,4.900501,-1.4824289,-0.91461223,-1.4592278,12.662664568688047,2.2723240921132475,fall
10/07/2020, 21:02:02,-11.062019,-3.6299120000000005,5.345566000000001,-1.4824289,-0.91461223,-1.4592278,12.81091745877784,2.2723240921132475,fall
10/07/2020, 21:02:02,-11.062019,-3.6299120000000005,5.345566000000001,-1.3322322,-0.79128003,-1.4873134,12.81091745877784,2.147805377619375,fall
10/07/2020, 21:02:03,-1.174876,0.51206404,-0.3804588,2.042919,3.6975245,2.7987869,1.3368964195444728,5.067387244673939,fall
10/07/2020, 21:02:03,-4.749753,-1.2658032,1.1557333,2.042919,3.6975245,2.7987869,5.049567397411052,5.067387244673939,fall
10/07/2020, 21:02:03,-4.749753,-1.2658032,1.1557333,2.4434435000000003,4.7195945,3.4020156999999998,5.049567397411052,6.310205946548426,fall
10/07/2020, 21:02:03,-10.389636,-2.7780669999999996,1.8831514,2.4434435000000003,4.7195945,3.4020156999999998,10.918262368953082,6.310205946548426,fall
10/07/2020, 21:02:03,-10.389636,-2.7780669999999996,1.8831514,2.8073347,5.0834856,3.6462379,10.918262368953082,6.856967568904609,fall
10/07/2020, 21:02:03,-16.043877,-3.8285162000000006,1.8089738999999998,2.8073347,5.0834856,3.6462379,16.593248661227978,6.856967568904609,fall
10/07/2020, 21:02:03,-16.043877,-3.8285162000000006,1.8089738999999998,3.3165379,5.4131856,3.624258,16.593248661227978,7.3100785228061635,fall
10/07/2020, 21:02:03,-19.195223000000002,-5.3862440000000005,5.74756,3.3165379,5.4131856,3.624258,20.748557760994707,7.3100785228061635,fall
10/07/2020, 21:02:03,-19.195223000000002,-5.3862440000000005,5.74756,3.8049824,6.8821826,4.050425499999999,20.748557760994707,8.845805533072674,fall
10/07/2020, 21:02:03,-22.741386,-8.693125,12.02872,3.8049824,6.8821826,4.050425499999999,27.155684060237277,8.845805533072674,fall
10/07/2020, 21:02:03,-22.741386,-8.693125,12.02872,4.5327644,7.716201299999999,3.5986147000000006,27.155684060237277,9.64550380816066,fall
10/07/2020, 21:02:03,-26.041088000000002,-13.950156,11.236695,4.5327644,7.716201299999999,3.5986147000000006,31.607094915855445,9.64550380816066,fall
10/07/2020, 21:02:03,-26.041088000000002,-13.950156,11.236695,6.1788225,6.172717,1.8768479,31.607094915855445,8.933243639956213,fall
10/07/2020, 21:02:03,-27.172894,-19.094725,5.149354499999999,6.1788225,6.172717,1.8768479,33.60789346960851,8.933243639956213,fall
10/07/2020, 21:02:03,-27.172894,-19.094725,5.149354499999999,6.786936,5.6390915,0.91461223,33.60789346960851,8.871209952885001,fall
10/07/2020, 21:02:03,-29.766714,-13.787444,-2.5674987000000002,6.786936,5.6390915,0.91461223,32.905059379747,8.871209952885001,fall
10/07/2020, 21:02:03,-29.766714,-13.787444,-2.5674987000000002,5.845459,0.5678167,0.98055226,32.905059379747,5.954266473802254,fall
10/07/2020, 21:02:03,-49.706103999999996,3.0005995999999997,8.796016,5.845459,0.5678167,0.98055226,50.567482570678976,5.954266473802254,fall
10/07/2020, 21:02:03,-49.706103999999996,3.0005995999999997,8.796016,2.6082935000000003,-1.2662921999999999,0.7204556,50.567482570678976,2.9875989324087846,fall
10/07/2020, 21:02:03,-36.497723,11.186446,10.258030999999999,2.6082935000000003,-1.2662921999999999,0.7204556,39.527807085560475,2.9875989324087846,fall
10/07/2020, 21:02:04,-8.563912,-1.7036897,4.0366917,0.058613338,-0.26986557,-0.018316668,9.619669101919053,0.2767642513878497,fall
10/07/2020, 21:02:04,-8.563912,-1.7036897,4.0366917,0.06105556,-0.27719223,-0.023201112000000003,9.619669101919053,0.2847834406890834,fall
10/07/2020, 21:02:04,-8.6141615,-1.7563317999999999,4.065405999999999,0.06105556,-0.27719223,-0.023201112000000003,9.685866212490073,0.2847834406890834,fall
10/07/2020, 21:02:04,-8.6141615,-1.7563317999999999,4.065405999999999,0.06838222599999999,-0.29306668,-0.019537778999999998,9.685866212490073,0.301572433743198,fall
10/07/2020, 21:02:04,-8.626125,-1.7778671999999998,4.0701914,0.06838222599999999,-0.29306668,-0.019537778999999998,9.702438249119341,0.301572433743198,fall
10/07/2020, 21:02:04,-8.626125,-1.7778671999999998,4.0701914,0.06960334,-0.3162678,-0.026864445,9.702438249119341,0.32494866849952553,fall
10/07/2020, 21:02:04,-8.616553999999999,-1.7300107,4.065405999999999,0.06960334,-0.3162678,-0.026864445,9.683257158495957,0.32494866849952553,fall
10/07/2020, 21:02:04,-8.616553999999999,-1.7300107,4.065405999999999,0.07448778,-0.34069002,-0.029306669,9.683257158495957,0.3499671386925661,fall
10/07/2020, 21:02:04,-8.6548395,-1.7156538000000001,4.005585,0.07448778,-0.34069002,-0.029306669,9.689913708010787,0.3499671386925661,fall
10/07/2020, 21:02:04,-8.6548395,-1.7156538000000001,4.005585,0.085477784,-0.3492378,-0.024422223,9.689913708010787,0.3603747178552061,fall
10/07/2020, 21:02:04,-8.575876,-1.6821543,4.0534415,0.085477784,-0.3492378,-0.024422223,9.633570702954652,0.3603747178552061,fall
10/07/2020, 21:02:04,-8.575876,-1.6821543,4.0534415,0.09768889,-0.35656446,-0.037854444,9.633570702954652,0.3716373152216461,fall
10/07/2020, 21:02:04,-8.504091,-1.7228323,4.182654,0.09768889,-0.35656446,-0.037854444,9.632357608435866,0.3716373152216461,fall
10/07/2020, 21:02:04,-8.504091,-1.7228323,4.182654,0.117226675,-0.3712178,-0.039075557000000004,9.632357608435866,0.3912437068067315,fall
10/07/2020, 21:02:04,-8.506484,-1.7515460999999999,4.2209389999999996,0.117226675,-0.3712178,-0.039075557000000004,9.656319788860653,0.3912437068067315,fall
10/07/2020, 21:02:04,-8.506484,-1.7515460999999999,4.2209389999999996,0.123332225,-0.37854445,-0.039075557000000004,9.656319788860653,0.40004204443510577,fall
10/07/2020, 21:02:04,-8.4705925,-1.7084754,4.225724700000001,0.123332225,-0.37854445,-0.039075557000000004,9.619073475251223,0.40004204443510577,fall
10/07/2020, 21:02:04,-8.4705925,-1.7084754,4.225724700000001,0.12577444,-0.39686114,-0.051286668,9.619073475251223,0.4194619101381677,fall
10/07/2020, 21:02:04,-8.480164,-1.6749758999999997,4.2855453,0.12577444,-0.39686114,-0.051286668,9.648036969083163,0.4194619101381677,fall
10/07/2020, 21:02:04,-8.480164,-1.6749758999999997,4.2855453,0.12821667,-0.40907225,-0.058613338,9.648036969083163,0.4326836527609256,fall
10/07/2020, 21:02:05,-8.054241000000001,0.014356935,7.159325,-0.23689556,-0.73999333,0.25765446,10.77622119893599,0.8185935871307759,fall
10/07/2020, 21:02:05,-8.051848,-0.011964113,6.2261242999999995,-0.23689556,-0.73999333,0.25765446,10.178262602997918,0.8185935871307759,fall
10/07/2020, 21:02:05,-8.051848,-0.011964113,6.2261242999999995,-0.42372558,-0.71801335,0.25399113,10.178262602997918,0.8715492074474593,fall
10/07/2020, 21:02:05,-8.020741000000001,-0.10289137,5.3862440000000005,-0.42372558,-0.71801335,0.25399113,9.662013389366123,0.8715492074474593,fall
10/07/2020, 21:02:05,-8.020741000000001,-0.10289137,5.3862440000000005,-0.6056710999999999,-0.6740534,0.20392556,9.662013389366123,0.9288547107553676,fall
10/07/2020, 21:02:05,-7.91785,-0.19142582,4.790431,-0.6056710999999999,-0.6740534,0.20392556,9.25619911874326,0.9288547107553676,fall
10/07/2020, 21:02:05,-7.91785,-0.19142582,4.790431,-0.77296335,-0.63986224,0.17950334,9.25619911874326,1.0193711129829623,fall
10/07/2020, 21:02:05,-7.877172,-0.33020952,4.706682,-0.77296335,-0.63986224,0.17950334,9.182142142302574,1.0193711129829623,fall
10/07/2020, 21:02:05,-7.877172,-0.33020952,4.706682,-0.9732255999999999,-0.62643003,0.18194556,9.182142142302574,1.1716171865984986,fall
10/07/2020, 21:02:05,-7.8795649999999995,-0.46660042,5.0679984000000005,-0.9732255999999999,-0.62643003,0.18194556,9.38029128902244,1.1716171865984986,fall
10/07/2020, 21:02:05,-7.8795649999999995,-0.46660042,5.0679984000000005,-1.1429601,-0.56293225,0.1856089,9.38029128902244,1.287517420434196,fall
10/07/2020, 21:02:05,-7.8436728,-0.57427746,5.278567,-1.1429601,-0.56293225,0.1856089,9.471867012586069,1.287517420434196,fall
10/07/2020, 21:02:05,-7.8436728,-0.57427746,5.278567,-1.1954678,-0.45791668,0.19049335,9.471867012586069,1.294263778956775,fall
10/07/2020, 21:02:05,-7.812566,-0.61734825,5.0775695,-1.1954678,-0.45791668,0.19049335,9.3380412920964,1.294263778956775,fall
10/07/2020, 21:02:05,-7.812566,-0.61734825,5.0775695,-1.0892311000000001,-0.38220778,0.17217667,9.3380412920964,1.16711270110846,fall
10/07/2020, 21:02:05,-7.688139,-0.6723832,4.8119664,-1.0892311000000001,-0.38220778,0.17217667,9.094756767976003,1.16711270110846,fall
10/07/2020, 21:02:05,-7.688139,-0.6723832,4.8119664,-0.9744466999999999,-0.3284789,0.10013112,9.094756767976003,1.0331848954907663,fall
10/07/2020, 21:02:05,-7.563712599999999,-0.7106683000000001,4.644469,-0.9744466999999999,-0.3284789,0.10013112,8.904262350458948,1.0331848954907663,fall
10/07/2020, 21:02:05,-7.563712599999999,-0.7106683000000001,4.644469,-0.9500245,-0.27108666,-0.0012211112,8.904262350458948,0.9879453391711612,fall
10/07/2020, 21:02:05,-7.513463000000001,-0.7465607,4.6229334,-0.9500245,-0.27108666,-0.0012211112,8.853304046141991,0.9879453391711612,fall
10/07/2020, 21:02:06,-6.608976400000001,-2.306681,3.5820556000000003,-0.20758890000000002,1.0159645,0.45547447,7.863235182492603,1.1325784832379533,fall
10/07/2020, 21:02:06,-6.608976400000001,-2.306681,3.5820556000000003,-0.16485001,1.0440501,0.47379112,7.863235182492603,1.1583152247978052,fall
10/07/2020, 21:02:06,-6.384051,-1.9429720000000001,4.2352962,-0.16485001,1.0440501,0.47379112,7.903731998492674,1.1583152247978052,fall
10/07/2020, 21:02:06,-6.384051,-1.9429720000000001,4.2352962,-0.20636779,1.0904523000000002,0.47745445,7.903731998492674,1.2081542402575531,fall
10/07/2020, 21:02:06,-6.963114,-2.1942183999999996,4.807181,-0.20636779,1.0904523000000002,0.47745445,8.74119762857152,1.2081542402575531,fall
10/07/2020, 21:02:06,-6.963114,-2.1942183999999996,4.807181,-0.26864445,1.1063266999999999,0.47989670000000006,8.74119762857152,1.235487533100614,fall
10/07/2020, 21:02:06,-7.9657063,-2.7876383999999996,4.855037,-0.26864445,1.1063266999999999,0.47989670000000006,9.73626170333914,1.235487533100614,fall
10/07/2020, 21:02:06,-7.9657063,-2.7876383999999996,4.855037,-0.29795113,1.0672511999999998,0.48478112,9.73626170333914,1.2094679587684598,fall
10/07/2020, 21:02:06,-8.865408,-2.8331020000000002,4.395615,-0.29795113,1.0672511999999998,0.48478112,10.292878946003507,1.2094679587684598,fall
10/07/2020, 21:02:06,-8.865408,-2.8331020000000002,4.395615,-0.33092109999999997,0.9854367,0.44692668,10.292878946003507,1.131520079235999,fall
10/07/2020, 21:02:06,-9.188439,-2.6153553,3.9003010000000002,-0.33092109999999997,0.9854367,0.44692668,10.318907348824213,1.131520079235999,fall
10/07/2020, 21:02:06,-9.188439,-2.6153553,3.9003010000000002,-0.3382478,0.87065226,0.36633334,10.318907348824213,1.0033180183777242,fall
10/07/2020, 21:02:06,-9.138189,-2.4358935,3.6466617999999995,-0.3382478,0.87065226,0.36633334,10.135986546385906,1.0033180183777242,fall
10/07/2020, 21:02:06,-9.138189,-2.4358935,3.6466617999999995,-0.26620224,0.71801335,0.24178001,10.135986546385906,0.8030344781743562,fall
10/07/2020, 21:02:06,-9.12144,-2.0937197,3.1513473999999997,-0.26620224,0.71801335,0.24178001,9.874984514549569,0.8030344781743562,fall
10/07/2020, 21:02:06,-9.12144,-2.0937197,3.1513473999999997,-0.19293556,0.5775855999999999,0.16607112,9.874984514549569,0.6311963597687348,fall
