DATE,TIME,ax,ay,az,gx,gy,gz,ma,mg,label
09/07/2020, 21:28:29,9.592825999999999,2.7086751000000002,0.94277215,-0.007326666999999999,0.045181114,-0.40052447,10.01239476458776,0.40313132101676397,stand
09/07/2020, 21:28:29,9.592825999999999,2.7086751000000002,0.94277215,-0.05006556,0.036633335,-0.43349445,10.01239476458776,0.4379109480203158,stand
09/07/2020, 21:28:29,9.4636135,2.7182465000000002,0.94277215,-0.05006556,0.036633335,-0.43349445,9.891292322701336,0.4379109480203158,stand
09/07/2020, 21:28:29,9.4636135,2.7182465000000002,0.94277215,-0.051286668,0.026864445,-0.41762,9.891292322701336,0.42161414558899707,stand
09/07/2020, 21:28:29,9.348758,2.6751757,0.97866446,-0.051286668,0.026864445,-0.41762,9.773106994306762,0.42161414558899707,stand
09/07/2020, 21:28:29,9.348758,2.6751757,0.97866446,-0.014653333999999999,0.0036633335999999997,-0.38220778,9.773106994306762,0.3825061151632592,stand
09/07/2020, 21:28:29,9.238688,2.7230322,0.96909314,-0.014653333999999999,0.0036633335999999997,-0.38220778,9.680258814022725,0.3825061151632592,stand
09/07/2020, 21:28:29,9.238688,2.7230322,0.96909314,0.013432221999999999,-0.02075889,-0.35534334,9.680258814022725,0.35620253603565044,stand
09/07/2020, 21:28:29,9.233903,2.7756743,0.9906286,0.013432221999999999,-0.02075889,-0.35534334,9.69281571193026,0.35620253603565044,stand
09/07/2020, 21:28:29,9.233903,2.7756743,0.9906286,0.02198,-0.08425667,-0.31504667,9.69281571193026,0.32685885355959626,stand
09/07/2020, 21:28:29,9.276974000000001,2.8187451,1.0193424,0.02198,-0.08425667,-0.31504667,9.749185842932539,0.32685885355959626,stand
09/07/2020, 21:28:29,9.276974000000001,2.8187451,1.0193424,0.042738892,-0.11234222,-0.2942878,9.749185842932539,0.3178878698234502,stand
09/07/2020, 21:28:29,9.394221,2.8522446,1.0025927,0.042738892,-0.11234222,-0.2942878,9.86873271387342,0.3178878698234502,stand
09/07/2020, 21:28:29,9.394221,2.8522446,1.0025927,-0.0024422223,-0.0012211112,-0.30772,9.86873271387342,0.3077321194720913,stand
09/07/2020, 21:28:29,9.456435,2.952743,0.9499506,-0.0024422223,-0.0012211112,-0.30772,9.952148732566018,0.3077321194720913,stand
09/07/2020, 21:28:29,9.456435,2.952743,0.9499506,-0.02198,-0.008547778,-0.30039334,9.952148732566018,0.30131768192995817,stand
09/07/2020, 21:28:29,9.296116,2.9048867,1.0432707,-0.02198,-0.008547778,-0.30039334,9.795128942757987,0.30131768192995817,stand
09/07/2020, 21:28:29,9.296116,2.9048867,1.0432707,-0.012211111,-0.0012211112,-0.24422224,9.795128942757987,0.24453037481976114,stand
09/07/2020, 21:28:29,9.310472500000001,2.9790642000000003,0.9595219000000001,-0.012211111,-0.0012211112,-0.24422224,9.82244388518624,0.24453037481976114,stand
09/07/2020, 21:28:29,9.310472500000001,2.9790642000000003,0.9595219000000001,-0.06838222599999999,-0.012211111,-0.20514667,9.82244388518624,0.2165880800423463,stand
09/07/2020, 21:28:30,9.389436,2.969493,0.99302137,-0.02198,0.03174889,0.10745778,9.897751443595558,0.11418531798480976,stand
09/07/2020, 21:28:30,9.348758,2.952743,0.9810573,-0.02198,0.03174889,0.10745778,9.85294048959336,0.11418531798480976,stand
09/07/2020, 21:28:30,9.348758,2.952743,0.9810573,-0.009768889000000001,0.023201112000000003,0.07326667,9.85294048959336,0.07747081857624001,stand
09/07/2020, 21:28:30,9.32483,2.9240294,0.9762716,-0.009768889000000001,0.023201112000000003,0.07326667,9.821176584024576,0.07747081857624001,stand
09/07/2020, 21:28:30,9.32483,2.9240294,0.9762716,-0.008547778,0.028085556,0.04396,9.821176584024576,0.05286156144161744,stand
09/07/2020, 21:28:30,9.329616,2.9096723,0.9714860000000001,-0.008547778,0.028085556,0.04396,9.820982882033,0.05286156144161744,stand
09/07/2020, 21:28:30,9.329616,2.9096723,0.9714860000000001,-0.013432221999999999,0.024422223,0.03297,9.820982882033,0.04317279776576725,stand
09/07/2020, 21:28:30,9.38465,2.9120652999999996,0.99302137,-0.013432221999999999,0.024422223,0.03297,9.876126543786754,0.04317279776576725,stand
09/07/2020, 21:28:30,9.38465,2.9120652999999996,0.99302137,-0.009768889000000001,0.02075889,0.02198,9.876126543786754,0.03177236416999237,stand
09/07/2020, 21:28:30,9.387042999999998,2.9383862,0.9714860000000001,-0.009768889000000001,0.02075889,0.02198,9.884051534464481,0.03177236416999237,stand
09/07/2020, 21:28:30,9.387042999999998,2.9383862,0.9714860000000001,-0.0024422223,0.017095556,0.019537778999999998,9.884051534464481,0.026075798987155608,stand
09/07/2020, 21:28:30,9.341579,2.9240294,0.95712906,-0.0024422223,0.017095556,0.019537778999999998,9.835199543664617,0.026075798987155608,stand
09/07/2020, 21:28:30,9.341579,2.9240294,0.95712906,-0.006105555699999999,0.013432221999999999,0.0036633335999999997,9.835199543664617,0.01520271102146125,stand
09/07/2020, 21:28:30,9.399008,2.9479575000000002,1.0001999,-0.006105555699999999,0.013432221999999999,0.0036633335999999997,9.9011211968642,0.01520271102146125,stand
09/07/2020, 21:28:30,9.399008,2.9479575000000002,1.0001999,-0.0036633335999999997,0.015874445,-0.018316668,9.9011211968642,0.024513635803844858,stand
09/07/2020, 21:28:30,9.430114,2.926422,1.0193424,-0.0036633335999999997,0.015874445,-0.018316668,9.926230479474725,0.024513635803844858,stand
09/07/2020, 21:28:30,9.430114,2.926422,1.0193424,-0.0024422223,0.0024422223,-0.037854444,9.926230479474725,0.0380116804169155,stand
09/07/2020, 21:28:30,9.41815,2.8929226000000003,1.0025927,-0.0024422223,0.0024422223,-0.037854444,9.903319743050526,0.0380116804169155,stand
09/07/2020, 21:28:30,9.41815,2.8929226000000003,1.0025927,0.0012211112,0.0048844446,-0.06594,9.903319743050526,0.06613193273557323,stand
09/07/2020, 21:28:30,9.370294,2.8594232,0.9834501,0.0012211112,0.0048844446,-0.06594,9.84610976034251,0.06613193273557323,stand
09/07/2020, 21:28:31,9.322436999999999,2.8929226000000003,0.9451649,-0.007326666999999999,0.017095556,0.0036633335999999997,9.806639336821144,0.018956743304761988,stand
09/07/2020, 21:28:31,9.322436999999999,2.8929226000000003,0.9451649,-0.012211111,0.02075889,-0.0036633335999999997,9.806639336821144,0.02436109094677774,stand
09/07/2020, 21:28:31,9.399008,2.900101,0.97866446,-0.012211111,0.02075889,-0.0036633335999999997,9.884822567604408,0.02436109094677774,stand
09/07/2020, 21:28:31,9.399008,2.900101,0.97866446,-0.008547778,0.017095556,-0.007326666999999999,9.884822567604408,0.020469553403326225,stand
09/07/2020, 21:28:31,9.339186999999999,2.885744,0.96909314,-0.008547778,0.017095556,-0.007326666999999999,9.822783115274953,0.020469553403326225,stand
09/07/2020, 21:28:31,9.339186999999999,2.885744,0.96909314,-0.0036633335999999997,0.009768889000000001,-0.01099,9.822783115274953,0.015153590933515284,stand
09/07/2020, 21:28:31,9.332008,2.9048867,0.9164511000000001,-0.0036633335999999997,0.009768889000000001,-0.01099,9.816548759532736,0.015153590933515284,stand
09/07/2020, 21:28:31,9.332008,2.9048867,0.9164511000000001,-0.0024422223,0.01099,-0.015874445,9.816548759532736,0.019461309696289602,stand
09/07/2020, 21:28:31,9.365508,2.8905298999999998,0.9284152,-0.0024422223,0.01099,-0.015874445,9.845296301678983,0.019461309696289602,stand
09/07/2020, 21:28:31,9.365508,2.8905298999999998,0.9284152,-0.007326666999999999,0.014653333999999999,-0.03052778,9.845296301678983,0.034646004135860456,stand
09/07/2020, 21:28:31,9.288938,2.8761728,0.94755775,-0.007326666999999999,0.014653333999999999,-0.03052778,9.77008683202194,0.034646004135860456,stand
09/07/2020, 21:28:31,9.288938,2.8761728,0.94755775,-0.008547778,0.014653333999999999,-0.036633335,9.77008683202194,0.040370607611245064,stand
09/07/2020, 21:28:31,9.35833,2.900101,0.9810573,-0.008547778,0.014653333999999999,-0.036633335,9.846389949502292,0.040370607611245064,stand
09/07/2020, 21:28:31,9.35833,2.900101,0.9810573,-0.007326666999999999,0.013432221999999999,-0.036633335,9.846389949502292,0.039700200106407964,stand
09/07/2020, 21:28:31,9.355936999999999,2.8977082000000003,0.99302137,-0.007326666999999999,0.013432221999999999,-0.036633335,9.844610776768992,0.039700200106407964,stand
09/07/2020, 21:28:31,9.355936999999999,2.8977082000000003,0.99302137,0.0012211112,0.0036633335999999997,-0.039075557000000004,9.844610776768992,0.039265892215984984,stand
09/07/2020, 21:28:31,9.38465,2.926422,0.99302137,0.0012211112,0.0036633335999999997,-0.039075557000000004,9.880369315250256,0.039265892215984984,stand
09/07/2020, 21:28:31,9.38465,2.926422,0.99302137,0.0,0.012211111,-0.05250778,9.880369315250256,0.053908981192573716,stand
09/07/2020, 21:28:31,9.406186,2.9216363,0.96909314,0.0,0.012211111,-0.05250778,9.897041854114539,0.053908981192573716,stand
09/07/2020, 21:28:31,9.406186,2.9216363,0.96909314,-0.0048844446,0.014653333999999999,-0.06105556,9.897041854114539,0.06297903916650358,stand
09/07/2020, 21:28:32,9.4229355,2.926422,1.0049854999999999,-0.009768889000000001,0.014653333999999999,-0.025643334,9.917946125474796,0.03110839074499276,stand
09/07/2020, 21:28:32,9.370294,2.900101,0.9906286,-0.009768889000000001,0.014653333999999999,-0.025643334,9.858718628518043,0.03110839074499276,stand
09/07/2020, 21:28:32,9.370294,2.900101,0.9906286,-0.0048844446,0.017095556,-0.018316668,9.858718628518043,0.025526773399984416,stand
09/07/2020, 21:28:32,9.38465,2.926422,0.9762716,-0.0048844446,0.017095556,-0.018316668,9.87869994790451,0.025526773399984416,stand
09/07/2020, 21:28:32,9.38465,2.926422,0.9762716,-0.0048844446,0.015874445,-0.02075889,9.87869994790451,0.026585471888137608,stand
09/07/2020, 21:28:32,9.413364,2.9575287999999995,0.98584294,-0.0048844446,0.015874445,-0.02075889,9.916163200018344,0.026585471888137608,stand
09/07/2020, 21:28:32,9.413364,2.9575287999999995,0.98584294,-0.0036633335999999997,0.018316668,-0.023201112000000003,9.916163200018344,0.0297861025757638,stand
09/07/2020, 21:28:32,9.382257000000001,2.955136,0.9834501,-0.0036633335999999997,0.018316668,-0.023201112000000003,9.885684515513503,0.0297861025757638,stand
09/07/2020, 21:28:32,9.382257000000001,2.955136,0.9834501,-0.009768889000000001,0.012211111,-0.029306669,9.885684515513503,0.033217815616455336,stand
09/07/2020, 21:28:32,9.468399,2.955136,1.0193424,-0.009768889000000001,0.012211111,-0.029306669,9.971081618408867,0.033217815616455336,stand
09/07/2020, 21:28:32,9.468399,2.955136,1.0193424,-0.0036633335999999997,0.006105555699999999,-0.023201112000000003,9.971081618408867,0.02426910397210811,stand
09/07/2020, 21:28:32,9.439685,2.926422,0.98584294,-0.0036633335999999997,0.006105555699999999,-0.023201112000000003,9.931942565909251,0.02426910397210811,stand
09/07/2020, 21:28:32,9.439685,2.926422,0.98584294,-0.0024422223,0.014653333999999999,-0.019537778999999998,9.931942565909251,0.024544030847265683,stand
09/07/2020, 21:28:32,9.466006,2.9623144,0.97866446,-0.0024422223,0.014653333999999999,-0.019537778999999998,9.966863368459789,0.024544030847265683,stand
09/07/2020, 21:28:32,9.466006,2.9623144,0.97866446,-0.0036633335999999997,0.015874445,-0.02198,9.966863368459789,0.02735943091579534,stand
09/07/2020, 21:28:32,9.427721,2.9431717,1.026521,-0.0036633335999999997,0.015874445,-0.02198,9.929648980875529,0.02735943091579534,stand
09/07/2020, 21:28:32,9.427721,2.9431717,1.026521,-0.0048844446,0.013432221999999999,-0.023201112000000003,9.929648980875529,0.02725021069414038,stand
09/07/2020, 21:28:32,9.387042999999998,2.9120652999999996,1.0145568,-0.0048844446,0.013432221999999999,-0.023201112000000003,9.880588333858494,0.02725021069414038,stand
09/07/2020, 21:28:32,9.387042999999998,2.9120652999999996,1.0145568,-0.006105555699999999,0.012211111,-0.019537778999999998,9.880588333858494,0.02383513882360446,stand
09/07/2020, 21:28:32,9.389436,2.9216363,1.0121639999999998,-0.006105555699999999,0.012211111,-0.019537778999999998,9.885440755006906,0.02383513882360446,stand
09/07/2020, 21:28:33,9.322436999999999,2.8953154,0.9906286,-0.0036633335999999997,0.015874445,-0.025643334,9.811831291746833,0.03038089200523045,stand
09/07/2020, 21:28:33,9.322436999999999,2.8953154,0.9906286,-0.0048844446,0.01099,-0.024422223,9.811831291746833,0.027222837300556336,stand
09/07/2020, 21:28:33,9.288938,2.8905298999999998,0.96430755,-0.0048844446,0.01099,-0.024422223,9.775960982638754,0.027222837300556336,stand
09/07/2020, 21:28:33,9.288938,2.8905298999999998,0.96430755,-0.0036633335999999997,0.017095556,-0.02198,9.775960982638754,0.0280855566708614,stand
09/07/2020, 21:28:33,9.351150500000001,2.9192436,0.9499506,-0.0036633335999999997,0.017095556,-0.02198,9.842174813158463,0.0280855566708614,stand
09/07/2020, 21:28:33,9.351150500000001,2.9192436,0.9499506,-0.007326666999999999,0.017095556,-0.023201112000000003,9.842174813158463,0.02973599986506595,stand
09/07/2020, 21:28:33,9.329616,2.9072795,0.95712906,-0.007326666999999999,0.017095556,-0.023201112000000003,9.81886435355085,0.02973599986506595,stand
09/07/2020, 21:28:33,9.329616,2.9072795,0.95712906,-0.008547778,0.014653333999999999,-0.019537778999999998,9.81886435355085,0.02587488189784484,stand
09/07/2020, 21:28:33,9.336794,2.8905298999999998,0.997807,-0.008547778,0.014653333999999999,-0.019537778999999998,9.824790181903994,0.02587488189784484,stand
09/07/2020, 21:28:33,9.336794,2.8905298999999998,0.997807,-0.0024422223,0.009768889000000001,-0.017095556,9.824790181903994,0.019840708132377885,stand
09/07/2020, 21:28:33,9.296116,2.8881368999999997,0.9667004000000001,-0.0024422223,0.009768889000000001,-0.017095556,9.782311307899485,0.019840708132377885,stand
09/07/2020, 21:28:33,9.296116,2.8881368999999997,0.9667004000000001,-0.0024422223,0.008547778,-0.015874445,9.782311307899485,0.018194146880425567,stand
09/07/2020, 21:28:33,9.387042999999998,2.9312077000000003,0.95712906,-0.0024422223,0.008547778,-0.015874445,9.880518743343947,0.018194146880425567,stand
09/07/2020, 21:28:33,9.387042999999998,2.9312077000000003,0.95712906,-0.009768889000000001,0.017095556,-0.014653333999999999,9.880518743343947,0.02454403100943828,stand
09/07/2020, 21:28:33,9.341579,2.928815,0.9906286,-0.009768889000000001,0.017095556,-0.014653333999999999,9.839939433457484,0.02454403100943828,stand
09/07/2020, 21:28:33,9.341579,2.928815,0.9906286,-0.008547778,0.02075889,-0.015874445,9.839939433457484,0.027495345586286475,stand
09/07/2020, 21:28:33,9.355936999999999,2.902494,1.0073783,-0.008547778,0.02075889,-0.015874445,9.84747883954133,0.027495345586286475,stand
09/07/2020, 21:28:33,9.355936999999999,2.902494,1.0073783,-0.006105555699999999,0.015874445,-0.015874445,9.84747883954133,0.023265292738343112,stand
09/07/2020, 21:28:33,9.406186,2.900101,0.9954142,-0.006105555699999999,0.015874445,-0.015874445,9.893319561383313,0.023265292738343112,stand
09/07/2020, 21:28:33,9.406186,2.900101,0.9954142,-0.0024422223,0.008547778,-0.013432221999999999,9.893319561383313,0.016107562255969817,stand
09/07/2020, 21:28:34,9.375079,2.9072795,0.96430755,-0.0048844446,0.018316668,-0.019537778999999998,9.86277203668614,0.027222837843638183,stand
09/07/2020, 21:28:34,9.375079,2.9072795,0.96430755,-0.0048844446,0.02075889,-0.017095556,9.86277203668614,0.027332166928199172,stand
09/07/2020, 21:28:34,9.396614,2.9120652999999996,0.9834501,-0.0048844446,0.02075889,-0.017095556,9.886539046586769,0.027332166928199172,stand
09/07/2020, 21:28:34,9.396614,2.9120652999999996,0.9834501,-0.007326666999999999,0.015874445,-0.023201112000000003,9.886539046586769,0.029051155820366468,stand
09/07/2020, 21:28:34,9.38465,2.9096723,0.9882358,-0.007326666999999999,0.015874445,-0.023201112000000003,9.87494114158362,0.029051155820366468,stand
09/07/2020, 21:28:34,9.38465,2.9096723,0.9882358,-0.009768889000000001,0.02075889,-0.025643334,9.87494114158362,0.03440847662928298,stand
09/07/2020, 21:28:34,9.382257000000001,2.9431717,0.98584294,-0.009768889000000001,0.02075889,-0.025643334,9.8823530230438,0.03440847662928298,stand
09/07/2020, 21:28:34,9.382257000000001,2.9431717,0.98584294,-0.0036633335999999997,0.014653333999999999,-0.018316668,9.8823530230438,0.023741114784536083,stand
09/07/2020, 21:28:34,9.360723,2.8953154,0.94277215,-0.0036633335999999997,0.014653333999999999,-0.018316668,9.843515487239168,0.023741114784536083,stand
09/07/2020, 21:28:34,9.360723,2.8953154,0.94277215,-0.0024422223,0.012211111,-0.017095556,9.843515487239168,0.02115026577404,stand
09/07/2020, 21:28:34,9.327223,2.8929226000000003,0.9499506,-0.0024422223,0.012211111,-0.017095556,9.811650885911364,0.02115026577404,stand
09/07/2020, 21:28:34,9.327223,2.8929226000000003,0.9499506,-0.01099,0.01099,-0.023201112000000003,9.811650885911364,0.027925826734576,stand
09/07/2020, 21:28:34,9.351150500000001,2.9240294,0.9762716,-0.01099,0.01099,-0.023201112000000003,9.846170313712161,0.027925826734576,stand
09/07/2020, 21:28:34,9.351150500000001,2.9240294,0.9762716,-0.0036633335999999997,0.014653333999999999,-0.02075889,9.846170313712161,0.02567239217504497,stand
09/07/2020, 21:28:34,9.353543,2.926422,0.9762716,-0.0036633335999999997,0.014653333999999999,-0.02075889,9.849153498324764,0.02567239217504497,stand
09/07/2020, 21:28:34,9.353543,2.926422,0.9762716,-0.007326666999999999,0.017095556,-0.019537778999999998,9.849153498324764,0.026975227434957446,stand
09/07/2020, 21:28:34,9.329616,2.900101,0.9451649,-0.007326666999999999,0.017095556,-0.019537778999999998,9.815581966226938,0.026975227434957446,stand
09/07/2020, 21:28:34,9.329616,2.900101,0.9451649,-0.006105555699999999,0.013432221999999999,-0.023201112000000003,9.815581966226938,0.027495344945183416,stand
09/07/2020, 21:28:34,9.334401,2.900101,0.94755775,-0.006105555699999999,0.013432221999999999,-0.023201112000000003,9.82036127911918,0.027495344945183416,stand
09/07/2020, 21:28:34,9.334401,2.900101,0.94755775,-0.007326666999999999,0.012211111,-0.017095556,9.82036127911918,0.022249704372455444,stand
09/07/2020, 21:28:35,9.353543,2.914458,0.9451649,-0.0036633335999999997,0.017095556,-0.018316668,9.842569496321241,0.025321500228057858,stand
09/07/2020, 21:28:35,9.29133,2.9192436,0.9619146999999999,-0.0036633335999999997,0.017095556,-0.018316668,9.786525553595068,0.025321500228057858,stand
09/07/2020, 21:28:35,9.29133,2.9192436,0.9619146999999999,0.0036633335999999997,0.015874445,-0.02075889,9.786525553595068,0.026388435518240508,stand
09/07/2020, 21:28:35,9.444471,2.9623144,1.0336994000000002,0.0036633335999999997,0.015874445,-0.02075889,9.951978702854973,0.026388435518240508,stand
09/07/2020, 21:28:35,9.444471,2.9623144,1.0336994000000002,-0.006105555699999999,0.015874445,-0.02075889,9.951978702854973,0.026836678749326184,stand
09/07/2020, 21:28:35,9.353543,2.9359933999999996,0.97866446,-0.006105555699999999,0.015874445,-0.02075889,9.852239008443423,0.026836678749326184,stand
09/07/2020, 21:28:35,9.353543,2.9359933999999996,0.97866446,-0.007326666999999999,0.018316668,-0.017095556,9.852239008443423,0.026104375360497818,stand
09/07/2020, 21:28:35,9.322436999999999,2.885744,0.9499506,-0.007326666999999999,0.018316668,-0.017095556,9.8049865902969,0.026104375360497818,stand
09/07/2020, 21:28:35,9.322436999999999,2.885744,0.9499506,0.0036633335999999997,0.008547778,-0.01099,9.8049865902969,0.014396688270869791,stand
09/07/2020, 21:28:35,9.348758,2.9168507999999997,0.9738788,0.0036633335999999997,0.008547778,-0.01099,9.841530871362595,0.014396688270869791,stand
09/07/2020, 21:28:35,9.348758,2.9168507999999997,0.9738788,-0.008547778,0.01099,-0.013432221999999999,9.841530871362595,0.019346038850737098,stand
09/07/2020, 21:28:35,9.420542999999999,2.9479575000000002,1.0121639999999998,-0.008547778,0.01099,-0.013432221999999999,9.922779577977273,0.019346038850737098,stand
09/07/2020, 21:28:35,9.420542999999999,2.9479575000000002,1.0121639999999998,-0.012211111,0.01099,-0.025643334,9.922779577977273,0.030454423590797062,stand
09/07/2020, 21:28:35,9.401401,2.9383862,1.0360922,-0.012211111,0.01099,-0.025643334,9.904238135464537,0.030454423590797062,stand
09/07/2020, 21:28:35,9.401401,2.9383862,1.0360922,-0.01099,0.012211111,-0.02198,9.904238135464537,0.02744106006061717,stand
09/07/2020, 21:28:35,9.339186999999999,2.9072795,1.0097711,-0.01099,0.012211111,-0.02198,9.833225277609671,0.02744106006061717,stand
09/07/2020, 21:28:35,9.339186999999999,2.9072795,1.0097711,-0.006105555699999999,0.012211111,-0.015874445,9.833225277609671,0.020937694935633192,stand
09/07/2020, 21:28:35,9.391829,2.9455647000000003,1.0025927,-0.006105555699999999,0.012211111,-0.015874445,9.893835809926056,0.020937694935633192,stand
09/07/2020, 21:28:35,9.391829,2.9455647000000003,1.0025927,-0.0012211112,0.013432221999999999,-0.02075889,9.893835809926056,0.02475575104165692,stand
09/07/2020, 21:28:35,9.363114999999999,2.926422,0.97866446,-0.0012211112,0.013432221999999999,-0.02075889,9.858481569756863,0.02475575104165692,stand
09/07/2020, 21:28:36,9.394221,2.9431717,1.0025927,-0.007326666999999999,0.019537778999999998,-0.019537778999999998,9.89539518763986,0.028585479446994563,stand
09/07/2020, 21:28:36,9.401401,2.9120652999999996,0.97866446,-0.007326666999999999,0.019537778999999998,-0.019537778999999998,9.890613775079313,0.028585479446994563,stand
09/07/2020, 21:28:36,9.401401,2.9120652999999996,0.97866446,-0.0012211112,0.017095556,-0.019537778999999998,9.890613775079313,0.025989881789230312,stand
09/07/2020, 21:28:36,9.410972000000001,2.9336007,0.9906286,-0.0012211112,0.017095556,-0.019537778999999998,9.907257194495982,0.025989881789230312,stand
09/07/2020, 21:28:36,9.410972000000001,2.9336007,0.9906286,-0.0024422223,0.013432221999999999,-0.017095556,9.907257194495982,0.02187800494604416,stand
09/07/2020, 21:28:36,9.348758,2.9048867,1.0145568,-0.0024422223,0.013432221999999999,-0.017095556,9.842101587282672,0.02187800494604416,stand
09/07/2020, 21:28:36,9.348758,2.9048867,1.0145568,-0.008547778,0.018316668,-0.02198,9.842101587282672,0.029861099295941964,stand
09/07/2020, 21:28:36,9.336794,2.885744,1.0313065000000001,-0.008547778,0.018316668,-0.02198,9.82684244358499,0.029861099295941964,stand
09/07/2020, 21:28:36,9.336794,2.885744,1.0313065000000001,-0.009768889000000001,0.02075889,-0.024422223,9.82684244358499,0.03350832224861735,stand
09/07/2020, 21:28:36,9.30808,2.885744,0.96909314,-0.009768889000000001,0.02075889,-0.024422223,9.793212372248517,0.03350832224861735,stand
09/07/2020, 21:28:36,9.30808,2.885744,0.96909314,-0.009768889000000001,0.01099,-0.014653333999999999,9.793212372248517,0.02075888999902151,stand
09/07/2020, 21:28:36,9.317652,2.9072795,0.97866446,-0.009768889000000001,0.01099,-0.014653333999999999,9.809622432666304,0.02075888999902151,stand
09/07/2020, 21:28:36,9.317652,2.9072795,0.97866446,-0.0036633335999999997,0.008547778,-0.017095556,9.809622432666304,0.019461309754725983,stand
09/07/2020, 21:28:36,9.351150500000001,2.9192436,0.9714860000000001,-0.0036633335999999997,0.008547778,-0.017095556,9.84427671039536,0.019461309754725983,stand
09/07/2020, 21:28:36,9.351150500000001,2.9192436,0.9714860000000001,-0.0036633335999999997,0.01099,-0.017095556,9.84427671039536,0.020650863704886262,stand
09/07/2020, 21:28:36,9.382257000000001,2.9503502999999998,1.0001999,-0.0036633335999999997,0.01099,-0.017095556,9.8859355523083,0.020650863704886262,stand
09/07/2020, 21:28:36,9.382257000000001,2.9503502999999998,1.0001999,-0.007326666999999999,0.014653333999999999,-0.017095556,9.8859355523083,0.02367822443794713,stand
09/07/2020, 21:28:36,9.415757000000001,2.955136,1.0169496999999998,-0.007326666999999999,0.014653333999999999,-0.017095556,9.92086180702748,0.02367822443794713,stand
09/07/2020, 21:28:36,9.415757000000001,2.955136,1.0169496999999998,-0.009768889000000001,0.009768889000000001,-0.018316668,9.92086180702748,0.02294259586539336,stand
09/07/2020, 21:28:36,9.403792999999999,2.9336007,1.0145568,-0.009768889000000001,0.009768889000000001,-0.018316668,9.902861575010904,0.02294259586539336,stand
09/07/2020, 21:28:37,9.332008,2.9383862,0.9284152,-0.006105555699999999,0.019537778999999998,-0.02075889,9.827636963245569,0.029153629273512286,stand
09/07/2020, 21:28:37,9.315259,2.914458,0.9619146999999999,-0.006105555699999999,0.019537778999999998,-0.02075889,9.807823174984351,0.029153629273512286,stand
09/07/2020, 21:28:37,9.315259,2.914458,0.9619146999999999,-0.0036633335999999997,0.019537778999999998,-0.019537778999999998,9.807823174984351,0.02787238052359928,stand
09/07/2020, 21:28:37,9.317652,2.8953154,0.98584294,-0.0036633335999999997,0.019537778999999998,-0.019537778999999998,9.806802319502005,0.02787238052359928,stand
09/07/2020, 21:28:37,9.317652,2.8953154,0.98584294,-0.006105555699999999,0.009768889000000001,-0.015874445,9.806802319502005,0.01961394978323637,stand
09/07/2020, 21:28:37,9.372686,2.8881368999999997,0.9810573,-0.006105555699999999,0.009768889000000001,-0.015874445,9.856523628276982,0.01961394978323637,stand
09/07/2020, 21:28:37,9.372686,2.8881368999999997,0.9810573,0.0012211112,0.012211111,-0.023201112000000003,9.856523628276982,0.02624678909441184,stand
09/07/2020, 21:28:37,9.332008,2.8546374,0.9906286,0.0012211112,0.012211111,-0.023201112000000003,9.809010127677816,0.02624678909441184,stand
09/07/2020, 21:28:37,9.332008,2.8546374,0.9906286,-0.0012211112,0.014653333999999999,-0.014653333999999999,9.809010127677816,0.020758890389355227,stand
09/07/2020, 21:28:37,9.312864999999999,2.8666015,0.9762716,-0.0012211112,0.014653333999999999,-0.014653333999999999,9.792852983964773,0.020758890389355227,stand
09/07/2020, 21:28:37,9.312864999999999,2.8666015,0.9762716,-0.007326666999999999,0.02198,-0.019537778999999998,9.792852983964773,0.030307181867030568,stand
09/07/2020, 21:28:37,9.267402,2.900101,0.9834501,-0.007326666999999999,0.02198,-0.019537778999999998,9.760250704196563,0.030307181867030568,stand
09/07/2020, 21:28:37,9.267402,2.900101,0.9834501,-0.0012211112,0.014653333999999999,-0.02075889,9.760250704196563,0.025439001934078047,stand
09/07/2020, 21:28:37,9.339186999999999,2.926422,1.0169496999999998,-0.0012211112,0.014653333999999999,-0.02075889,9.839641286375741,0.025439001934078047,stand
09/07/2020, 21:28:37,9.339186999999999,2.926422,1.0169496999999998,0.0012211112,0.01099,-0.009768889000000001,9.839641286375741,0.014754742206932412,stand
09/07/2020, 21:28:37,9.305686999999999,2.9216363,0.9906286,0.0012211112,0.01099,-0.009768889000000001,9.803729574414609,0.014754742206932412,stand
09/07/2020, 21:28:37,9.305686999999999,2.9216363,0.9906286,-0.0012211112,0.017095556,-0.019537778999999998,9.803729574414609,0.025989881789230312,stand
09/07/2020, 21:28:37,9.367901,2.9431717,1.0169496999999998,-0.0012211112,0.017095556,-0.019537778999999998,9.871879901614598,0.025989881789230312,stand
09/07/2020, 21:28:37,9.367901,2.9431717,1.0169496999999998,-0.009768889000000001,0.018316668,-0.019537778999999998,9.871879901614598,0.02850712715562732,stand
09/07/2020, 21:28:37,9.382257000000001,2.9479575000000002,1.0145568,-0.009768889000000001,0.018316668,-0.019537778999999998,9.886684682934726,0.02850712715562732,stand
09/07/2020, 21:28:38,9.461221,2.9359933999999996,1.0217353,-0.014653333999999999,0.019537778999999998,-0.023201112000000003,9.958850254849711,0.033685851401901605,stand
09/07/2020, 21:28:38,9.461221,2.9359933999999996,1.0217353,-0.007326666999999999,0.013432221999999999,-0.024422223,9.958850254849711,0.028819257715777875,stand
09/07/2020, 21:28:38,9.45165,2.9192436,1.0169496999999998,-0.007326666999999999,0.013432221999999999,-0.024422223,9.944337637510756,0.028819257715777875,stand
09/07/2020, 21:28:38,9.45165,2.9192436,1.0169496999999998,-0.0012211112,0.01099,-0.013432221999999999,9.944337637510756,0.01739815561540819,stand
09/07/2020, 21:28:38,9.425328,2.9312077000000003,0.97866446,-0.0012211112,0.01099,-0.013432221999999999,9.919000713652279,0.01739815561540819,stand
09/07/2020, 21:28:38,9.425328,2.9312077000000003,0.97866446,-0.006105555699999999,0.019537778999999998,-0.017095556,9.919000713652279,0.026669470433430945,stand
09/07/2020, 21:28:38,9.310472500000001,2.9383862,0.92602235,-0.006105555699999999,0.019537778999999998,-0.017095556,9.80696328242065,0.026669470433430945,stand
09/07/2020, 21:28:38,9.310472500000001,2.9383862,0.92602235,-0.008547778,0.019537778999999998,-0.017095556,9.80696328242065,0.027332167053024447,stand
09/07/2020, 21:28:38,9.327223,2.9120652999999996,0.95712906,-0.008547778,0.019537778999999998,-0.017095556,9.818009257111743,0.027332167053024447,stand
09/07/2020, 21:28:38,9.327223,2.9120652999999996,0.95712906,-0.0048844446,0.015874445,-0.02075889,9.818009257111743,0.026585471888137608,stand
09/07/2020, 21:28:38,9.375079,2.9120652999999996,0.9834501,-0.0048844446,0.015874445,-0.02075889,9.866073556011177,0.026585471888137608,stand
09/07/2020, 21:28:38,9.375079,2.9120652999999996,0.9834501,-0.0012211112,0.012211111,-0.014653333999999999,9.866073556011177,0.019113413152159163,stand
09/07/2020, 21:28:38,9.391829,2.902494,0.99302137,-0.0012211112,0.012211111,-0.014653333999999999,9.880131874560883,0.019113413152159163,stand
09/07/2020, 21:28:38,9.391829,2.902494,0.99302137,-0.0024422223,0.01099,-0.015874445,9.880131874560883,0.019461309696289602,stand
09/07/2020, 21:28:38,9.379864999999999,2.926422,0.9714860000000001,-0.0024422223,0.01099,-0.015874445,9.87368183947148,0.019461309696289602,stand
09/07/2020, 21:28:38,9.379864999999999,2.926422,0.9714860000000001,-0.01099,0.014653333999999999,-0.023201112000000003,9.87368183947148,0.029559971252072218,stand
09/07/2020, 21:28:38,9.408579,2.9168507999999997,0.9667004000000001,-0.01099,0.014653333999999999,-0.023201112000000003,9.897670667329294,0.029559971252072218,stand
09/07/2020, 21:28:38,9.408579,2.9168507999999997,0.9667004000000001,-0.012211111,0.018316668,-0.019537778999999998,9.897670667329294,0.029433592063922917,stand
09/07/2020, 21:28:38,9.396614,2.9431717,0.9834501,-0.012211111,0.018316668,-0.019537778999999998,9.895746060090211,0.029433592063922917,stand
09/07/2020, 21:28:38,9.396614,2.9431717,0.9834501,-0.007326666999999999,0.015874445,-0.019537778999999998,9.895746060090211,0.026218368783959296,stand
09/07/2020, 21:28:39,9.317652,2.914458,0.9451649,-0.0048844446,0.014653333999999999,-0.018316668,9.808467590772906,0.023959931502972525,stand
09/07/2020, 21:28:39,9.375079,2.940779,0.95473623,-0.0048844446,0.014653333999999999,-0.018316668,9.871768402402886,0.023959931502972525,stand
09/07/2020, 21:28:39,9.375079,2.940779,0.95473623,-0.009768889000000001,0.02198,-0.019537778999999998,9.871768402402886,0.03098832713103012,stand
09/07/2020, 21:28:39,9.355936999999999,2.8809586,0.94755775,-0.009768889000000001,0.02198,-0.019537778999999998,9.835209459740673,0.03098832713103012,stand
09/07/2020, 21:28:39,9.355936999999999,2.8809586,0.94755775,-0.007326666999999999,0.014653333999999999,-0.025643334,9.835209459740673,0.030429933110092112,stand
09/07/2020, 21:28:39,9.341579,2.8953154,0.9379865,-0.007326666999999999,0.014653333999999999,-0.025643334,9.824855029959158,0.030429933110092112,stand
09/07/2020, 21:28:39,9.341579,2.8953154,0.9379865,-0.0036633335999999997,0.013432221999999999,-0.013432221999999999,9.824855029959158,0.01934603864499114,stand
09/07/2020, 21:28:39,9.284152,2.8809586,0.92602235,-0.0036633335999999997,0.013432221999999999,-0.013432221999999999,9.764881900757956,0.01934603864499114,stand
09/07/2020, 21:28:39,9.284152,2.8809586,0.92602235,-0.0048844446,0.013432221999999999,-0.023201112000000003,9.764881900757956,0.02725021069414038,stand
09/07/2020, 21:28:39,9.284152,2.902494,0.9523434000000001,-0.0048844446,0.013432221999999999,-0.023201112000000003,9.773786781216916,0.02725021069414038,stand
09/07/2020, 21:28:39,9.284152,2.902494,0.9523434000000001,-0.008547778,0.017095556,-0.017095556,9.773786781216916,0.02564333472400904,stand
09/07/2020, 21:28:39,9.298509,2.9048867,0.94755775,-0.008547778,0.017095556,-0.017095556,9.787670589062506,0.02564333472400904,stand
09/07/2020, 21:28:39,9.298509,2.9048867,0.94755775,-0.01099,0.023201112000000003,-0.019537778999999998,9.787670589062506,0.03226137757531783,stand
09/07/2020, 21:28:39,9.339186999999999,2.9216363,0.96909314,-0.01099,0.023201112000000003,-0.019537778999999998,9.833387415816023,0.03226137757531783,stand
09/07/2020, 21:28:39,9.339186999999999,2.9216363,0.96909314,-0.0036633335999999997,0.018316668,-0.017095556,9.833387415816023,0.025321500228057858,stand
09/07/2020, 21:28:39,9.327223,2.902494,0.9523434000000001,-0.0036633335999999997,0.018316668,-0.017095556,9.814709100189557,0.025321500228057858,stand
09/07/2020, 21:28:39,9.327223,2.902494,0.9523434000000001,-0.0012211112,0.013432221999999999,-0.014653333999999999,9.814709100189557,0.01991572043466507,stand
09/07/2020, 21:28:39,9.377472000000001,2.9120652999999996,0.99302137,-0.0012211112,0.013432221999999999,-0.014653333999999999,9.869305712358011,0.01991572043466507,stand
09/07/2020, 21:28:39,9.377472000000001,2.9120652999999996,0.99302137,-0.007326666999999999,0.019537778999999998,-0.025643334,9.869305712358011,0.033060329879155234,stand
09/07/2020, 21:28:39,9.363114999999999,2.914458,0.9810573,-0.007326666999999999,0.019537778999999998,-0.025643334,9.855174649182072,0.033060329879155234,stand
09/07/2020, 21:28:40,9.32483,2.914458,0.9619146999999999,-0.007326666999999999,0.018316668,-0.025643334,9.816914032938893,0.032353684944881465,stand
09/07/2020, 21:28:40,9.32483,2.914458,0.9619146999999999,-0.0048844446,0.015874445,-0.019537778999999998,9.816914032938893,0.02564333459096296,stand
09/07/2020, 21:28:40,9.343972,2.9120652999999996,0.9667004000000001,-0.0048844446,0.015874445,-0.019537778999999998,9.8348589377982,0.02564333459096296,stand
09/07/2020, 21:28:40,9.343972,2.9120652999999996,0.9667004000000001,-0.0012211112,0.017095556,-0.015874445,9.8348589377982,0.02336123245668576,stand
09/07/2020, 21:28:40,9.370294,2.914458,0.9714860000000001,-0.0012211112,0.017095556,-0.015874445,9.86104726254247,0.02336123245668576,stand
09/07/2020, 21:28:40,9.370294,2.914458,0.9714860000000001,-0.0024422223,0.017095556,-0.015874445,9.86104726254247,0.023456779815134228,stand
09/07/2020, 21:28:40,9.353543,2.926422,0.9810573,-0.0024422223,0.017095556,-0.015874445,9.849629015259927,0.023456779815134228,stand
09/07/2020, 21:28:40,9.353543,2.926422,0.9810573,-0.006105555699999999,0.014653333999999999,-0.015874445,9.849629015259927,0.022449856059444433,stand
09/07/2020, 21:28:40,9.346364999999999,2.926422,0.997807,-0.006105555699999999,0.014653333999999999,-0.015874445,9.844496103193913,0.022449856059444433,stand
09/07/2020, 21:28:40,9.346364999999999,2.926422,0.997807,-0.006105555699999999,0.01099,-0.02198,9.844496103193913,0.025321499689109503,stand
09/07/2020, 21:28:40,9.360723,2.9216363,1.0121639999999998,-0.006105555699999999,0.01099,-0.02198,9.858172314465458,0.025321499689109503,stand
09/07/2020, 21:28:40,9.360723,2.9216363,1.0121639999999998,-0.008547778,0.013432221999999999,-0.023201112000000003,9.858172314465458,0.02813859797981077,stand
09/07/2020, 21:28:40,9.370294,2.9312077000000003,1.0456635,-0.008547778,0.013432221999999999,-0.023201112000000003,9.873590679489679,0.02813859797981077,stand
09/07/2020, 21:28:40,9.370294,2.9312077000000003,1.0456635,-0.007326666999999999,0.013432221999999999,-0.02075889,9.873590679489679,0.02578829481346165,stand
09/07/2020, 21:28:40,9.365508,2.9455647000000003,1.0073783,-0.007326666999999999,0.013432221999999999,-0.02075889,9.869341638887416,0.02578829481346165,stand
09/07/2020, 21:28:40,9.365508,2.9455647000000003,1.0073783,-0.008547778,0.012211111,-0.018316668,9.869341638887416,0.023615165956422355,stand
09/07/2020, 21:28:40,9.410972000000001,2.9336007,1.0193424,-0.008547778,0.012211111,-0.018316668,9.91016947729926,0.023615165956422355,stand
09/07/2020, 21:28:40,9.410972000000001,2.9336007,1.0193424,-0.006105555699999999,0.013432221999999999,-0.015874445,9.91016947729926,0.0216725731588163,stand
09/07/2020, 21:28:40,9.427721,2.9431717,1.052842,-0.006105555699999999,0.013432221999999999,-0.015874445,9.932404538070237,0.0216725731588163,stand
09/07/2020, 21:28:40,9.427721,2.9431717,1.052842,-0.0012211112,0.015874445,-0.019537778999999998,9.932404538070237,0.02520345059594372,stand
09/07/2020, 21:28:41,9.341579,2.9072795,0.9762716,-0.008547778,0.015874445,-0.024422223,9.832115068389957,0.03035634192078704,stand
09/07/2020, 21:28:41,9.341579,2.9072795,0.9762716,-0.01099,0.019537778999999998,-0.024422223,9.832115068389957,0.03315041270818489,stand
09/07/2020, 21:28:41,9.367901,2.9479575000000002,0.96909314,-0.01099,0.019537778999999998,-0.024422223,9.868493367345511,0.03315041270818489,stand
09/07/2020, 21:28:41,9.367901,2.9479575000000002,0.96909314,-0.01099,0.013432221999999999,-0.019537778999999998,9.868493367345511,0.026132919811040742,stand
09/07/2020, 21:28:41,9.363114999999999,2.926422,0.9834501,-0.01099,0.013432221999999999,-0.019537778999999998,9.858957798288586,0.026132919811040742,stand
09/07/2020, 21:28:41,9.363114999999999,2.926422,0.9834501,-0.009768889000000001,0.007326666999999999,-0.02075889,9.858957798288586,0.02408407665161956,stand
09/07/2020, 21:28:41,9.341579,2.926422,0.9451649,-0.009768889000000001,0.007326666999999999,-0.02075889,9.834754167028038,0.02408407665161956,stand
09/07/2020, 21:28:41,9.341579,2.926422,0.9451649,-0.006105555699999999,0.01099,-0.018316668,9.834754167028038,0.022216170389897073,stand
09/07/2020, 21:28:41,9.394221,2.928815,0.9714860000000001,-0.006105555699999999,0.01099,-0.018316668,9.888029914294599,0.022216170389897073,stand
09/07/2020, 21:28:41,9.394221,2.928815,0.9714860000000001,-0.007326666999999999,0.013432221999999999,-0.018316668,9.888029914294599,0.02386639814905509,stand
09/07/2020, 21:28:41,9.365508,2.9096723,0.9906286,-0.007326666999999999,0.013432221999999999,-0.018316668,9.856991390549393,0.02386639814905509,stand
09/07/2020, 21:28:41,9.365508,2.9096723,0.9906286,-0.008547778,0.017095556,-0.018316668,9.856991390549393,0.02647305939268297,stand
09/07/2020, 21:28:41,9.430114,2.9479575000000002,1.0289137,-0.008547778,0.017095556,-0.018316668,9.933587626295196,0.02647305939268297,stand
09/07/2020, 21:28:41,9.430114,2.9479575000000002,1.0289137,-0.0036633335999999997,0.018316668,-0.019537778999999998,9.933587626295196,0.02703044790317766,stand
09/07/2020, 21:28:41,9.403792999999999,2.928815,1.0145568,-0.0036633335999999997,0.018316668,-0.019537778999999998,9.901444902910141,0.02703044790317766,stand
09/07/2020, 21:28:41,9.403792999999999,2.928815,1.0145568,-0.0036633335999999997,0.017095556,-0.017095556,9.901444902910141,0.0244527322800251,stand
09/07/2020, 21:28:41,9.401401,2.9503502999999998,1.0408778,-0.0036633335999999997,0.017095556,-0.017095556,9.9082958191709,0.0244527322800251,stand
09/07/2020, 21:28:41,9.401401,2.9503502999999998,1.0408778,-0.009768889000000001,0.018316668,-0.018316668,9.9082958191709,0.02768450498855252,stand
09/07/2020, 21:28:41,9.332008,2.940779,0.9906286,-0.009768889000000001,0.018316668,-0.018316668,9.834424540511133,0.02768450498855252,stand
09/07/2020, 21:28:41,9.332008,2.940779,0.9906286,-0.008547778,0.013432221999999999,-0.017095556,9.834424540511133,0.023361232061152558,stand
09/07/2020, 21:28:42,9.372686,2.9479575000000002,0.9523434000000001,-0.014653333999999999,0.023201112000000003,-0.023201112000000003,9.871406260838011,0.03593470992617747,stand
09/07/2020, 21:28:42,9.346364999999999,2.9359933999999996,0.96430755,-0.014653333999999999,0.023201112000000003,-0.023201112000000003,9.844007554269828,0.03593470992617747,stand
09/07/2020, 21:28:42,9.346364999999999,2.9359933999999996,0.96430755,-0.006105555699999999,0.014653333999999999,-0.014653333999999999,9.844007554269828,0.021603662374207456,stand
09/07/2020, 21:28:42,9.360723,2.9359933999999996,0.9667004000000001,-0.006105555699999999,0.014653333999999999,-0.014653333999999999,9.857874697850647,0.021603662374207456,stand
09/07/2020, 21:28:42,9.360723,2.9359933999999996,0.9667004000000001,0.0,0.01099,-0.017095556,9.857874697850647,0.020323340244745983,stand
09/07/2020, 21:28:42,9.341579,2.9479575000000002,0.9714860000000001,0.0,0.01099,-0.017095556,9.843746486557336,0.020323340244745983,stand
09/07/2020, 21:28:42,9.341579,2.9479575000000002,0.9714860000000001,-0.008547778,0.02075889,-0.02198,9.843746486557336,0.03141840925220273,stand
09/07/2020, 21:28:42,9.272188,2.8977082000000003,0.9714860000000001,-0.008547778,0.02075889,-0.02198,9.762887454307927,0.03141840925220273,stand
09/07/2020, 21:28:42,9.272188,2.8977082000000003,0.9714860000000001,-0.007326666999999999,0.019537778999999998,-0.023201112000000003,9.762887454307927,0.031204109152835457,stand
09/07/2020, 21:28:42,9.332008,2.9192436,0.98584294,-0.007326666999999999,0.019537778999999998,-0.023201112000000003,9.827525091233491,0.031204109152835457,stand
09/07/2020, 21:28:42,9.332008,2.9192436,0.98584294,-0.0036633335999999997,0.018316668,-0.02198,9.827525091233491,0.028845116594548886,stand
09/07/2020, 21:28:42,9.348758,2.9359933999999996,0.9738788,-0.0036633335999999997,0.018316668,-0.02198,9.847221370027006,0.028845116594548886,stand
09/07/2020, 21:28:42,9.348758,2.9359933999999996,0.9738788,-0.007326666999999999,0.017095556,-0.018316668,9.847221370027006,0.026104375360497818,stand
09/07/2020, 21:28:42,9.377472000000001,2.9336007,1.0001999,-0.007326666999999999,0.017095556,-0.018316668,9.876405844574387,0.026104375360497818,stand
09/07/2020, 21:28:42,9.377472000000001,2.9336007,1.0001999,-0.0024422223,0.013432221999999999,-0.017095556,9.876405844574387,0.02187800494604416,stand
09/07/2020, 21:28:42,9.705289,3.022135,1.1078769,-0.0024422223,0.013432221999999999,-0.017095556,10.225131963650934,0.02187800494604416,stand
09/07/2020, 21:28:42,9.705289,3.022135,1.1078769,-0.008547778,0.017095556,-0.014653333999999999,10.225131963650934,0.024084077171038776,stand
09/07/2020, 21:28:42,9.387042999999998,2.955136,1.026521,-0.008547778,0.017095556,-0.014653333999999999,9.89460209933266,0.024084077171038776,stand
09/07/2020, 21:28:42,9.387042999999998,2.955136,1.026521,-0.014653333999999999,0.015874445,-0.013432221999999999,9.89460209933266,0.02543900206260468,stand
09/07/2020, 21:28:42,9.305686999999999,2.914458,1.0408778,-0.014653333999999999,0.015874445,-0.013432221999999999,9.806798759248897,0.02543900206260468,stand
09/07/2020, 21:28:43,9.305686999999999,2.9048867,0.97866446,-0.0048844446,0.02075889,-0.019537778999999998,9.79754870444708,0.028922553293888355,stand
09/07/2020, 21:28:43,9.305686999999999,2.9048867,0.97866446,-0.01099,0.019537778999999998,-0.02198,9.79754870444708,0.031394670371838865,stand
09/07/2020, 21:28:43,9.332008,2.8977082000000003,0.9738788,-0.01099,0.019537778999999998,-0.02198,9.819955838298322,0.031394670371838865,stand
09/07/2020, 21:28:43,9.332008,2.8977082000000003,0.9738788,-0.008547778,0.012211111,-0.014653333999999999,9.819955838298322,0.02090205642326612,stand
09/07/2020, 21:28:43,9.372686,2.9455647000000003,0.9738788,-0.008547778,0.012211111,-0.014653333999999999,9.872793003453918,0.02090205642326612,stand
09/07/2020, 21:28:43,9.372686,2.9455647000000003,0.9738788,-0.0012211112,0.008547778,-0.009768889000000001,9.872793003453918,0.013037899493577806,stand
09/07/2020, 21:28:43,9.329616,2.9383862,0.9738788,-0.0012211112,0.008547778,-0.009768889000000001,9.829765027832172,0.013037899493577806,stand
09/07/2020, 21:28:43,9.329616,2.9383862,0.9738788,0.0,0.012211111,-0.018316668,9.829765027832172,0.02201389448249233,stand
09/07/2020, 21:28:43,9.434899,2.9479575000000002,1.0169496999999998,0.0,0.012211111,-0.018316668,9.936899188496335,0.02201389448249233,stand
09/07/2020, 21:28:43,9.434899,2.9479575000000002,1.0169496999999998,-0.01099,0.017095556,-0.019537778999999998,9.936899188496335,0.028191540401383382,stand
09/07/2020, 21:28:43,9.38465,2.914458,1.0145568,-0.01099,0.017095556,-0.019537778999999998,9.87902075226572,0.028191540401383382,stand
09/07/2020, 21:28:43,9.38465,2.914458,1.0145568,-0.012211111,0.018316668,-0.025643334,9.87902075226572,0.03379633291186252,stand
09/07/2020, 21:28:43,9.365508,2.9096723,1.0073783,-0.012211111,0.018316668,-0.025643334,9.858688826077262,0.03379633291186252,stand
09/07/2020, 21:28:43,9.365508,2.9096723,1.0073783,-0.0012211112,0.013432221999999999,-0.02075889,9.858688826077262,0.02475575104165692,stand
09/07/2020, 21:28:43,9.353543,2.902494,0.9714860000000001,-0.0012211112,0.013432221999999999,-0.02075889,9.841596824997342,0.02475575104165692,stand
09/07/2020, 21:28:43,9.353543,2.902494,0.9714860000000001,0.0,0.012211111,-0.017095556,9.841596824997342,0.021008790837298414,stand
09/07/2020, 21:28:43,9.372686,2.9312077000000003,1.0049854999999999,0.0,0.012211111,-0.017095556,9.871637360544788,0.021008790837298414,stand
09/07/2020, 21:28:43,9.372686,2.9312077000000003,1.0049854999999999,-0.0048844446,0.015874445,-0.018316668,9.871637360544788,0.02472561681208706,stand
09/07/2020, 21:28:43,9.353543,2.9192436,0.95473623,-0.0048844446,0.015874445,-0.018316668,9.844911184933977,0.02472561681208706,stand
09/07/2020, 21:28:43,9.353543,2.9192436,0.95473623,-0.012211111,0.02075889,-0.024422223,9.844911184933977,0.034299966516536225,stand
09/07/2020, 21:28:44,9.35833,2.940779,0.99302137,-0.0036633335999999997,0.0036633335999999997,-0.019537778999999998,9.859645456766636,0.02021298636043853,stand
09/07/2020, 21:28:44,9.341579,2.902494,0.9667004000000001,-0.0036633335999999997,0.0036633335999999997,-0.019537778999999998,9.829755192731641,0.02021298636043853,stand
09/07/2020, 21:28:44,9.341579,2.902494,0.9667004000000001,-0.0012211112,0.012211111,-0.02198,9.829755192731641,0.02517385116476486,stand
09/07/2020, 21:28:44,9.334401,2.928815,0.9834501,-0.0012211112,0.012211111,-0.02198,9.832404347091321,0.02517385116476486,stand
09/07/2020, 21:28:44,9.334401,2.928815,0.9834501,-0.008547778,0.02075889,-0.023201112000000003,9.832404347091321,0.03228447916940432,stand
09/07/2020, 21:28:44,9.389436,2.9312077000000003,0.96430755,-0.008547778,0.02075889,-0.023201112000000003,9.883489839924332,0.03228447916940432,stand
09/07/2020, 21:28:44,9.389436,2.9312077000000003,0.96430755,-0.008547778,0.02075889,-0.018316668,9.883489839924332,0.028974062887801313,stand
09/07/2020, 21:28:44,9.45165,2.9599216,1.0217353,-0.008547778,0.02075889,-0.018316668,9.956844897825043,0.028974062887801313,stand
09/07/2020, 21:28:44,9.45165,2.9599216,1.0217353,-0.0012211112,0.014653333999999999,-0.017095556,9.956844897825043,0.02254926545997189,stand
09/07/2020, 21:28:44,9.475577000000001,2.9599216,1.0145568,-0.0012211112,0.014653333999999999,-0.017095556,9.978828964323586,0.02254926545997189,stand
09/07/2020, 21:28:44,9.475577000000001,2.9599216,1.0145568,-0.0012211112,0.015874445,-0.019537778999999998,9.978828964323586,0.02520345059594372,stand
09/07/2020, 21:28:44,9.377472000000001,2.9383862,0.9762716,-0.0012211112,0.015874445,-0.019537778999999998,9.875434139707416,0.02520345059594372,stand
09/07/2020, 21:28:44,9.377472000000001,2.9383862,0.9762716,-0.007326666999999999,0.015874445,-0.02198,9.875434139707416,0.028085556772092117,stand
09/07/2020, 21:28:44,9.355936999999999,2.9336007,1.0408778,-0.007326666999999999,0.015874445,-0.02198,9.860172245723591,0.028085556772092117,stand
09/07/2020, 21:28:44,9.355936999999999,2.9336007,1.0408778,-0.009768889000000001,0.018316668,-0.025643334,9.860172245723591,0.03299260637129355,stand
09/07/2020, 21:28:44,9.387042999999998,2.9240294,1.0145568,-0.009768889000000001,0.018316668,-0.025643334,9.884121070785095,0.03299260637129355,stand
09/07/2020, 21:28:44,9.387042999999998,2.9240294,1.0145568,-0.008547778,0.014653333999999999,-0.02198,9.884121070785095,0.027765178744862003,stand
09/07/2020, 21:28:44,9.396614,2.9479575000000002,0.9882358,-0.008547778,0.014653333999999999,-0.02198,9.897647171112569,0.027765178744862003,stand
09/07/2020, 21:28:44,9.396614,2.9479575000000002,0.9882358,-0.0048844446,0.012211111,-0.015874445,9.897647171112569,0.02061472916237464,stand
09/07/2020, 21:28:44,9.425328,2.9575287999999995,0.9810573,-0.0048844446,0.012211111,-0.015874445,9.927047037540127,0.02061472916237464,stand
09/07/2020, 21:28:45,9.370294,2.9120652999999996,0.97866446,-0.0036633335999999997,0.015874445,-0.023201112000000003,9.861050183269107,0.028349772756355224,stand
09/07/2020, 21:28:45,9.370294,2.9120652999999996,0.97866446,-0.008547778,0.018316668,-0.02198,9.861050183269107,0.029861099295941964,stand
09/07/2020, 21:28:45,9.391829,2.955136,0.97866446,-0.008547778,0.018316668,-0.02198,9.894294139879946,0.029861099295941964,stand
09/07/2020, 21:28:45,9.391829,2.955136,0.97866446,-0.008547778,0.014653333999999999,-0.018316668,9.894294139879946,0.024965677059144688,stand
09/07/2020, 21:28:45,9.406186,2.9336007,0.9834501,-0.008547778,0.014653333999999999,-0.018316668,9.901995960638628,0.024965677059144688,stand
09/07/2020, 21:28:45,9.406186,2.9336007,0.9834501,-0.0024422223,0.012211111,-0.015874445,9.901995960638628,0.02017606772482037,stand
09/07/2020, 21:28:45,9.351150500000001,2.9168507999999997,0.9714860000000001,-0.0024422223,0.012211111,-0.015874445,9.84356741867186,0.02017606772482037,stand
09/07/2020, 21:28:45,9.351150500000001,2.9168507999999997,0.9714860000000001,-0.0036633335999999997,0.012211111,-0.018316668,9.84356741867186,0.02231662078676751,stand
09/07/2020, 21:28:45,9.403792999999999,2.9240294,1.0049854999999999,-0.0036633335999999997,0.012211111,-0.018316668,9.899054120777617,0.02231662078676751,stand
09/07/2020, 21:28:45,9.403792999999999,2.9240294,1.0049854999999999,-0.008547778,0.019537778999999998,-0.024422223,9.899054120777617,0.03242274307233412,stand
09/07/2020, 21:28:45,9.365508,2.9431717,0.9954142,-0.008547778,0.019537778999999998,-0.024422223,9.86741358719935,0.03242274307233412,stand
09/07/2020, 21:28:45,9.365508,2.9431717,0.9954142,-0.01099,0.02198,-0.024422223,9.86741358719935,0.03464600265874412,stand
09/07/2020, 21:28:45,9.415757000000001,2.9647074,1.0169496999999998,-0.01099,0.02198,-0.024422223,9.923717029099837,0.03464600265874412,stand
09/07/2020, 21:28:45,9.415757000000001,2.9647074,1.0169496999999998,-0.009768889000000001,0.034191112999999995,-0.009768889000000001,9.923717029099837,0.036876748793224286,stand
09/07/2020, 21:28:45,9.396614,2.9120652999999996,0.997807,-0.009768889000000001,0.034191112999999995,-0.009768889000000001,9.887977500605595,0.036876748793224286,stand
09/07/2020, 21:28:45,9.396614,2.9120652999999996,0.997807,-0.0048844446,0.02198,-0.014653333999999999,9.887977500605595,0.026864445598965347,stand
09/07/2020, 21:28:45,9.432507000000001,2.9312077000000003,0.9954142,-0.0048844446,0.02198,-0.014653333999999999,9.92748748579864,0.026864445598965347,stand
09/07/2020, 21:28:45,9.432507000000001,2.9312077000000003,0.9954142,-0.0036633335999999997,0.019537778999999998,-0.02075889,9.92748748579864,0.028741543149650026,stand
09/07/2020, 21:28:45,9.427721,2.940779,0.98584294,-0.0036633335999999997,0.019537778999999998,-0.02075889,9.924816923315367,0.028741543149650026,stand
09/07/2020, 21:28:45,9.427721,2.940779,0.98584294,-0.012211111,0.018316668,-0.019537778999999998,9.924816923315367,0.029433592063922917,stand
09/07/2020, 21:28:46,9.391829,2.928815,0.99302137,-0.0024422223,-0.007326666999999999,-0.017095556,9.887896204734057,0.01875906590253723,stand
09/07/2020, 21:28:46,9.391829,2.928815,0.99302137,-0.006105555699999999,0.007326666999999999,-0.015874445,9.887896204734057,0.018519068023009337,stand
09/07/2020, 21:28:46,9.45165,2.9623144,1.0145568,-0.006105555699999999,0.007326666999999999,-0.015874445,9.956822447289415,0.018519068023009337,stand
09/07/2020, 21:28:46,9.45165,2.9623144,1.0145568,-0.007326666999999999,0.013432221999999999,-0.019537778999999998,9.956822447289415,0.02481591108170593,stand
09/07/2020, 21:28:46,9.466006,2.9455647000000003,1.0552348,-0.007326666999999999,0.013432221999999999,-0.019537778999999998,9.969711480957784,0.02481591108170593,stand
09/07/2020, 21:28:46,9.466006,2.9455647000000003,1.0552348,-0.0048844446,0.02075889,-0.023201112000000003,9.969711480957784,0.03151318584093543,stand
09/07/2020, 21:28:46,9.432507000000001,2.926422,0.9906286,-0.0048844446,0.02075889,-0.023201112000000003,9.925596781622216,0.03151318584093543,stand
09/07/2020, 21:28:46,9.432507000000001,2.926422,0.9906286,0.0,0.012211111,-0.015874445,9.925596781622216,0.020027712274979497,stand
09/07/2020, 21:28:46,9.377472000000001,2.9096723,1.0097711,0.0,0.012211111,-0.015874445,9.870299389394015,0.020027712274979497,stand
09/07/2020, 21:28:46,9.377472000000001,2.9096723,1.0097711,-0.006105555699999999,0.018316668,-0.02198,9.870299389394015,0.02925574385564855,stand
09/07/2020, 21:28:46,9.389436,2.9312077000000003,0.9906286,-0.006105555699999999,0.018316668,-0.02198,9.886092625238977,0.02925574385564855,stand
09/07/2020, 21:28:46,9.389436,2.9312077000000003,0.9906286,-0.0036633335999999997,0.02198,-0.026864445,9.886092625238977,0.034903278333972325,stand
09/07/2020, 21:28:46,9.339186999999999,2.9192436,0.9762716,-0.0036633335999999997,0.02198,-0.026864445,9.83338685126132,0.034903278333972325,stand
09/07/2020, 21:28:46,9.339186999999999,2.9192436,0.9762716,-0.007326666999999999,0.014653333999999999,-0.019537778999999998,9.83338685126132,0.025497549932898732,stand
09/07/2020, 21:28:46,9.367901,2.928815,1.0073783,-0.007326666999999999,0.014653333999999999,-0.019537778999999998,9.86662728964904,0.025497549932898732,stand
09/07/2020, 21:28:46,9.367901,2.928815,1.0073783,-0.008547778,0.013432221999999999,-0.023201112000000003,9.86662728964904,0.02813859797981077,stand
09/07/2020, 21:28:46,9.300901,2.8929226000000003,0.94755775,-0.008547778,0.013432221999999999,-0.023201112000000003,9.78640047098018,0.02813859797981077,stand
09/07/2020, 21:28:46,9.300901,2.8929226000000003,0.94755775,-0.007326666999999999,0.017095556,-0.02198,9.78640047098018,0.028793376541739583,stand
09/07/2020, 21:28:46,9.353543,2.926422,0.9451649,-0.007326666999999999,0.017095556,-0.02198,9.846118781694637,0.028793376541739583,stand
09/07/2020, 21:28:46,9.353543,2.926422,0.9451649,-0.007326666999999999,0.018316668,-0.02198,9.846118781694637,0.029534738707416245,stand
09/07/2020, 21:28:47,9.29133,2.8881368999999997,0.9284152,-0.006105555699999999,0.018316668,-0.019537778999999998,9.774052830304335,0.027468216378946045,stand
09/07/2020, 21:28:47,9.341579,2.885744,0.9451649,-0.006105555699999999,0.018316668,-0.019537778999999998,9.822726815270473,0.027468216378946045,stand
09/07/2020, 21:28:47,9.341579,2.885744,0.9451649,-0.006105555699999999,0.015874445,-0.018316668,9.822726815270473,0.02499552234936775,stand
09/07/2020, 21:28:47,9.317652,2.8809586,0.9212367,-0.006105555699999999,0.015874445,-0.018316668,9.796286712998034,0.02499552234936775,stand
09/07/2020, 21:28:47,9.317652,2.8809586,0.9212367,-0.008547778,0.013432221999999999,-0.018316668,9.796286712998034,0.02426910425326766,stand
09/07/2020, 21:28:47,9.375079,2.9312077000000003,0.9667004000000001,-0.008547778,0.013432221999999999,-0.018316668,9.870085972509925,0.02426910425326766,stand
09/07/2020, 21:28:47,9.375079,2.9312077000000003,0.9667004000000001,-0.007326666999999999,0.01099,-0.025643334,9.870085972509925,0.028845116180575593,stand
09/07/2020, 21:28:47,9.360723,2.9120652999999996,0.99302137,-0.007326666999999999,0.01099,-0.025643334,9.853392414114564,0.028845116180575593,stand
09/07/2020, 21:28:47,9.360723,2.9120652999999996,0.99302137,-0.008547778,0.015874445,-0.018316668,9.853392414114564,0.02570141708413235,stand
09/07/2020, 21:28:47,9.343972,2.9072795,0.9667004000000001,-0.008547778,0.015874445,-0.018316668,9.833442949704901,0.02570141708413235,stand
09/07/2020, 21:28:47,9.343972,2.9072795,0.9667004000000001,-0.006105555699999999,0.015874445,-0.02075889,9.833442949704901,0.026836678749326184,stand
09/07/2020, 21:28:47,9.379864999999999,2.9216363,0.9595219000000001,-0.006105555699999999,0.015874445,-0.02075889,9.87109430765781,0.026836678749326184,stand
09/07/2020, 21:28:47,9.379864999999999,2.9216363,0.9595219000000001,-0.0036633335999999997,0.026864445,-0.018316668,9.87109430765781,0.032720310492813307,stand
09/07/2020, 21:28:47,9.365508,2.8881368999999997,0.9523434000000001,-0.0036633335999999997,0.026864445,-0.018316668,9.846879408773717,0.032720310492813307,stand
09/07/2020, 21:28:47,9.365508,2.8881368999999997,0.9523434000000001,0.0012211112,0.0012211112,-0.017095556,9.846879408773717,0.01718255732962469,stand
09/07/2020, 21:28:47,9.377472000000001,2.9072795,0.9451649,0.0012211112,0.0012211112,-0.017095556,9.863193724517476,0.01718255732962469,stand
09/07/2020, 21:28:47,9.377472000000001,2.9072795,0.9451649,-0.0012211112,0.013432221999999999,-0.017095556,9.863193724517476,0.021775531291308426,stand
09/07/2020, 21:28:47,9.399008,2.9240294,0.9667004000000001,-0.0012211112,0.013432221999999999,-0.017095556,9.890692838678412,0.021775531291308426,stand
09/07/2020, 21:28:47,9.399008,2.9240294,0.9667004000000001,-0.006105555699999999,0.02075889,-0.023201112000000003,9.890692838678412,0.0317253982264197,stand
09/07/2020, 21:28:47,9.367901,2.9312077000000003,0.9834501,-0.006105555699999999,0.02075889,-0.023201112000000003,9.864923657131593,0.0317253982264197,stand
09/07/2020, 21:28:48,9.341579,2.885744,0.9882358,-0.0048844446,0.015874445,-0.02198,9.826964704520712,0.02754952352493225,stand
09/07/2020, 21:28:48,9.367901,2.9096723,0.9738788,-0.0048844446,0.015874445,-0.02198,9.857595999344461,0.02754952352493225,stand
09/07/2020, 21:28:48,9.367901,2.9096723,0.9738788,-0.006105555699999999,0.014653333999999999,-0.015874445,9.857595999344461,0.022449856059444433,stand
09/07/2020, 21:28:48,9.379864999999999,2.914458,0.96430755,-0.006105555699999999,0.014653333999999999,-0.015874445,9.869438501944455,0.022449856059444433,stand
09/07/2020, 21:28:48,9.379864999999999,2.914458,0.96430755,-0.007326666999999999,0.017095556,-0.017095556,9.869438501944455,0.025262544510021426,stand
09/07/2020, 21:28:48,9.336794,2.8905298999999998,0.9595219000000001,-0.007326666999999999,0.017095556,-0.017095556,9.82097579236761,0.025262544510021426,stand
09/07/2020, 21:28:48,9.336794,2.8905298999999998,0.9595219000000001,-0.006105555699999999,0.018316668,-0.02075889,9.82097579236761,0.028349772796470125,stand
09/07/2020, 21:28:48,9.396614,2.8929226000000003,0.9954142,-0.006105555699999999,0.018316668,-0.02075889,9.882115506995216,0.028349772796470125,stand
09/07/2020, 21:28:48,9.396614,2.8929226000000003,0.9954142,-0.0048844446,0.009768889000000001,-0.018316668,9.882115506995216,0.02132578970722256,stand
09/07/2020, 21:28:48,9.382257000000001,2.8953154,1.0241281,-0.0048844446,0.009768889000000001,-0.018316668,9.872104371090773,0.02132578970722256,stand
09/07/2020, 21:28:48,9.382257000000001,2.8953154,1.0241281,-0.0048844446,0.006105555699999999,-0.015874445,9.872104371090773,0.01769558215186019,stand
09/07/2020, 21:28:48,9.410972000000001,2.928815,1.0313065000000001,-0.0048844446,0.006105555699999999,-0.015874445,9.909991775663986,0.01769558215186019,stand
09/07/2020, 21:28:48,9.410972000000001,2.928815,1.0313065000000001,-0.0024422223,0.012211111,-0.015874445,9.909991775663986,0.02017606772482037,stand
09/07/2020, 21:28:48,9.377472000000001,2.9216363,1.0145568,-0.0024422223,0.012211111,-0.015874445,9.874323472191543,0.02017606772482037,stand
09/07/2020, 21:28:48,9.377472000000001,2.9216363,1.0145568,-0.0036633335999999997,0.018316668,-0.024422223,9.874323472191543,0.030746793106268638,stand
09/07/2020, 21:28:48,9.32483,2.914458,1.0001999,-0.0036633335999999997,0.018316668,-0.024422223,9.820739334339327,0.030746793106268638,stand
09/07/2020, 21:28:48,9.32483,2.914458,1.0001999,-0.01099,0.014653333999999999,-0.017095556,9.820739334339327,0.0250551066165951,stand
09/07/2020, 21:28:48,9.341579,2.928815,1.0073783,-0.01099,0.014653333999999999,-0.017095556,9.841639810019846,0.0250551066165951,stand
09/07/2020, 21:28:48,9.341579,2.928815,1.0073783,-0.006105555699999999,0.013432221999999999,-0.02075889,9.841639810019846,0.02546829219672924,stand
09/07/2020, 21:28:48,9.399008,2.9336007,0.9810573,-0.006105555699999999,0.013432221999999999,-0.02075889,9.894939809223976,0.02546829219672924,stand
09/07/2020, 21:28:49,9.401401,2.9168507999999997,0.98584294,0.0,0.01099,-0.012211111,9.892736604863382,0.016428370224844616,stand
09/07/2020, 21:28:49,9.401401,2.9168507999999997,0.98584294,-0.0024422223,0.013432221999999999,-0.023201112000000003,9.892736604863382,0.026919892891197048,stand
09/07/2020, 21:28:49,9.353543,2.9072795,0.9762716,-0.0024422223,0.013432221999999999,-0.023201112000000003,9.843482729980547,0.026919892891197048,stand
09/07/2020, 21:28:49,9.353543,2.9072795,0.9762716,-0.007326666999999999,0.018316668,-0.023201112000000003,9.843482729980547,0.030454424076251294,stand
09/07/2020, 21:28:49,9.312864999999999,2.902494,0.9523434000000001,-0.007326666999999999,0.018316668,-0.023201112000000003,9.801065677309444,0.030454424076251294,stand
09/07/2020, 21:28:49,9.312864999999999,2.902494,0.9523434000000001,-0.009768889000000001,0.015874445,-0.02075889,9.801065677309444,0.02789911672295451,stand
09/07/2020, 21:28:49,9.329616,2.8977082000000003,0.97866446,-0.009768889000000001,0.015874445,-0.02075889,9.818157867728084,0.02789911672295451,stand
09/07/2020, 21:28:49,9.329616,2.8977082000000003,0.97866446,-0.007326666999999999,0.013432221999999999,-0.017095556,9.818157867728084,0.022942595815824064,stand
09/07/2020, 21:28:49,9.370294,2.9120652999999996,0.9714860000000001,-0.007326666999999999,0.013432221999999999,-0.017095556,9.860340338475813,0.022942595815824064,stand
09/07/2020, 21:28:49,9.370294,2.9120652999999996,0.9714860000000001,0.0,0.009768889000000001,-0.008547778,9.860340338475813,0.012980589768490605,stand
09/07/2020, 21:28:49,9.437292,2.9671001,1.0193424,0.0,0.009768889000000001,-0.008547778,9.945110577427762,0.012980589768490605,stand
09/07/2020, 21:28:49,9.437292,2.9671001,1.0193424,-0.0024422223,0.018316668,-0.019537778999999998,9.945110577427762,0.02689218382094504,stand
09/07/2020, 21:28:49,9.430114,2.9599216,1.026521,-0.0024422223,0.018316668,-0.019537778999999998,9.9368972674342,0.02689218382094504,stand
09/07/2020, 21:28:49,9.430114,2.9599216,1.026521,-0.012211111,0.019537778999999998,-0.023201112000000003,9.9368972674342,0.032697516982163374,stand
09/07/2020, 21:28:49,9.430114,2.9312077000000003,1.0145568,-0.012211111,0.019537778999999998,-0.023201112000000003,9.92715215437701,0.032697516982163374,stand
09/07/2020, 21:28:49,9.430114,2.9312077000000003,1.0145568,-0.012211111,0.012211111,-0.02198,9.92715215437701,0.02795251171168776,stand
09/07/2020, 21:28:49,9.355936999999999,2.8809586,0.9738788,-0.012211111,0.012211111,-0.02198,9.837780204454905,0.02795251171168776,stand
09/07/2020, 21:28:49,9.355936999999999,2.8809586,0.9738788,-0.0048844446,0.01099,-0.014653333999999999,9.837780204454905,0.01895674327476611,stand
09/07/2020, 21:28:49,9.35833,2.8905298999999998,0.94277215,-0.0048844446,0.01099,-0.014653333999999999,9.839833250681943,0.01895674327476611,stand
09/07/2020, 21:28:49,9.35833,2.8905298999999998,0.94277215,0.0,0.015874445,-0.019537778999999998,9.839833250681943,0.025173851701227254,stand
09/07/2020, 21:28:50,9.353543,2.885744,0.95712906,-0.01099,0.018316668,-0.02198,9.835262423581568,0.030649646744302,stand
09/07/2020, 21:28:50,9.32483,2.8905298999999998,0.9523434000000001,-0.01099,0.018316668,-0.02198,9.808902917952453,0.030649646744302,stand
09/07/2020, 21:28:50,9.32483,2.8905298999999998,0.9523434000000001,-0.012211111,0.019537778999999998,-0.023201112000000003,9.808902917952453,0.032697516982163374,stand
09/07/2020, 21:28:50,9.24826,2.8713872000000005,0.930808,-0.012211111,0.019537778999999998,-0.023201112000000003,9.728390043996344,0.032697516982163374,stand
09/07/2020, 21:28:50,9.24826,2.8713872000000005,0.930808,-0.0036633335999999997,0.015874445,-0.017095556,9.728390043996344,0.02361516636576148,stand
09/07/2020, 21:28:50,9.265009,2.902494,0.94277215,-0.0036633335999999997,0.015874445,-0.017095556,9.754674822068626,0.02361516636576148,stand
09/07/2020, 21:28:50,9.265009,2.902494,0.94277215,-0.0012211112,0.013432221999999999,-0.02075889,9.754674822068626,0.02475575104165692,stand
09/07/2020, 21:28:50,9.293723,2.9096723,0.9667004000000001,-0.0012211112,0.013432221999999999,-0.02075889,9.786418724722015,0.02475575104165692,stand
09/07/2020, 21:28:50,9.293723,2.9096723,0.9667004000000001,-0.01099,0.013432221999999999,-0.019537778999999998,9.786418724722015,0.026132919811040742,stand
09/07/2020, 21:28:50,9.296116,2.9168507999999997,0.9714860000000001,-0.01099,0.013432221999999999,-0.019537778999999998,9.79130093403438,0.026132919811040742,stand
09/07/2020, 21:28:50,9.296116,2.9168507999999997,0.9714860000000001,-0.015874445,0.014653333999999999,-0.025643334,9.79130093403438,0.033530565083884786,stand
09/07/2020, 21:28:50,9.372686,2.9120652999999996,0.9954142,-0.015874445,0.014653333999999999,-0.025643334,9.864999931037133,0.033530565083884786,stand
09/07/2020, 21:28:50,9.372686,2.9120652999999996,0.9954142,-0.006105555699999999,0.01099,-0.013432221999999999,9.864999931037133,0.01839789435232852,stand
09/07/2020, 21:28:50,9.365508,2.9120652999999996,0.9667004000000001,-0.006105555699999999,0.01099,-0.013432221999999999,9.855322182731797,0.01839789435232852,stand
09/07/2020, 21:28:50,9.365508,2.9120652999999996,0.9667004000000001,-0.0024422223,0.014653333999999999,-0.018316668,9.855322182731797,0.023583574114743804,stand
09/07/2020, 21:28:50,9.363114999999999,2.9120652999999996,1.0001999,-0.0024422223,0.014653333999999999,-0.018316668,9.856391444709974,0.023583574114743804,stand
09/07/2020, 21:28:50,9.363114999999999,2.9120652999999996,1.0001999,-0.0048844446,0.014653333999999999,-0.019537778999999998,9.856391444709974,0.024905878820733283,stand
09/07/2020, 21:28:50,9.401401,2.9479575000000002,0.9954142,-0.0048844446,0.014653333999999999,-0.019537778999999998,9.902910458205216,0.024905878820733283,stand
09/07/2020, 21:28:50,9.401401,2.9479575000000002,0.9954142,-0.008547778,0.019537778999999998,-0.019537778999999998,9.902910458205216,0.028922553411849763,stand
09/07/2020, 21:28:50,9.351150500000001,2.9216363,1.0121639999999998,-0.008547778,0.019537778999999998,-0.019537778999999998,9.849083753732748,0.028922553411849763,stand
09/07/2020, 21:28:51,9.442079,2.9383862,0.98584294,-0.0036633335999999997,0.012211111,-0.018316668,9.937748632717181,0.02231662078676751,stand
09/07/2020, 21:28:51,9.444471,2.9240294,0.9834501,-0.0036633335999999997,0.012211111,-0.018316668,9.935550363478047,0.02231662078676751,stand
09/07/2020, 21:28:51,9.444471,2.9240294,0.9834501,-0.0024422223,0.014653333999999999,-0.018316668,9.935550363478047,0.023583574114743804,stand
09/07/2020, 21:28:51,9.408579,2.8977082000000003,0.9906286,-0.0024422223,0.014653333999999999,-0.018316668,9.894413277661576,0.023583574114743804,stand
09/07/2020, 21:28:51,9.408579,2.8977082000000003,0.9906286,-0.0048844446,0.017095556,-0.023201112000000003,9.894413277661576,0.029230248634378536,stand
09/07/2020, 21:28:51,9.382257000000001,2.914458,1.0097711,-0.0048844446,0.017095556,-0.023201112000000003,9.876257307940989,0.029230248634378536,stand
09/07/2020, 21:28:51,9.382257000000001,2.914458,1.0097711,-0.01099,0.014653333999999999,-0.02075889,9.876257307940989,0.027684504947473643,stand
09/07/2020, 21:28:51,9.406186,2.9383862,1.0025927,-0.01099,0.014653333999999999,-0.02075889,9.905334046798485,0.027684504947473643,stand
09/07/2020, 21:28:51,9.406186,2.9383862,1.0025927,-0.0024422223,0.012211111,-0.014653333999999999,9.905334046798485,0.019230077995824955,stand
09/07/2020, 21:28:51,9.439685,2.9503502999999998,0.9954142,-0.0024422223,0.012211111,-0.014653333999999999,9.939973170520084,0.019230077995824955,stand
09/07/2020, 21:28:51,9.439685,2.9503502999999998,0.9954142,-0.0024422223,0.013432221999999999,-0.02198,9.939973170520084,0.025874881216591476,stand
09/07/2020, 21:28:51,9.444471,2.952743,1.0169496999999998,-0.0024422223,0.013432221999999999,-0.02198,9.947407571491883,0.025874881216591476,stand
09/07/2020, 21:28:51,9.444471,2.952743,1.0169496999999998,-0.0048844446,0.018316668,-0.023201112000000003,9.947407571491883,0.029960802610553356,stand
09/07/2020, 21:28:51,9.475577000000001,2.9671001,1.0480564,-0.0048844446,0.018316668,-0.023201112000000003,9.984421445592721,0.029960802610553356,stand
09/07/2020, 21:28:51,9.475577000000001,2.9671001,1.0480564,-0.009768889000000001,0.017095556,-0.024422223,9.984421445592721,0.03137091349163169,stand
09/07/2020, 21:28:51,9.351150500000001,2.9359933999999996,0.98584294,-0.009768889000000001,0.017095556,-0.024422223,9.850683207693443,0.03137091349163169,stand
09/07/2020, 21:28:51,9.351150500000001,2.9359933999999996,0.98584294,-0.007326666999999999,0.012211111,-0.019537778999999998,9.850683207693443,0.02417676745779986,stand
09/07/2020, 21:28:51,9.379864999999999,2.952743,1.0025927,-0.007326666999999999,0.012211111,-0.019537778999999998,9.884621655907328,0.02417676745779986,stand
09/07/2020, 21:28:51,9.379864999999999,2.952743,1.0025927,-0.0012211112,0.007326666999999999,-0.013432221999999999,9.884621655907328,0.01534912908874015,stand
09/07/2020, 21:28:51,9.35833,2.9336007,0.9714860000000001,-0.0012211112,0.007326666999999999,-0.013432221999999999,9.855360672775095,0.01534912908874015,stand
09/07/2020, 21:28:52,9.288938,2.900101,0.94755775,-0.0036633335999999997,0.018316668,-0.019537778999999998,9.777157681995345,0.02703044790317766,stand
09/07/2020, 21:28:52,9.288938,2.900101,0.94755775,-0.0036633335999999997,0.014653333999999999,-0.017095556,9.777157681995345,0.02281223955186262,stand
09/07/2020, 21:28:52,9.288938,2.9096723,0.95712906,-0.0036633335999999997,0.014653333999999999,-0.017095556,9.780932974755128,0.02281223955186262,stand
09/07/2020, 21:28:52,9.288938,2.9096723,0.95712906,-0.006105555699999999,0.014653333999999999,-0.019537778999999998,9.780932974755128,0.025173851723815147,stand
09/07/2020, 21:28:52,9.348758,2.902494,0.9906286,-0.006105555699999999,0.014653333999999999,-0.019537778999999998,9.838957644364225,0.025173851723815147,stand
09/07/2020, 21:28:52,9.348758,2.902494,0.9906286,-0.006105555699999999,0.018316668,-0.023201112000000003,9.838957644364225,0.03018393121924513,stand
09/07/2020, 21:28:52,9.372686,2.9072795,0.96909314,-0.006105555699999999,0.018316668,-0.023201112000000003,9.86096677082075,0.03018393121924513,stand
09/07/2020, 21:28:52,9.372686,2.9072795,0.96909314,-0.006105555699999999,0.02075889,-0.024422223,9.86096677082075,0.032629040321325416,stand
09/07/2020, 21:28:52,9.38465,2.9336007,0.9595219000000001,-0.006105555699999999,0.02075889,-0.024422223,9.879187975765763,0.032629040321325416,stand
09/07/2020, 21:28:52,9.38465,2.9336007,0.9595219000000001,-0.007326666999999999,0.012211111,-0.018316668,9.879187975765763,0.023201112096246927,stand
09/07/2020, 21:28:52,9.293723,2.900101,0.94755775,-0.007326666999999999,0.012211111,-0.018316668,9.781704368983654,0.023201112096246927,stand
09/07/2020, 21:28:52,9.293723,2.900101,0.94755775,-0.008547778,0.015874445,-0.017095556,9.781704368983654,0.024845936937285703,stand
09/07/2020, 21:28:52,9.260223,2.902494,0.9403792999999999,-0.008547778,0.015874445,-0.017095556,9.74989854448983,0.024845936937285703,stand
09/07/2020, 21:28:52,9.260223,2.902494,0.9403792999999999,-0.012211111,0.02075889,-0.02198,9.74989854448983,0.03260618297300279,stand
09/07/2020, 21:28:52,9.346364999999999,2.9216363,1.0097711,-0.012211111,0.02075889,-0.02198,9.844294533282758,0.03260618297300279,stand
09/07/2020, 21:28:52,9.346364999999999,2.9216363,1.0097711,-0.006105555699999999,0.018316668,-0.02075889,9.844294533282758,0.028349772796470125,stand
09/07/2020, 21:28:52,9.343972,2.926422,1.0121639999999998,-0.006105555699999999,0.018316668,-0.02075889,9.843690312289755,0.028349772796470125,stand
09/07/2020, 21:28:52,9.343972,2.926422,1.0121639999999998,-0.009768889000000001,0.015874445,-0.02075889,9.843690312289755,0.02789911672295451,stand
09/07/2020, 21:28:52,9.365508,2.9192436,0.9834501,-0.009768889000000001,0.015874445,-0.02075889,9.859102330387287,0.02789911672295451,stand
09/07/2020, 21:28:52,9.365508,2.9192436,0.9834501,-0.008547778,0.013432221999999999,-0.019537778999999998,9.859102330387287,0.025203450229321567,stand
09/07/2020, 21:28:53,9.389436,2.9120652999999996,0.9738788,-0.008547778,0.015874445,-0.025643334,9.878768551045164,0.03134713860693606,stand
09/07/2020, 21:28:53,9.382257000000001,2.9168507999999997,0.9906286,-0.008547778,0.015874445,-0.025643334,9.875024998369618,0.03134713860693606,stand
09/07/2020, 21:28:53,9.382257000000001,2.9168507999999997,0.9906286,-0.013432221999999999,0.013432221999999999,-0.018316668,9.875024998369618,0.026388435108824056,stand
09/07/2020, 21:28:53,9.32483,2.8929226000000003,0.930808,-0.013432221999999999,0.013432221999999999,-0.018316668,9.807541002025756,0.026388435108824056,stand
09/07/2020, 21:28:53,9.32483,2.8929226000000003,0.930808,-0.006105555699999999,0.009768889000000001,-0.017095556,9.807541002025756,0.02061472918995803,stand
09/07/2020, 21:28:53,9.391829,2.900101,0.9595219000000001,-0.006105555699999999,0.009768889000000001,-0.017095556,9.876118216405676,0.02061472918995803,stand
09/07/2020, 21:28:53,9.391829,2.900101,0.9595219000000001,-0.006105555699999999,0.009768889000000001,-0.02198,9.876118216405676,0.02481591096713746,stand
09/07/2020, 21:28:53,9.4229355,2.940779,1.0336994000000002,-0.006105555699999999,0.009768889000000001,-0.02198,9.925141236303439,0.02481591096713746,stand
09/07/2020, 21:28:53,9.4229355,2.940779,1.0336994000000002,-0.009768889000000001,0.009768889000000001,-0.017095556,9.925141236303439,0.021980001073744558,stand
09/07/2020, 21:28:53,9.367901,2.9336007,1.0145568,-0.009768889000000001,0.009768889000000001,-0.017095556,9.86878435231072,0.021980001073744558,stand
09/07/2020, 21:28:53,9.367901,2.9336007,1.0145568,-0.01099,0.008547778,-0.024422223,9.86878435231072,0.028112089642837464,stand
09/07/2020, 21:28:53,9.403792999999999,2.9336007,0.9714860000000001,-0.01099,0.008547778,-0.024422223,9.898541657126568,0.028112089642837464,stand
09/07/2020, 21:28:53,9.403792999999999,2.9336007,0.9714860000000001,-0.01099,0.014653333999999999,-0.02198,9.898541657126568,0.028611549156285356,stand
09/07/2020, 21:28:53,9.365508,2.9096723,0.9451649,-0.01099,0.014653333999999999,-0.02198,9.85252612145263,0.028611549156285356,stand
09/07/2020, 21:28:53,9.365508,2.9096723,0.9451649,-0.008547778,0.018316668,-0.02198,9.85252612145263,0.029861099295941964,stand
09/07/2020, 21:28:53,9.420542999999999,2.9336007,0.96430755,-0.008547778,0.018316668,-0.02198,9.913754434296823,0.029861099295941964,stand
09/07/2020, 21:28:53,9.420542999999999,2.9336007,0.96430755,-0.0012211112,0.017095556,-0.02075889,9.913754434296823,0.026919893424548383,stand
09/07/2020, 21:28:53,9.367901,2.914458,0.9954142,-0.0012211112,0.017095556,-0.02075889,9.86116024490958,0.026919893424548383,stand
09/07/2020, 21:28:53,9.367901,2.914458,0.9954142,-0.007326666999999999,0.02075889,-0.014653333999999999,9.86116024490958,0.026444881530298864,stand
09/07/2020, 21:28:53,9.394221,2.9312077000000003,1.0097711,-0.007326666999999999,0.02075889,-0.014653333999999999,9.892573475223124,0.026444881530298864,stand
09/07/2020, 21:28:54,9.363114999999999,2.902494,0.9810573,-0.0024422223,0.014653333999999999,-0.02075889,9.851643155895623,0.025526773333157612,stand
09/07/2020, 21:28:54,9.363114999999999,2.902494,0.9810573,-0.006105555699999999,0.015874445,-0.02075889,9.851643155895623,0.026836678749326184,stand
09/07/2020, 21:28:54,9.363114999999999,2.9192436,0.99302137,-0.006105555699999999,0.015874445,-0.02075889,9.857788941000255,0.026836678749326184,stand
09/07/2020, 21:28:54,9.363114999999999,2.9192436,0.99302137,-0.01099,0.014653333999999999,-0.018316668,9.857788941000255,0.02590367976581512,stand
09/07/2020, 21:28:54,9.351150500000001,2.885744,0.9810573,-0.01099,0.014653333999999999,-0.018316668,9.835344848604155,0.02590367976581512,stand
09/07/2020, 21:28:54,9.351150500000001,2.885744,0.9810573,-0.0048844446,0.012211111,-0.015874445,9.835344848604155,0.02061472916237464,stand
09/07/2020, 21:28:54,9.353543,2.8881368999999997,0.9595219000000001,-0.0048844446,0.012211111,-0.015874445,9.836197879273556,0.02061472916237464,stand
09/07/2020, 21:28:54,9.353543,2.8881368999999997,0.9595219000000001,0.0,0.017095556,-0.023201112000000003,9.836197879273556,0.028819258070930512,stand
09/07/2020, 21:28:54,9.317652,2.8809586,0.96909314,0.0,0.017095556,-0.023201112000000003,9.800902909364057,0.028819258070930512,stand
09/07/2020, 21:28:54,9.317652,2.8809586,0.96909314,-0.0024422223,0.019537778999999998,-0.025643334,9.800902909364057,0.032330632678149514,stand
09/07/2020, 21:28:54,9.312864999999999,2.902494,0.99302137,-0.0024422223,0.019537778999999998,-0.025643334,9.805101829684613,0.032330632678149514,stand
09/07/2020, 21:28:54,9.312864999999999,2.902494,0.99302137,-0.006105555699999999,0.014653333999999999,-0.02075889,9.805101829684613,0.026132920180942442,stand
09/07/2020, 21:28:54,9.355936999999999,2.9336007,1.0289137,-0.006105555699999999,0.014653333999999999,-0.02075889,9.858916449486738,0.026132920180942442,stand
09/07/2020, 21:28:54,9.355936999999999,2.9336007,1.0289137,-0.007326666999999999,0.009768889000000001,-0.018316668,9.858916449486738,0.02201389468913426,stand
09/07/2020, 21:28:54,9.355936999999999,2.9312077000000003,1.0193424,-0.007326666999999999,0.009768889000000001,-0.018316668,9.85721028112942,0.02201389468913426,stand
09/07/2020, 21:28:54,9.355936999999999,2.9312077000000003,1.0193424,-0.0012211112,0.01099,-0.017095556,9.85721028112942,0.02035999192461788,stand
09/07/2020, 21:28:54,9.382257000000001,2.9072795,0.9906286,-0.0012211112,0.01099,-0.017095556,9.87220209170198,0.02035999192461788,stand
09/07/2020, 21:28:54,9.382257000000001,2.9072795,0.9906286,-0.007326666999999999,0.02075889,-0.02198,9.87220209170198,0.03110839081810797,stand
09/07/2020, 21:28:54,9.430114,2.928815,1.0193424,-0.007326666999999999,0.02075889,-0.02198,9.92693617187251,0.03110839081810797,stand
09/07/2020, 21:28:54,9.430114,2.928815,1.0193424,-0.007326666999999999,0.02075889,-0.02198,9.92693617187251,0.03110839081810797,stand
09/07/2020, 21:28:55,9.363114999999999,2.9216363,0.97866446,-0.0012211112,0.009768889000000001,-0.018316668,9.857062004603211,0.020794773853898437,stand
09/07/2020, 21:28:55,9.363114999999999,2.9216363,0.97866446,-0.0024422223,0.024422223,-0.02075889,9.857062004603211,0.03214562041568926,stand
09/07/2020, 21:28:55,9.375079,2.926422,1.026521,-0.0024422223,0.024422223,-0.02075889,9.874705103343556,0.03214562041568926,stand
09/07/2020, 21:28:55,9.375079,2.926422,1.026521,-0.007326666999999999,0.02075889,-0.025643334,9.874705103343556,0.03379633291186252,stand
09/07/2020, 21:28:55,9.399008,2.9216363,1.0025927,-0.007326666999999999,0.02075889,-0.025643334,9.893558438753683,0.03379633291186252,stand
09/07/2020, 21:28:55,9.399008,2.9216363,1.0025927,-0.007326666999999999,0.012211111,-0.018316668,9.893558438753683,0.023201112096246927,stand
09/07/2020, 21:28:55,9.379864999999999,2.8977082000000003,0.97866446,-0.007326666999999999,0.012211111,-0.018316668,9.865919037597447,0.023201112096246927,stand
09/07/2020, 21:28:55,9.379864999999999,2.8977082000000003,0.97866446,0.0,0.012211111,-0.018316668,9.865919037597447,0.02201389448249233,stand
09/07/2020, 21:28:55,9.363114999999999,2.9168507999999997,0.9810573,0.0,0.012211111,-0.018316668,9.855882524669706,0.02201389448249233,stand
09/07/2020, 21:28:55,9.363114999999999,2.9168507999999997,0.9810573,-0.0012211112,0.014653333999999999,-0.02075889,9.855882524669706,0.025439001934078047,stand
09/07/2020, 21:28:55,9.35833,2.9072795,0.9810573,-0.0012211112,0.014653333999999999,-0.02075889,9.848506667482864,0.025439001934078047,stand
09/07/2020, 21:28:55,9.35833,2.9072795,0.9810573,-0.006105555699999999,0.02198,-0.024422223,9.848506667482864,0.03341920410821478,stand
09/07/2020, 21:28:55,9.387042999999998,2.9120652999999996,0.9667004000000001,-0.006105555699999999,0.02198,-0.024422223,9.87578908279356,0.03341920410821478,stand
09/07/2020, 21:28:55,9.387042999999998,2.9120652999999996,0.9667004000000001,-0.013432221999999999,0.009768889000000001,-0.02075889,9.87578908279356,0.026585471503144043,stand
09/07/2020, 21:28:55,9.434899,2.9096723,1.0001999,-0.013432221999999999,0.009768889000000001,-0.02075889,9.923906383075758,0.026585471503144043,stand
09/07/2020, 21:28:55,9.434899,2.9096723,1.0001999,-0.008547778,0.009768889000000001,-0.02198,9.923906383075758,0.02552677299902361,stand
09/07/2020, 21:28:55,9.379864999999999,2.8713872000000005,0.9714860000000001,-0.008547778,0.009768889000000001,-0.02198,9.857510403166314,0.02552677299902361,stand
09/07/2020, 21:28:55,9.379864999999999,2.8713872000000005,0.9714860000000001,-0.0024422223,0.012211111,-0.017095556,9.857510403166314,0.02115026577404,stand
09/07/2020, 21:28:55,9.329616,2.8666015,0.9403792999999999,-0.0024422223,0.012211111,-0.017095556,9.805276352665976,0.02115026577404,stand
09/07/2020, 21:28:55,9.329616,2.8666015,0.9403792999999999,-0.0024422223,0.015874445,-0.023201112000000003,9.805276352665976,0.02821797392000492,stand
09/07/2020, 21:28:56,9.700503,-1.550549,0.9212367,0.18683001,-0.03052778,0.5421733,9.866744375494427,0.5742728575440721,stand
09/07/2020, 21:28:56,9.707682,-1.4069797,0.94755775,0.18683001,-0.03052778,0.5421733,9.85477248020865,0.5742728575440721,stand
09/07/2020, 21:28:56,9.707682,-1.4069797,0.94755775,0.22224224,-0.06227667,0.5238567,9.85477248020865,0.5724472347580408,stand
09/07/2020, 21:28:56,9.702896,-1.3543376,0.96430755,0.22224224,-0.06227667,0.5238567,9.844303550080218,0.5724472347580408,stand
09/07/2020, 21:28:56,9.702896,-1.3543376,0.96430755,0.22590557,-0.081814446,0.54950005,9.844303550080218,0.5997309661971023,stand
09/07/2020, 21:28:56,9.846465,-1.3567305,0.9954142,0.22590557,-0.081814446,0.54950005,9.98921629290265,0.5997309661971023,stand
09/07/2020, 21:28:56,9.846465,-1.3567305,0.9954142,0.1306589,-0.04151778,0.50554,9.98921629290265,0.5237997497493769,stand
09/07/2020, 21:28:56,9.836894000000001,-1.3304094,0.91405827,0.1306589,-0.04151778,0.50554,9.968449025389797,0.5237997497493769,stand
09/07/2020, 21:28:56,9.836894000000001,-1.3304094,0.91405827,-0.02198,-0.036633335,0.46158000000000005,9.968449025389797,0.4635528294587301,stand
09/07/2020, 21:28:56,9.79143,-1.4093726,1.0121639999999998,-0.02198,-0.036633335,0.46158000000000005,9.943989023828234,0.4635528294587301,stand
09/07/2020, 21:28:56,9.79143,-1.4093726,1.0121639999999998,-0.085477784,-0.08425667,0.44692668,9.943989023828234,0.4627624643593067,stand
09/07/2020, 21:28:56,9.698111,-1.4835501,0.97866446,-0.085477784,-0.08425667,0.44692668,9.859617323546226,0.4627624643593067,stand
09/07/2020, 21:28:56,9.698111,-1.4835501,0.97866446,-0.037854444,-0.081814446,0.5128667,9.859617323546226,0.52072909430062,stand
09/07/2020, 21:28:56,9.755538,-1.5074782,0.9403792999999999,-0.037854444,-0.081814446,0.5128667,9.916013579809198,0.52072909430062,stand
09/07/2020, 21:28:56,9.755538,-1.5074782,0.9403792999999999,0.06227667,-0.035412222,0.5360678000000001,9.916013579809198,0.5408336877665436,stand
09/07/2020, 21:28:56,9.745967,-1.6175481000000003,0.930808,0.06227667,-0.035412222,0.5360678000000001,9.923040686488989,0.5408336877665436,stand
09/07/2020, 21:28:56,9.745967,-1.6175481000000003,0.930808,0.10013112,-0.036633335,0.47379112,9.923040686488989,0.4856400616608384,stand
09/07/2020, 21:28:56,9.765108999999999,-1.6486547999999999,1.0001999,0.10013112,-0.036633335,0.47379112,9.953683618397783,0.4856400616608384,stand
09/07/2020, 21:28:56,9.765108999999999,-1.6486547999999999,1.0001999,0.047623335999999995,-0.07937223,0.44326335,9.953683618397783,0.4528248356308692,stand
09/07/2020, 21:28:56,9.647861,-1.6223338,0.94755775,0.047623335999999995,-0.07937223,0.44326335,9.829091783015091,0.4528248356308692,stand
09/07/2020, 21:28:57,9.829716000000001,0.61016977,1.4835501,-0.0012211112,0.014653333999999999,-0.07204556,9.959745944034148,0.07353076657917712,stand
09/07/2020, 21:28:57,9.932607,0.6029913,1.5337993,-0.0012211112,0.014653333999999999,-0.07204556,10.068406753317534,0.07353076657917712,stand
09/07/2020, 21:28:57,9.932607,0.6029913,1.5337993,-0.0012211112,-0.0024422223,-0.13920668,10.068406753317534,0.13923345385256422,stand
09/07/2020, 21:28:57,9.851251,0.6029913,1.5266209,-0.0012211112,-0.0024422223,-0.13920668,9.987057078634082,0.13923345385256422,stand
09/07/2020, 21:28:57,9.851251,0.6029913,1.5266209,0.0048844446,-0.009768889000000001,-0.19293556,9.987057078634082,0.19324445097661552,stand
09/07/2020, 21:28:57,9.7196455,0.59342,1.4548361,0.0048844446,-0.009768889000000001,-0.19293556,9.845821659223935,0.19324445097661552,stand
09/07/2020, 21:28:57,9.7196455,0.59342,1.4548361,0.009768889000000001,-0.02075889,-0.21247335,9.845821659223935,0.2137084139993045,stand
09/07/2020, 21:28:57,9.729217,0.6364908,1.4739788,0.009768889000000001,-0.02075889,-0.21247335,9.860800632822404,0.2137084139993045,stand
09/07/2020, 21:28:57,9.729217,0.6364908,1.4739788,0.006105555699999999,-0.029306669,-0.21857889999999996,9.860800632822404,0.2206193470633107,stand
09/07/2020, 21:28:57,9.769895,0.6771688,1.4452649,0.006105555699999999,-0.029306669,-0.21857889999999996,9.89940345640338,0.2206193470633107,stand
09/07/2020, 21:28:57,9.769895,0.6771688,1.4452649,-0.0012211112,-0.028085556,-0.20758890000000002,9.89940345640338,0.20948374487922927,stand
09/07/2020, 21:28:57,9.767502,0.7106683000000001,1.3998013,-0.0012211112,-0.028085556,-0.20758890000000002,9.89285525214438,0.20948374487922927,stand
09/07/2020, 21:28:57,9.767502,0.7106683000000001,1.3998013,-0.006105555699999999,-0.015874445,-0.19171445,9.89285525214438,0.19246741657209135,stand
09/07/2020, 21:28:57,9.803394,0.73459655,1.3806586,-0.006105555699999999,-0.015874445,-0.19171445,9.9273556641192,0.19246741657209135,stand
09/07/2020, 21:28:57,9.803394,0.73459655,1.3806586,0.0,0.0,-0.1746189,9.9273556641192,0.1746188998222351,stand
09/07/2020, 21:28:57,9.698111,0.7704889,1.3088739999999999,0.0,0.0,-0.1746189,9.816320755751454,0.1746188998222351,stand
09/07/2020, 21:28:57,9.698111,0.7704889,1.3088739999999999,-0.0012211112,0.009768889000000001,-0.14897557,9.816320755751454,0.14930050764872166,stand
09/07/2020, 21:28:57,9.789038,0.7704889,1.4261223,-0.0012211112,0.009768889000000001,-0.14897557,9.922335268913622,0.14930050764872166,stand
09/07/2020, 21:28:57,9.789038,0.7704889,1.4261223,-0.012211111,0.008547778,-0.13188,9.922335268913622,0.13271966777943556,stand
09/07/2020, 21:28:57,9.779466000000001,0.8039884,1.4380864,-0.012211111,0.008547778,-0.13188,9.917279803689157,0.13271966777943556,stand
09/07/2020, 21:28:58,9.779466000000001,0.7537391,1.4500505,-0.008547778,0.009768889000000001,-0.07693,9.915075286106743,0.07801743922204869,stand
09/07/2020, 21:28:58,9.779466000000001,0.7537391,1.4500505,-0.0048844446,0.013432221999999999,-0.059834447,9.915075286106743,0.061517830077207285,stand
09/07/2020, 21:28:58,9.717253,0.7465607,1.4452649,-0.0048844446,0.013432221999999999,-0.059834447,9.852468941650656,0.061517830077207285,stand
09/07/2020, 21:28:58,9.717253,0.7465607,1.4452649,-0.0036633335999999997,0.009768889000000001,-0.045181114,9.852468941650656,0.046370079724797716,stand
09/07/2020, 21:28:58,9.767502,0.7322036999999999,1.457229,-0.0036633335999999997,0.009768889000000001,-0.045181114,9.902713300994066,0.046370079724797716,stand
09/07/2020, 21:28:58,9.767502,0.7322036999999999,1.457229,-0.007326666999999999,0.015874445,-0.03297,9.902713300994066,0.03731888227217282,stand
09/07/2020, 21:28:58,9.705289,0.7585248,1.4189439,-0.007326666999999999,0.015874445,-0.03297,9.837753501479787,0.03731888227217282,stand
09/07/2020, 21:28:58,9.705289,0.7585248,1.4189439,-0.006105555699999999,0.017095556,-0.015874445,9.837753501479787,0.024115013574053618,stand
09/07/2020, 21:28:58,9.74836,0.76331043,1.4285151000000003,-0.006105555699999999,0.017095556,-0.015874445,9.881994464404418,0.024115013574053618,stand
09/07/2020, 21:28:58,9.74836,0.76331043,1.4285151000000003,-0.0036633335999999997,0.012211111,-0.0012211112,9.881994464404418,0.012807121710750326,stand
09/07/2020, 21:28:58,9.793823,0.7537391,1.4261223,-0.0036633335999999997,0.012211111,-0.0012211112,9.925770559247491,0.012807121710750326,stand
09/07/2020, 21:28:58,9.793823,0.7537391,1.4261223,0.0,0.006105555699999999,0.018316668,9.925770559247491,0.01930746279399445,stand
09/07/2020, 21:28:58,9.793823,0.74895346,1.4141582000000001,0.0,0.006105555699999999,0.018316668,9.923696310973476,0.01930746279399445,stand
09/07/2020, 21:28:58,9.793823,0.74895346,1.4141582000000001,-0.0048844446,0.014653333999999999,0.023201112000000003,9.923696310973476,0.027872380462396314,stand
09/07/2020, 21:28:58,9.700503,0.7704889,1.3806586,-0.0048844446,0.014653333999999999,0.023201112000000003,9.828511415542119,0.027872380462396314,stand
09/07/2020, 21:28:58,9.700503,0.7704889,1.3806586,-0.008547778,0.02075889,0.03174889,9.828511415542119,0.03888429095197842,stand
09/07/2020, 21:28:58,9.710074,0.74895346,1.4213367000000001,-0.008547778,0.02075889,0.03174889,9.84208689744298,0.03888429095197842,stand
09/07/2020, 21:28:58,9.710074,0.74895346,1.4213367000000001,-0.007326666999999999,0.025643334,0.045181114,9.84208689744298,0.05246516656768264,stand
09/07/2020, 21:28:58,9.717253,0.72023964,1.4452649,-0.007326666999999999,0.025643334,0.045181114,9.850509454651029,0.05246516656768264,stand
09/07/2020, 21:28:58,9.717253,0.72023964,1.4452649,-0.006105555699999999,0.03174889,0.05250778,9.850509454651029,0.061663091832809436,stand
09/07/2020, 21:28:59,9.68136,0.715454,1.4596218,-0.009768889000000001,0.017095556,0.0048844446,9.816878646026076,0.020286622409748926,stand
09/07/2020, 21:28:59,9.68136,0.715454,1.4596218,-0.007326666999999999,0.015874445,0.01099,9.816878646026076,0.020650863842561915,stand
09/07/2020, 21:28:59,9.815358,0.72263247,1.4715858999999998,-0.007326666999999999,0.015874445,0.01099,9.95133249884142,0.020650863842561915,stand
09/07/2020, 21:28:59,9.815358,0.72263247,1.4715858999999998,-0.0048844446,0.017095556,0.014653333999999999,9.95133249884142,0.023039879769351727,stand
09/07/2020, 21:28:59,9.750752,0.72502524,1.4500505,-0.0048844446,0.017095556,0.014653333999999999,9.884608302353556,0.023039879769351727,stand
09/07/2020, 21:28:59,9.750752,0.72502524,1.4500505,-0.0036633335999999997,0.017095556,0.017095556,9.884608302353556,0.0244527322800251,stand
09/07/2020, 21:28:59,9.688539,0.6987042,1.402194,-0.0036633335999999997,0.017095556,0.017095556,9.81438306133454,0.0244527322800251,stand
09/07/2020, 21:28:59,9.688539,0.6987042,1.402194,-0.006105555699999999,0.015874445,0.006105555699999999,9.81438306133454,0.018070795180976776,stand
09/07/2020, 21:28:59,9.695718,0.6939185999999999,1.4069797,-0.006105555699999999,0.015874445,0.006105555699999999,9.821815448564948,0.018070795180976776,stand
09/07/2020, 21:28:59,9.695718,0.6939185999999999,1.4069797,-0.0048844446,0.018316668,-0.007326666999999999,9.821815448564948,0.02032334030070373,stand
09/07/2020, 21:28:59,9.753145,0.6963114,1.4404793,-0.0048844446,0.018316668,-0.007326666999999999,9.883505035104447,0.02032334030070373,stand
09/07/2020, 21:28:59,9.753145,0.6963114,1.4404793,-0.0012211112,0.018316668,-0.017095556,9.883505035104447,0.025084845489104574,stand
09/07/2020, 21:28:59,9.762716000000001,0.6867401,1.4261223,-0.0012211112,0.018316668,-0.017095556,9.890200514972554,0.025084845489104574,stand
09/07/2020, 21:28:59,9.762716000000001,0.6867401,1.4261223,-0.0048844446,0.01099,-0.03052778,9.890200514972554,0.032811328047195366,stand
09/07/2020, 21:28:59,9.734002,0.70348984,1.4668003,-0.0048844446,0.01099,-0.03052778,9.869001890350278,0.032811328047195366,stand
09/07/2020, 21:28:59,9.734002,0.70348984,1.4668003,-0.007326666999999999,0.008547778,-0.045181114,9.869001890350278,0.04656262071484606,stand
09/07/2020, 21:28:59,9.738789,0.6891329,1.4285151000000003,-0.007326666999999999,0.008547778,-0.045181114,9.867094962832024,0.04656262071484606,stand
09/07/2020, 21:28:59,9.738789,0.6891329,1.4285151000000003,0.0,0.01099,-0.045181114,9.867094962832024,0.046498528901532984,stand
09/07/2020, 21:28:59,9.705289,0.701097,1.3806586,0.0,0.01099,-0.045181114,9.828040885308816,0.046498528901532984,stand
09/07/2020, 21:28:59,9.705289,0.701097,1.3806586,0.0,0.008547778,-0.046402223,9.828040885308816,0.047182950841269215,stand
09/07/2020, 21:29:00,9.803394,0.72263247,1.4787643999999998,0.013432221999999999,0.009768889000000001,0.0,9.940597669394098,0.016608907157741794,stand
09/07/2020, 21:29:00,9.803394,0.72263247,1.4787643999999998,-0.0036633335999999997,0.017095556,-0.0012211112,9.940597669394098,0.017526242522946066,stand
09/07/2020, 21:29:00,9.77468,0.7178468000000001,1.4404793,-0.0036633335999999997,0.017095556,-0.0012211112,9.906293776626898,0.017526242522946066,stand
09/07/2020, 21:29:00,9.77468,0.7178468000000001,1.4404793,-0.026864445,0.025643334,-0.017095556,9.906293776626898,0.04088443488485825,stand
09/07/2020, 21:29:00,9.698111,0.6891329,1.3998013,-0.026864445,0.025643334,-0.017095556,9.822815104419512,0.04088443488485825,stand
09/07/2020, 21:29:00,9.698111,0.6891329,1.3998013,-0.018316668,0.019537778999999998,-0.008547778,9.822815104419512,0.02811209016874034,stand
09/07/2020, 21:29:00,9.738789,0.66041905,1.4524434,-0.018316668,0.019537778999999998,-0.008547778,9.868624449382784,0.02811209016874034,stand
09/07/2020, 21:29:00,9.738789,0.66041905,1.4524434,0.007326666999999999,0.012211111,0.0036633335999999997,9.868624449382784,0.014704125484485225,stand
09/07/2020, 21:29:00,9.753145,0.66759753,1.4715858999999998,0.007326666999999999,0.012211111,0.0036633335999999997,9.886106062480676,0.014704125484485225,stand
09/07/2020, 21:29:00,9.753145,0.66759753,1.4715858999999998,0.007326666999999999,0.017095556,0.0,9.886106062480676,0.018599411379626,stand
09/07/2020, 21:29:00,9.781858999999999,0.72023964,1.4715858999999998,0.007326666999999999,0.017095556,0.0,9.918118944145093,0.018599411379626,stand
09/07/2020, 21:29:00,9.781858999999999,0.72023964,1.4715858999999998,-0.012211111,0.02075889,-0.019537778999999998,9.918118944145093,0.031012377054366838,stand
09/07/2020, 21:29:00,9.767502,0.715454,1.4644073999999998,-0.012211111,0.02075889,-0.019537778999999998,9.90254793386859,0.031012377054366838,stand
09/07/2020, 21:29:00,9.767502,0.715454,1.4644073999999998,-0.017095556,0.017095556,-0.029306669,9.90254793386859,0.03799206414983855,stand
09/07/2020, 21:29:00,9.755538,0.701097,1.4644073999999998,-0.017095556,0.017095556,-0.029306669,9.88971928786138,0.03799206414983855,stand
09/07/2020, 21:29:00,9.755538,0.701097,1.4644073999999998,0.0,0.008547778,-0.025643334,9.88971928786138,0.027030447293121117,stand
09/07/2020, 21:29:00,9.793823,0.70588267,1.4644073999999998,0.0,0.008547778,-0.025643334,9.927826207329439,0.027030447293121117,stand
09/07/2020, 21:29:00,9.793823,0.70588267,1.4644073999999998,0.009768889000000001,0.009768889000000001,-0.02198,9.927826207329439,0.025961179186535382,stand
09/07/2020, 21:29:00,9.853643,0.72263247,1.4787643999999998,0.009768889000000001,0.009768889000000001,-0.02198,9.990156679168422,0.025961179186535382,stand
09/07/2020, 21:29:00,9.853643,0.72263247,1.4787643999999998,-0.0024422223,0.014653333999999999,-0.03297,9.990156679168422,0.036162211804370216,stand
09/07/2020, 21:29:01,9.729217,0.6628119,1.4476577,-0.008547778,0.013432221999999999,-0.017095556,9.858635178686674,0.023361232061152558,stand
09/07/2020, 21:29:01,9.729217,0.6628119,1.4476577,-0.013432221999999999,0.017095556,-0.018316668,9.858635178686674,0.02842855887738884,stand
09/07/2020, 21:29:01,9.633503999999999,0.65084773,1.3830514999999999,-0.013432221999999999,0.017095556,-0.018316668,9.754016194492193,0.02842855887738884,stand
09/07/2020, 21:29:01,9.633503999999999,0.65084773,1.3830514999999999,-0.007326666999999999,0.013432221999999999,-0.015874445,9.754016194492193,0.02204773614891738,stand
09/07/2020, 21:29:01,9.760324,0.6963114,1.4811572,-0.007326666999999999,0.013432221999999999,-0.015874445,9.896594944257087,0.02204773614891738,stand
09/07/2020, 21:29:01,9.760324,0.6963114,1.4811572,0.008547778,0.012211111,-0.013432221999999999,9.896594944257087,0.02006490351224923,stand
09/07/2020, 21:29:01,9.786645,0.7106683000000001,1.4883357,0.008547778,0.012211111,-0.013432221999999999,9.924646684168833,0.02006490351224923,stand
09/07/2020, 21:29:01,9.786645,0.7106683000000001,1.4883357,-0.0012211112,0.012211111,-0.017095556,9.924646684168833,0.021044248737176332,stand
09/07/2020, 21:29:01,9.765108999999999,0.715454,1.4644073999999998,-0.0012211112,0.012211111,-0.017095556,9.900187804252397,0.021044248737176332,stand
09/07/2020, 21:29:01,9.765108999999999,0.715454,1.4644073999999998,-0.009768889000000001,0.015874445,-0.026864445,9.900187804252397,0.03269751691260162,stand
09/07/2020, 21:29:01,9.856036,0.715454,1.5146568,-0.009768889000000001,0.015874445,-0.026864445,9.997375099125904,0.03269751691260162,stand
09/07/2020, 21:29:01,9.856036,0.715454,1.5146568,-0.013432221999999999,0.018316668,-0.024422223,9.997375099125904,0.03335220940755377,stand
09/07/2020, 21:29:01,9.767502,0.71306115,1.430908,-0.013432221999999999,0.018316668,-0.024422223,9.89747674068002,0.03335220940755377,stand
09/07/2020, 21:29:01,9.767502,0.71306115,1.430908,-0.0024422223,0.014653333999999999,-0.023201112000000003,9.89747674068002,0.02754952346301203,stand
09/07/2020, 21:29:01,9.722038000000001,0.72263247,1.4117653000000001,-0.0024422223,0.014653333999999999,-0.023201112000000003,9.850548571267757,0.02754952346301203,stand
09/07/2020, 21:29:01,9.722038000000001,0.72263247,1.4117653000000001,0.0,0.017095556,-0.02198,9.850548571267757,0.027845618694115774,stand
09/07/2020, 21:29:01,9.757931,0.71306115,1.457229,0.0,0.017095556,-0.02198,9.891874708672974,0.027845618694115774,stand
09/07/2020, 21:29:01,9.757931,0.71306115,1.457229,-0.01099,0.014653333999999999,-0.03052778,9.891874708672974,0.035601203036094306,stand
09/07/2020, 21:29:01,9.8321085,0.7298109,1.4524434,-0.01099,0.014653333999999999,-0.03052778,9.965569384988523,0.035601203036094306,stand
09/07/2020, 21:29:01,9.8321085,0.7298109,1.4524434,-0.013432221999999999,0.014653333999999999,-0.034191112999999995,9.965569384988523,0.03954967779608263,stand
09/07/2020, 21:29:02,9.705289,0.7178468000000001,1.4380864,-0.02075889,0.018316668,-0.024422223,9.837480820358383,0.03691716093276417,stand
09/07/2020, 21:29:02,9.829716000000001,0.6891329,1.5194423000000001,-0.02075889,0.018316668,-0.024422223,9.970301924478617,0.03691716093276417,stand
09/07/2020, 21:29:02,9.829716000000001,0.6891329,1.5194423000000001,-0.009768889000000001,0.018316668,-0.02198,9.970301924478617,0.030233291851431306,stand
09/07/2020, 21:29:02,9.77468,0.69152576,1.4333007,-0.009768889000000001,0.018316668,-0.02198,9.903379759401874,0.030233291851431306,stand
09/07/2020, 21:29:02,9.77468,0.69152576,1.4333007,0.0024422223,0.026864445,-0.01099,9.903379759401874,0.029128044107311082,stand
09/07/2020, 21:29:02,9.815358,0.701097,1.4524434,0.0024422223,0.026864445,-0.01099,9.946978666120321,0.029128044107311082,stand
09/07/2020, 21:29:02,9.815358,0.701097,1.4524434,0.0012211112,0.018316668,-0.017095556,9.946978666120321,0.025084845489104574,stand
09/07/2020, 21:29:02,9.769895,0.70348984,1.4285151000000003,0.0012211112,0.018316668,-0.017095556,9.898807694497648,0.025084845489104574,stand
09/07/2020, 21:29:02,9.769895,0.70348984,1.4285151000000003,-0.014653333999999999,0.018316668,-0.023201112000000003,9.898807694497648,0.032992606784931086,stand
09/07/2020, 21:29:02,9.712467,0.73459655,1.4189439,-0.014653333999999999,0.018316668,-0.023201112000000003,9.843020512983387,0.032992606784931086,stand
09/07/2020, 21:29:02,9.712467,0.73459655,1.4189439,-0.019537778999999998,0.015874445,-0.028085556,9.843020512983387,0.03771632615506,stand
09/07/2020, 21:29:02,9.846465,0.7082755000000001,1.4907285,-0.019537778999999998,0.015874445,-0.028085556,9.983826962174971,0.03771632615506,stand
09/07/2020, 21:29:02,9.846465,0.7082755000000001,1.4907285,-0.0036633335999999997,0.019537778999999998,-0.019537778999999998,9.983826962174971,0.02787238052359928,stand
09/07/2020, 21:29:02,9.786645,0.6843473000000001,1.442872,-0.0036633335999999997,0.019537778999999998,-0.019537778999999998,9.916079367849054,0.02787238052359928,stand
09/07/2020, 21:29:02,9.786645,0.6843473000000001,1.442872,0.013432221999999999,0.013432221999999999,-0.012211111,9.916079367849054,0.022582303673286192,stand
09/07/2020, 21:29:02,9.743574,0.69152576,1.4333007,0.013432221999999999,0.013432221999999999,-0.012211111,9.872679268334755,0.022582303673286192,stand
09/07/2020, 21:29:02,9.743574,0.69152576,1.4333007,0.0012211112,0.017095556,-0.026864445,9.872679268334755,0.03186608793557616,stand
09/07/2020, 21:29:02,9.734002,0.72263247,1.4644073999999998,0.0012211112,0.017095556,-0.026864445,9.870029583949439,0.03186608793557616,stand
09/07/2020, 21:29:02,9.734002,0.72263247,1.4644073999999998,-0.019537778999999998,0.023201112000000003,-0.03297,9.870029583949439,0.04479996963902413,stand
09/07/2020, 21:29:02,9.736395,0.72023964,1.4931214,-0.019537778999999998,0.023201112000000003,-0.03297,9.87651466420341,0.04479996963902413,stand
09/07/2020, 21:29:03,9.664611,0.6723832,1.375873,0.006105555699999999,0.014653333999999999,-0.014653333999999999,9.785184142861487,0.021603662374207456,stand
09/07/2020, 21:29:03,9.777073,0.72502524,1.4715858999999998,0.006105555699999999,0.014653333999999999,-0.014653333999999999,9.913747080936718,0.021603662374207456,stand
09/07/2020, 21:29:03,9.777073,0.72502524,1.4715858999999998,-0.009768889000000001,0.015874445,-0.02198,9.913747080936718,0.028819258228776123,stand
09/07/2020, 21:29:03,9.777073,0.74177504,1.4739788,-0.009768889000000001,0.015874445,-0.02198,9.91534155747252,0.028819258228776123,stand
09/07/2020, 21:29:03,9.777073,0.74177504,1.4739788,-0.018316668,0.019537778999999998,-0.03052778,9.91534155747252,0.040609979589909175,stand
09/07/2020, 21:29:03,9.74836,0.72263247,1.442872,-0.018316668,0.019537778999999998,-0.03052778,9.881021904780752,0.040609979589909175,stand
09/07/2020, 21:29:03,9.74836,0.72263247,1.442872,-0.008547778,0.017095556,-0.02198,9.881021904780752,0.02912804479056487,stand
09/07/2020, 21:29:03,9.803394,0.68195444,1.4500505,-0.008547778,0.017095556,-0.02198,9.933491248533617,0.02912804479056487,stand
09/07/2020, 21:29:03,9.803394,0.68195444,1.4500505,0.007326666999999999,0.008547778,-0.007326666999999999,9.933491248533617,0.013432223095812582,stand
09/07/2020, 21:29:03,9.738789,0.6843473000000001,1.3926228,0.007326666999999999,0.008547778,-0.007326666999999999,9.861629328804602,0.013432223095812582,stand
09/07/2020, 21:29:03,9.738789,0.6843473000000001,1.3926228,0.006105555699999999,0.014653333999999999,-0.015874445,9.861629328804602,0.022449856059444433,stand
09/07/2020, 21:29:03,9.757931,0.71306115,1.4644073999999998,0.006105555699999999,0.014653333999999999,-0.015874445,9.892934751761487,0.022449856059444433,stand
09/07/2020, 21:29:03,9.757931,0.71306115,1.4644073999999998,-0.014653333999999999,0.019537778999999998,-0.026864445,9.892934751761487,0.036306244597357935,stand
09/07/2020, 21:29:03,9.736395,0.6867401,1.4548361,-0.014653333999999999,0.019537778999999998,-0.026864445,9.86841149492736,0.036306244597357935,stand
09/07/2020, 21:29:03,9.736395,0.6867401,1.4548361,-0.015874445,0.018316668,-0.028085556,9.86841149492736,0.037098474044479884,stand
09/07/2020, 21:29:03,9.750752,0.7082755000000001,1.4691931,-0.015874445,0.018316668,-0.028085556,9.886220504813062,0.037098474044479884,stand
09/07/2020, 21:29:03,9.750752,0.7082755000000001,1.4691931,0.0,0.015874445,-0.015874445,9.886220504813062,0.022449856034115798,stand
09/07/2020, 21:29:03,9.664611,0.6843473000000001,1.3950156,0.0,0.015874445,-0.015874445,9.788723248383873,0.022449856034115798,stand
09/07/2020, 21:29:03,9.664611,0.6843473000000001,1.3950156,0.012211111,0.01099,-0.009768889000000001,9.788723248383873,0.019113412728221542,stand
09/07/2020, 21:29:03,9.690930999999999,0.68195444,1.3830514999999999,0.012211111,0.01099,-0.009768889000000001,9.812850921506119,0.019113412728221542,stand
09/07/2020, 21:29:04,9.738789,0.7298109,1.4524434,-0.0024422223,0.015874445,-0.014653333999999999,9.873510983728057,0.02174126667672958,stand
09/07/2020, 21:29:04,9.738789,0.7298109,1.4524434,-0.006105555699999999,0.017095556,-0.02198,9.873510983728057,0.02850712701600015,stand
09/07/2020, 21:29:04,9.705289,0.70588267,1.4285151000000003,-0.006105555699999999,0.017095556,-0.02198,9.835220284592102,0.02850712701600015,stand
09/07/2020, 21:29:04,9.705289,0.70588267,1.4285151000000003,-0.014653333999999999,0.01099,-0.024422223,9.835220284592102,0.030527778826653963,stand
09/07/2020, 21:29:04,9.772287,0.6987042,1.4859428,-0.014653333999999999,0.01099,-0.024422223,9.909279190680381,0.030527778826653963,stand
09/07/2020, 21:29:04,9.772287,0.6987042,1.4859428,-0.0036633335999999997,0.019537778999999998,-0.023201112000000003,9.909279190680381,0.030552191228450994,stand
09/07/2020, 21:29:04,9.786645,0.69152576,1.4907285,-0.0036633335999999997,0.019537778999999998,-0.023201112000000003,9.923653481554114,0.030552191228450994,stand
09/07/2020, 21:29:04,9.786645,0.69152576,1.4907285,0.0012211112,0.02198,-0.01099,9.923653481554114,0.024604707856914102,stand
09/07/2020, 21:29:04,9.829716000000001,0.6723832,1.4811572,0.0012211112,0.02198,-0.01099,9.963394856373869,0.024604707856914102,stand
09/07/2020, 21:29:04,9.829716000000001,0.6723832,1.4811572,0.0024422223,0.013432221999999999,-0.013432221999999999,9.963394856373869,0.01915237969722267,stand
09/07/2020, 21:29:04,9.817751,0.7178468000000001,1.4835501,0.0024422223,0.013432221999999999,-0.013432221999999999,9.955122209096313,0.01915237969722267,stand
09/07/2020, 21:29:04,9.817751,0.7178468000000001,1.4835501,-0.007326666999999999,0.012211111,-0.02075889,9.955122209096313,0.02517385133982101,stand
09/07/2020, 21:29:04,9.745967,0.6963114,1.4069797,-0.007326666999999999,0.012211111,-0.02075889,9.871591180867128,0.02517385133982101,stand
09/07/2020, 21:29:04,9.745967,0.6963114,1.4069797,-0.013432221999999999,0.018316668,-0.02198,9.871591180867128,0.031607678456330016,stand
09/07/2020, 21:29:04,9.710074,0.701097,1.4237294,-0.013432221999999999,0.018316668,-0.02198,9.838906840408164,0.031607678456330016,stand
09/07/2020, 21:29:04,9.710074,0.701097,1.4237294,-0.006105555699999999,0.01099,-0.018316668,9.838906840408164,0.022216170389897073,stand
09/07/2020, 21:29:04,9.676575,0.6939185999999999,1.3950156,-0.006105555699999999,0.01099,-0.018316668,9.801208577582438,0.022216170389897073,stand
09/07/2020, 21:29:04,9.676575,0.6939185999999999,1.3950156,0.0024422223,0.01099,-0.014653333999999999,9.801208577582438,0.018478765272167644,stand
09/07/2020, 21:29:04,9.793823,0.72502524,1.4691931,0.0024422223,0.01099,-0.014653333999999999,9.929912570649686,0.018478765272167644,stand
09/07/2020, 21:29:04,9.793823,0.72502524,1.4691931,-0.006105555699999999,0.013432221999999999,-0.01099,9.929912570649686,0.01839789435232852,stand
09/07/2020, 21:29:05,9.693324,0.70588267,1.3686945,-0.008547778,0.015874445,-0.02198,9.814893121750124,0.02842855887738884,stand
09/07/2020, 21:29:05,9.693324,0.70588267,1.3686945,-0.007326666999999999,0.02075889,-0.02075889,9.814893121750124,0.030257941905494887,stand
09/07/2020, 21:29:05,9.729217,0.72023964,1.3974084,-0.007326666999999999,0.02075889,-0.02075889,9.855412241773408,0.030257941905494887,stand
09/07/2020, 21:29:05,9.729217,0.72023964,1.3974084,-0.0036633335999999997,0.015874445,-0.019537778999999998,9.855412241773408,0.0254390019955473,stand
09/07/2020, 21:29:05,9.777073,0.7513463,1.4620147,-0.0036633335999999997,0.015874445,-0.019537778999999998,9.914290835803234,0.0254390019955473,stand
09/07/2020, 21:29:05,9.777073,0.7513463,1.4620147,-0.0012211112,0.012211111,-0.02075889,9.914290835803234,0.024115012990456642,stand
09/07/2020, 21:29:05,9.755538,0.72741807,1.4285151000000003,-0.0012211112,0.012211111,-0.02075889,9.886370101134128,0.024115012990456642,stand
09/07/2020, 21:29:05,9.755538,0.72741807,1.4285151000000003,-0.006105555699999999,0.02075889,-0.02075889,9.886370101134128,0.029985676687183008,stand
09/07/2020, 21:29:05,9.741181,0.68195444,1.4213367000000001,-0.006105555699999999,0.02075889,-0.02075889,9.867921477762678,0.029985676687183008,stand
09/07/2020, 21:29:05,9.741181,0.68195444,1.4213367000000001,-0.007326666999999999,0.02198,-0.015874445,9.867921477762678,0.028085556772092117,stand
09/07/2020, 21:29:05,9.753145,0.6987042,1.4117653000000001,-0.007326666999999999,0.02198,-0.015874445,9.879529874623048,0.028085556772092117,stand
09/07/2020, 21:29:05,9.753145,0.6987042,1.4117653000000001,-0.0024422223,0.013432221999999999,-0.015874445,9.879529874623048,0.02093769488131736,stand
09/07/2020, 21:29:05,9.786645,0.72263247,1.4620147,-0.0024422223,0.013432221999999999,-0.015874445,9.92159783953308,0.02093769488131736,stand
09/07/2020, 21:29:05,9.786645,0.72263247,1.4620147,-0.0012211112,0.013432221999999999,-0.014653333999999999,9.92159783953308,0.01991572043466507,stand
09/07/2020, 21:29:05,9.717253,0.7178468000000001,1.4500505,-0.0012211112,0.013432221999999999,-0.014653333999999999,9.851038070329238,0.01991572043466507,stand
09/07/2020, 21:29:05,9.717253,0.7178468000000001,1.4500505,-0.006105555699999999,0.017095556,-0.02075889,9.851038070329238,0.02757657266178169,stand
09/07/2020, 21:29:05,9.77468,0.701097,1.5050854999999999,-0.006105555699999999,0.017095556,-0.02075889,9.914695712907859,0.02757657266178169,stand
09/07/2020, 21:29:05,9.77468,0.701097,1.5050854999999999,-0.009768889000000001,0.02075889,-0.025643334,9.914695712907859,0.03440847662928298,stand
09/07/2020, 21:29:05,9.688539,0.6891329,1.3998013,-0.009768889000000001,0.02075889,-0.025643334,9.813364713782136,0.03440847662928298,stand
09/07/2020, 21:29:05,9.688539,0.6891329,1.3998013,-0.009768889000000001,0.01099,-0.018316668,9.813364713782136,0.023488542194428412,stand
09/07/2020, 21:29:06,9.827323,0.715454,1.4931214,-0.014653333999999999,0.014653333999999999,-0.026864445,9.965819706933306,0.033928436659081386,stand
09/07/2020, 21:29:06,9.827323,0.715454,1.4931214,-0.014653333999999999,0.017095556,-0.023201112000000003,9.965819706933306,0.03233063322337082,stand
09/07/2020, 21:29:06,9.796216000000001,0.6963114,1.4739788,-0.014653333999999999,0.017095556,-0.023201112000000003,9.93092700100658,0.03233063322337082,stand
09/07/2020, 21:29:06,9.796216000000001,0.6963114,1.4739788,0.0,0.012211111,-0.02075889,9.93092700100658,0.02408407646273984,stand
09/07/2020, 21:29:06,9.8321085,0.7106683000000001,1.5170496,0.0,0.012211111,-0.02075889,9.973808014893077,0.02408407646273984,stand
09/07/2020, 21:29:06,9.8321085,0.7106683000000001,1.5170496,0.0036633335999999997,0.012211111,-0.02075889,9.973808014893077,0.02436109094677774,stand
09/07/2020, 21:29:06,9.836894000000001,0.7178468000000001,1.5050854999999999,0.0036633335999999997,0.012211111,-0.02075889,9.97722759954691,0.02436109094677774,stand
09/07/2020, 21:29:06,9.836894000000001,0.7178468000000001,1.5050854999999999,-0.0048844446,0.015874445,-0.02075889,9.97722759954691,0.026585471888137608,stand
09/07/2020, 21:29:06,9.793823,0.72263247,1.4524434,-0.0048844446,0.015874445,-0.02075889,9.927273699278516,0.026585471888137608,stand
09/07/2020, 21:29:06,9.793823,0.72263247,1.4524434,-0.014653333999999999,0.017095556,-0.026864445,9.927273699278516,0.035052484315898566,stand
09/07/2020, 21:29:06,9.729217,0.7082755000000001,1.4189439,-0.014653333999999999,0.017095556,-0.026864445,9.8576219797269,0.035052484315898566,stand
09/07/2020, 21:29:06,9.729217,0.7082755000000001,1.4189439,-0.012211111,0.015874445,-0.023201112000000003,9.8576219797269,0.03064964670719722,stand
09/07/2020, 21:29:06,9.762716000000001,0.70348984,1.4476577,-0.012211111,0.015874445,-0.023201112000000003,9.89450555652721,0.03064964670719722,stand
09/07/2020, 21:29:06,9.762716000000001,0.70348984,1.4476577,-0.0036633335999999997,0.015874445,-0.015874445,9.89450555652721,0.02274678106912278,stand
09/07/2020, 21:29:06,9.745967,0.6867401,1.4141582000000001,-0.0036633335999999997,0.015874445,-0.015874445,9.871946438643358,0.02274678106912278,stand
09/07/2020, 21:29:06,9.745967,0.6867401,1.4141582000000001,0.0036633335999999997,0.017095556,-0.017095556,9.871946438643358,0.0244527322800251,stand
09/07/2020, 21:29:06,9.812965,0.72502524,1.4739788,0.0036633335999999997,0.017095556,-0.017095556,9.949500730079516,0.0244527322800251,stand
09/07/2020, 21:29:06,9.812965,0.72502524,1.4739788,-0.007326666999999999,0.018316668,-0.025643334,9.949500730079516,0.032353684944881465,stand
09/07/2020, 21:29:06,9.930214,0.7082755000000001,1.5194423000000001,-0.007326666999999999,0.018316668,-0.025643334,10.070725286853603,0.032353684944881465,stand
09/07/2020, 21:29:06,9.930214,0.7082755000000001,1.5194423000000001,-0.013432221999999999,0.018316668,-0.024422223,10.070725286853603,0.03335220940755377,stand
09/07/2020, 21:29:07,9.786645,0.6843473000000001,1.4237294,0.0024422223,0.012211111,-0.017095556,9.913312047181106,0.02115026577404,stand
09/07/2020, 21:29:07,9.647861,0.6652047,1.3351951000000002,0.0024422223,0.012211111,-0.017095556,9.762502543279648,0.02115026577404,stand
09/07/2020, 21:29:07,9.647861,0.6652047,1.3351951000000002,-0.01099,0.017095556,-0.02198,9.762502543279648,0.029935907998748755,stand
09/07/2020, 21:29:07,9.705289,0.6987042,1.4356936000000002,-0.01099,0.017095556,-0.02198,9.835752949890443,0.029935907998748755,stand
09/07/2020, 21:29:07,9.705289,0.6987042,1.4356936000000002,-0.014653333999999999,0.019537778999999998,-0.024422223,9.835752949890443,0.034538239160917895,stand
09/07/2020, 21:29:07,9.793823,0.6939185999999999,1.4955142,-0.014653333999999999,0.019537778999999998,-0.024422223,9.931619167538203,0.034538239160917895,stand
09/07/2020, 21:29:07,9.793823,0.6939185999999999,1.4955142,-0.0036633335999999997,0.015874445,-0.023201112000000003,9.931619167538203,0.028349772756355224,stand
09/07/2020, 21:29:07,9.736395,0.71306115,1.4093726,-0.0036633335999999997,0.015874445,-0.023201112000000003,9.86367946291626,0.028349772756355224,stand
09/07/2020, 21:29:07,9.736395,0.71306115,1.4093726,0.0036633335999999997,0.015874445,-0.02198,9.86367946291626,0.02735943091579534,stand
09/07/2020, 21:29:07,9.722038000000001,0.6987042,1.4069797,0.0036633335999999997,0.015874445,-0.02198,9.84813725840198,0.02735943091579534,stand
09/07/2020, 21:29:07,9.722038000000001,0.6987042,1.4069797,-0.0012211112,0.013432221999999999,-0.023201112000000003,9.84813725840198,0.02683667818253856,stand
09/07/2020, 21:29:07,9.745967,0.701097,1.3878371999999999,-0.0012211112,0.013432221999999999,-0.023201112000000003,9.869219830910664,0.02683667818253856,stand
09/07/2020, 21:29:07,9.745967,0.701097,1.3878371999999999,-0.012211111,0.014653333999999999,-0.02198,9.869219830910664,0.029102437679070375,stand
09/07/2020, 21:29:07,9.779466000000001,0.71306115,1.457229,-0.012211111,0.014653333999999999,-0.02198,9.913118657422068,0.029102437679070375,stand
09/07/2020, 21:29:07,9.779466000000001,0.71306115,1.457229,-0.01099,0.018316668,-0.02198,9.913118657422068,0.030649646744302,stand
09/07/2020, 21:29:07,9.745967,0.6987042,1.4452649,-0.01099,0.018316668,-0.02198,9.87728957283907,0.030649646744302,stand
09/07/2020, 21:29:07,9.745967,0.6987042,1.4452649,0.0,0.012211111,-0.018316668,9.87728957283907,0.02201389448249233,stand
09/07/2020, 21:29:07,9.781858999999999,0.72263247,1.4644073999999998,0.0,0.012211111,-0.018316668,9.917230466493072,0.02201389448249233,stand
09/07/2020, 21:29:07,9.781858999999999,0.72263247,1.4644073999999998,-0.0012211112,0.013432221999999999,-0.02075889,9.917230466493072,0.02475575104165692,stand
09/07/2020, 21:29:07,9.805786999999999,0.70348984,1.4237294,-0.0012211112,0.013432221999999999,-0.02075889,9.933547392602543,0.02475575104165692,stand
09/07/2020, 21:29:08,9.827323,0.7298109,1.4691931,0.0048844446,0.01099,-0.009768889000000001,9.963304113913075,0.01549416356551506,stand
09/07/2020, 21:29:08,9.827323,0.7298109,1.4691931,-0.017095556,0.018316668,-0.024422223,9.963304113913075,0.034988617073526414,stand
09/07/2020, 21:29:08,9.817751,0.7298109,1.4356936000000002,-0.017095556,0.018316668,-0.024422223,9.948973487474973,0.034988617073526414,stand
09/07/2020, 21:29:08,9.817751,0.7298109,1.4356936000000002,-0.019537778999999998,0.026864445,-0.03052778,9.948973487474973,0.0451150587874876,stand
09/07/2020, 21:29:08,9.801002,0.73459655,1.4524434,-0.019537778999999998,0.026864445,-0.03052778,9.93523302034847,0.0451150587874876,stand
09/07/2020, 21:29:08,9.801002,0.73459655,1.4524434,0.0012211112,0.019537778999999998,-0.014653333999999999,9.93523302034847,0.024452732216076568,stand
09/07/2020, 21:29:08,9.68136,0.6628119,1.3591232,0.0012211112,0.019537778999999998,-0.014653333999999999,9.798738272094695,0.024452732216076568,stand
09/07/2020, 21:29:08,9.68136,0.6628119,1.3591232,0.009768889000000001,0.013432221999999999,-0.012211111,9.798738272094695,0.020614728665873543,stand
09/07/2020, 21:29:08,9.757931,0.7322036999999999,1.4404793,0.009768889000000001,0.013432221999999999,-0.012211111,9.890819757424866,0.020614728665873543,stand
09/07/2020, 21:29:08,9.757931,0.7322036999999999,1.4404793,-0.008547778,0.013432221999999999,-0.02075889,9.890819757424866,0.02616143363871268,stand
09/07/2020, 21:29:08,9.846465,0.7513463,1.4859428,-0.008547778,0.013432221999999999,-0.02075889,9.986261690488002,0.02616143363871268,stand
09/07/2020, 21:29:08,9.846465,0.7513463,1.4859428,-0.023201112000000003,0.019537778999999998,-0.03174889,9.986261690488002,0.04390909299576582,stand
09/07/2020, 21:29:08,9.731608999999999,0.7178468000000001,1.4261223,-0.023201112000000003,0.019537778999999998,-0.03174889,9.861711277164783,0.04390909299576582,stand
09/07/2020, 21:29:08,9.731608999999999,0.7178468000000001,1.4261223,-0.014653333999999999,0.018316668,-0.024422223,9.861711277164783,0.033862449440801634,stand
09/07/2020, 21:29:08,9.734002,0.6843473000000001,1.4452649,-0.014653333999999999,0.018316668,-0.024422223,9.864477637711099,0.033862449440801634,stand
09/07/2020, 21:29:08,9.734002,0.6843473000000001,1.4452649,0.008547778,0.014653333999999999,-0.012211111,9.864477637711099,0.02090205642326612,stand
09/07/2020, 21:29:08,9.726824,0.6891329,1.3974084,0.008547778,0.014653333999999999,-0.012211111,9.850825128047068,0.02090205642326612,stand
09/07/2020, 21:29:08,9.726824,0.6891329,1.3974084,0.009768889000000001,0.013432221999999999,-0.012211111,9.850825128047068,0.020614728665873543,stand
09/07/2020, 21:29:08,9.753145,0.7298109,1.4093726,0.009768889000000001,0.013432221999999999,-0.012211111,9.881436971285098,0.020614728665873543,stand
09/07/2020, 21:29:08,9.753145,0.7298109,1.4093726,-0.014653333999999999,-0.0048844446,-0.024422223,9.881436971285098,0.028896764045587137,stand
09/07/2020, 21:29:09,9.762716000000001,0.7082755000000001,1.3902299999999999,-0.0012211112,0.008547778,-0.015874445,9.88660826021574,0.018070795314709287,stand
09/07/2020, 21:29:09,9.762716000000001,0.7082755000000001,1.3902299999999999,0.0012211112,0.009768889000000001,-0.012211111,9.88660826021574,0.0156854566823754,stand
09/07/2020, 21:29:09,9.796216000000001,0.76331043,1.4668003,0.0012211112,0.009768889000000001,-0.012211111,9.93478707197705,0.0156854566823754,stand
09/07/2020, 21:29:09,9.796216000000001,0.76331043,1.4668003,-0.013432221999999999,0.017095556,-0.018316668,9.93478707197705,0.02842855887738884,stand
09/07/2020, 21:29:09,9.844072,0.715454,1.4883357,-0.013432221999999999,0.017095556,-0.018316668,9.981622008218944,0.02842855887738884,stand
09/07/2020, 21:29:09,9.844072,0.715454,1.4883357,-0.017095556,0.02075889,-0.029306669,9.981622008218944,0.03977524839624754,stand
09/07/2020, 21:29:09,9.798608999999999,0.6963114,1.4835501,-0.017095556,0.02075889,-0.029306669,9.93471209560538,0.03977524839624754,stand
09/07/2020, 21:29:09,9.798608999999999,0.6963114,1.4835501,0.0,0.015874445,-0.017095556,9.93471209560538,0.023329296376627284,stand
09/07/2020, 21:29:09,9.779466000000001,0.69152576,1.5026926,0.0,0.015874445,-0.017095556,9.918378988479502,0.023329296376627284,stand
09/07/2020, 21:29:09,9.779466000000001,0.69152576,1.5026926,0.007326666999999999,0.013432221999999999,-0.015874445,9.918378988479502,0.02204773614891738,stand
09/07/2020, 21:29:09,9.801002,0.70348984,1.4907285,0.007326666999999999,0.013432221999999999,-0.015874445,9.938651858639345,0.02204773614891738,stand
09/07/2020, 21:29:09,9.801002,0.70348984,1.4907285,-0.0024422223,0.015874445,-0.019537778999999998,9.938651858639345,0.025292039446089674,stand
09/07/2020, 21:29:09,9.769895,0.72023964,1.4380864,-0.0024422223,0.015874445,-0.019537778999999998,9.901397785058467,0.025292039446089674,stand
09/07/2020, 21:29:09,9.769895,0.72023964,1.4380864,-0.02198,0.019537778999999998,-0.03297,9.901397785058467,0.04417992897636529,stand
