DATE,TIME,ax,ay,az,gx,gy,gz,ma,mg,label
10/07/2020, 15:07:19,-4.429115,-1.9788643,7.173682,0.3174889,0.26986557,0.17584,8.65994679733994,0.45226799780884186,walk
10/07/2020, 15:07:19,-4.429115,-1.9788643,7.173682,0.3858711,0.27841336,0.21369445,8.65994679733994,0.5216088871237381,walk
10/07/2020, 15:07:19,-4.3525443,-1.9070797,7.3698936,0.3858711,0.27841336,0.21369445,8.769089227004082,0.5216088871237381,walk
10/07/2020, 15:07:19,-4.3525443,-1.9070797,7.3698936,0.3174889,0.25643334,0.24666445,8.769089227004082,0.47686540519705783,walk
10/07/2020, 15:07:19,-4.278367,-1.294517,7.5756764,0.3174889,0.25643334,0.24666445,8.79608279064328,0.47686540519705783,walk
10/07/2020, 15:07:19,-4.278367,-1.294517,7.5756764,0.045181114,0.15508112,0.16607112,8.79608279064328,0.2316702477777857,walk
10/07/2020, 15:07:19,-4.4004006,-0.7680961,7.776674,0.045181114,0.15508112,0.16607112,8.968285938660493,0.2316702477777857,walk
10/07/2020, 15:07:19,-4.4004006,-0.7680961,7.776674,-0.29184556,0.014653334,0.06105556,8.968285938660493,0.2985235878614753,walk
10/07/2020, 15:07:19,-4.5942197,-0.36610186,7.9346,-0.29184556,0.014653334,0.06105556,9.175988245504067,0.2985235878614753,walk
10/07/2020, 15:07:19,-4.5942197,-0.36610186,7.9346,-0.6032289,-0.11966889,0.023201112,9.175988245504067,0.6154218663789814,walk
10/07/2020, 15:07:19,-4.6061835,-0.21535404,7.9513497,-0.6032289,-0.11966889,0.023201112,9.191695527865843,0.6154218663789814,walk
10/07/2020, 15:07:19,-4.6061835,-0.21535404,7.9513497,-0.8669889,-0.20636779,0.08425667,9.191695527865843,0.8951852321115397,walk
10/07/2020, 15:07:19,-4.2281175,-0.4331009,8.006385,-0.8669889,-0.20636779,0.08425667,9.064587804335854,0.8951852321115397,walk
10/07/2020, 15:07:20,-4.2281175,-0.4331009,8.006385,-0.96589893,-0.19415668,0.2515489,9.064587804335854,1.0168256498524664,walk
10/07/2020, 15:07:20,-4.141976,-0.9762716,7.834101,-0.96589893,-0.19415668,0.2515489,8.915279698106504,1.0168256498524664,walk
10/07/2020, 15:07:20,-4.141976,-0.9762716,7.834101,-0.8218078,-0.21247335,0.2613178,8.915279698106504,0.8881441176010977,walk
10/07/2020, 15:07:20,-4.2975097,-1.5122639,7.759924,-0.8218078,-0.21247335,0.2613178,8.998441583257593,0.8881441176010977,walk
10/07/2020, 15:07:20,-4.2975097,-1.5122639,7.759924,-0.5702589,-0.15996556,0.20270446,8.998441583257593,0.6259978504981136,walk
10/07/2020, 15:07:20,-4.338187,-1.7778672,7.783852,-0.5702589,-0.15996556,0.20270446,9.086750443920206,0.6259978504981136,walk
10/07/2020, 15:07:20,-4.338187,-1.7778672,7.783852,-0.3492378,-0.11234222,0.19537778,9.086750443920206,0.41564443167363235,walk
10/07/2020, 15:07:20,-4.1850467,-1.7156538,7.7407813,-0.3492378,-0.11234222,0.19537778,8.965365513065201,0.41564443167363235,walk
10/07/2020, 15:07:20,-4.1850467,-1.7156538,7.7407813,-0.22224224,-0.10135223,0.22224224,8.965365513065201,0.3302355182514052,walk
10/07/2020, 15:07:20,-4.0271206,-1.5146568,7.776674,-0.22224224,-0.10135223,0.22224224,8.887549758559405,0.3302355182514052,walk
10/07/2020, 15:07:20,-4.0271206,-1.5146568,7.776674,-0.15752333,-0.098910004,0.25399113,8.887549758559405,0.31481467919444056,walk
10/07/2020, 15:07:20,-4.046263,-1.3280165,7.8987074,-0.15752333,-0.098910004,0.25399113,8.97359751354544,0.31481467919444056,walk
10/07/2020, 15:07:20,-4.046263,-1.3280165,7.8987074,-0.123332225,-0.10501556,0.27108666,8.97359751354544,0.31579595402778116,walk
10/07/2020, 15:07:20,-4.0869412,-1.0360922,8.020741,-0.123332225,-0.10501556,0.27108666,9.061394445523824,0.31579595402778116,walk
10/07/2020, 15:07:20,-4.0869412,-1.0360922,8.020741,-0.13676445,-0.11600556,0.28940335,9.061394445523824,0.34046454186979347,walk
10/07/2020, 15:07:20,-4.165904,-0.8757731,8.16431,-0.13676445,-0.11600556,0.28940335,9.207480665088143,0.34046454186979347,walk
10/07/2020, 15:07:20,-4.165904,-0.8757731,8.16431,-0.23445335,-0.17584,0.4481478,9.207480665088143,0.5354666513874419,walk
10/07/2020, 15:07:20,-4.046263,-0.36610186,8.372486,-0.23445335,-0.17584,0.4481478,9.306170014506332,0.5354666513874419,walk
10/07/2020, 15:07:20,-4.046263,-0.36610186,8.372486,-0.27963445,-0.21247335,0.3260367,9.306170014506332,0.4792079623372454,walk
10/07/2020, 15:07:20,-3.6729827,0.11246266,8.606983,-0.27963445,-0.21247335,0.3260367,9.358611502518343,0.4792079623372454,walk
10/07/2020, 15:07:21,-6.836294,-1.7012969,4.4434714,-1.2015734,-0.16973445,-0.08425667,8.32909164492812,1.2164240780264428,walk
10/07/2020, 15:07:21,-6.8721867,-1.6127625,4.5152564,-1.2015734,-0.16973445,-0.08425667,8.379468516923282,1.2164240780264428,walk
10/07/2020, 15:07:21,-6.8721867,-1.6127625,4.5152564,-1.16494,-0.23689556,-0.12699556,8.379468516923282,1.1955469805481254,walk
10/07/2020, 15:07:21,-6.9009004,-1.5888343,4.57747,-1.16494,-0.23689556,-0.12699556,8.432084571795606,1.1955469805481254,walk
10/07/2020, 15:07:21,-6.9009004,-1.5888343,4.57747,-1.1234223,-0.30039334,-0.17950334,8.432084571795606,1.1766627358552157,walk
10/07/2020, 15:07:21,-6.908079,-1.6127625,4.6492543,-1.1234223,-0.30039334,-0.17950334,8.481634629063388,1.1766627358552157,walk
10/07/2020, 15:07:21,-6.908079,-1.6127625,4.6492543,-1.0587034,-0.34191114,-0.22224224,8.481634629063388,1.1345253519029683,walk
10/07/2020, 15:07:21,-6.9056864,-1.6247265,4.7162533,-1.0587034,-0.34191114,-0.22224224,8.518878193458349,1.1345253519029683,walk
10/07/2020, 15:07:21,-6.9056864,-1.6247265,4.7162533,-0.9732256,-0.36877558,-0.26742333,8.518878193458349,1.0745597796520072,walk
10/07/2020, 15:07:21,-6.8602223,-1.5840486,4.7545385,-0.9732256,-0.36877558,-0.26742333,8.49573406472786,1.0745597796520072,walk
10/07/2020, 15:07:21,-6.8602223,-1.5840486,4.7545385,-0.89263225,-0.38831335,-0.32359445,8.49573406472786,1.0258133141474646,walk
10/07/2020, 15:07:21,-6.795616,-1.5361922,4.749753,-0.89263225,-0.38831335,-0.32359445,8.432107613885593,1.0258133141474646,walk
10/07/2020, 15:07:21,-6.795616,-1.5361922,4.749753,-0.8083756,-0.41884112,-0.39686114,8.432107613885593,0.9931755906500149,walk
10/07/2020, 15:07:21,-6.735796,-1.4524434,4.8789654,-0.8083756,-0.41884112,-0.39686114,8.443035134878151,0.9931755906500149,walk
10/07/2020, 15:07:21,-6.735796,-1.4524434,4.8789654,-0.72900337,-0.4359367,-0.47379112,8.443035134878151,0.9726071858855451,walk
10/07/2020, 15:07:21,-6.8171515,-1.3543376,5.0009995,-0.72900337,-0.4359367,-0.47379112,8.562580275545894,0.9726071858855451,walk
10/07/2020, 15:07:21,-6.8171515,-1.3543376,5.0009995,-0.6679478,-0.4249467,-0.54339445,8.562580275545894,0.9602143096099705,walk
10/07/2020, 15:07:21,-7.0301127,-1.2801601,5.032106,-0.6679478,-0.4249467,-0.54339445,8.739758864254648,0.9602143096099705,walk
10/07/2020, 15:07:21,-7.0301127,-1.2801601,5.032106,-0.61666113,-0.43227336,-0.61299783,8.739758864254648,0.9710291172593485,walk
10/07/2020, 15:07:21,-7.338787,-1.2059826,4.9316072,-0.61666113,-0.43227336,-0.61299783,8.923729028312387,0.9710291172593485,walk
10/07/2020, 15:07:22,-13.155739,-3.4360933,1.8257236,-1.35177,0.21735778,1.6631534,13.719091383626836,2.1542065643067807,walk
10/07/2020, 15:07:22,-13.155739,-3.4360933,1.8257236,-1.5483689,0.23079,1.8060234,13.719091383626836,2.3900691927764632,walk
10/07/2020, 15:07:22,-13.330415,-3.7663028,1.7084754,-1.5483689,0.23079,1.8060234,13.957216161641709,2.3900691927764632,walk
10/07/2020, 15:07:22,-13.330415,-3.7663028,1.7084754,-1.6790278,0.25521225,1.944009,13.957216161641709,2.5813636733334517,walk
10/07/2020, 15:07:22,-13.280166,-4.0869412,1.6821543,-1.6790278,0.25521225,1.944009,13.99626850567111,2.5813636733334517,walk
10/07/2020, 15:07:22,-13.280166,-4.0869412,1.6821543,-1.7303145,0.3052778,2.067341,13.99626850567111,2.713131393146633,walk
10/07/2020, 15:07:22,-12.971492,-4.386044,1.713261,-1.7303145,0.3052778,2.067341,13.79971903145877,2.713131393146633,walk
10/07/2020, 15:07:22,-12.971492,-4.386044,1.713261,-1.7083346,0.37732336,2.1699145,13.79971903145877,2.7873479818535962,walk
10/07/2020, 15:07:22,-12.497713,-4.6037908,1.7874385,-1.7083346,0.37732336,2.1699145,13.438104711995836,2.7873479818535962,walk
10/07/2020, 15:07:22,-12.497713,-4.6037908,1.7874385,-1.6436156,0.44570556,2.2505078,13.438104711995836,2.822217426174938,walk
10/07/2020, 15:07:22,-11.846865,-4.699504,1.9477576,-1.6436156,0.44570556,2.2505078,12.892916652018828,2.822217426174938,walk
10/07/2020, 15:07:22,-11.846865,-4.699504,1.9477576,-1.5422634,0.49455002,2.3030157,12.892916652018828,2.8154995004896954,walk
10/07/2020, 15:07:22,-11.064412,-4.7282176,2.225325,-1.5422634,0.49455002,2.3030157,12.236393627987804,2.8154995004896954,walk
10/07/2020, 15:07:22,-11.064412,-4.7282176,2.225325,-1.4372479,0.54339445,2.3213322,12.236393627987804,2.7837999621364182,walk
10/07/2020, 15:07:22,-10.24846,-4.6971107,2.507678,-1.4372479,0.54339445,2.3213322,11.549122312856754,2.7837999621364182,walk
10/07/2020, 15:07:22,-10.24846,-4.6971107,2.507678,-1.2931567,0.59956557,2.316448,11.549122312856754,2.7198647838286973,walk
10/07/2020, 15:07:22,-9.499506,-4.627719,2.7493532,-1.2931567,0.59956557,2.316448,10.9185777228624,2.7198647838286973,walk
10/07/2020, 15:07:22,-9.499506,-4.627719,2.7493532,-1.1075479,0.67161113,2.2859201,10.9185777228624,2.6273855285772982,walk
10/07/2020, 15:07:22,-8.882157,-4.551149,2.9072795,-1.1075479,0.67161113,2.2859201,10.395092545652206,2.6273855285772982,walk
10/07/2020, 15:07:22,-8.882157,-4.551149,2.9072795,-0.88286334,0.7570889,2.2566135,10.395092545652206,2.5386877989512784,walk
10/07/2020, 15:07:23,-9.97807,-3.050849,1.5625132,-0.74121445,-0.85722005,-2.70354,10.550403455716722,2.931442322157992,walk
10/07/2020, 15:07:23,-9.97807,-3.050849,1.5625132,-0.8779789,-0.8218078,-2.6424847,10.550403455716722,2.9032637243116612,walk
10/07/2020, 15:07:23,-9.827323,-3.1537402,1.550549,-0.8779789,-0.8218078,-2.6424847,10.436788581666214,2.9032637243116612,walk
10/07/2020, 15:07:23,-9.827323,-3.1537402,1.550549,-0.98055226,-0.7778478,-2.5802078,10.436788581666214,2.8677521487739437,walk
10/07/2020, 15:07:23,-9.68136,-3.249453,1.5146568,-0.98055226,-0.7778478,-2.5802078,10.32384940785463,2.8677521487739437,walk
10/07/2020, 15:07:23,-9.68136,-3.249453,1.5146568,-1.0525978,-0.71923447,-2.5179312,10.32384940785463,2.8222753069106625,walk
10/07/2020, 15:07:23,-9.49472,-3.3044882,1.5170496,-1.0525978,-0.71923447,-2.5179312,10.16714306380621,2.8222753069106625,walk
10/07/2020, 15:07:23,-9.49472,-3.3044882,1.5170496,-1.1087689,-0.6655056,-2.449549,10.16714306380621,2.7699379697211333,walk
10/07/2020, 15:07:23,-9.253045,-3.306881,1.524228,-1.1087689,-0.6655056,-2.449549,9.943720422462498,2.7699379697211333,walk
10/07/2020, 15:07:23,-9.253045,-3.306881,1.524228,-1.1454023,-0.61544,-2.3970413,9.943720422462498,2.7269983420914765,walk
10/07/2020, 15:07:23,-8.925228,-3.2973096,1.6031911,-1.1454023,-0.61544,-2.3970413,9.648946555962203,2.7269983420914765,walk
10/07/2020, 15:07:23,-8.925228,-3.2973096,1.6031911,-1.1563922,-0.5519422,-2.328659,9.648946555962203,2.6579195228371475,walk
10/07/2020, 15:07:23,-8.554341,-3.2805598,1.7204394,-1.1563922,-0.5519422,-2.328659,9.321949348667049,2.6579195228371475,walk
10/07/2020, 15:07:23,-8.554341,-3.2805598,1.7204394,-1.1368545,-0.47623336,-2.2529502,9.321949348667049,2.5680772968355643,walk
10/07/2020, 15:07:23,-8.238488,-3.2733815,1.7970098,-1.1368545,-0.47623336,-2.2529502,9.045272707332407,2.5680772968355643,walk
10/07/2020, 15:07:23,-8.238488,-3.2733815,1.7970098,-1.0843467,-0.40052447,-2.1577034,9.045272707332407,2.447838122000112,walk
10/07/2020, 15:07:23,-7.944171,-3.3020952,1.8305093,-1.0843467,-0.40052447,-2.1577034,8.795706280405833,2.447838122000112,walk
10/07/2020, 15:07:23,-7.944171,-3.3020952,1.8305093,-1.0147433,-0.31382558,-2.0502455,8.795706280405833,2.3090468209722324,walk
10/07/2020, 15:07:23,-7.652247,-3.318845,1.8520447,-1.0147433,-0.31382558,-2.0502455,8.544102372353384,2.3090468209722324,walk
10/07/2020, 15:07:23,-7.652247,-3.318845,1.8520447,-0.9426978,-0.23445335,-1.9354612,8.544102372353384,2.1655616995471627,walk
10/07/2020, 15:07:24,-9.540184,-4.15394,2.885744,0.83401895,-0.7106867,-2.5777657,10.798048403637221,2.800988965473013,walk
10/07/2020, 15:07:24,-9.540184,-4.15394,2.885744,0.9072856,-0.71801335,-2.6669068,10.798048403637221,2.9070779714688966,walk
10/07/2020, 15:07:24,-9.755538,-4.240082,2.8713872,0.9072856,-0.71801335,-2.6669068,11.017879999038943,2.9070779714688966,walk
10/07/2020, 15:07:24,-9.755538,-4.240082,2.8713872,0.9512456,-0.72534,-2.7450578,11.017879999038943,2.9943828701820867,walk
10/07/2020, 15:07:24,-10.073783,-4.319045,2.8115666,0.9512456,-0.72534,-2.7450578,11.315483167881048,2.9943828701820867,walk
10/07/2020, 15:07:24,-10.073783,-4.319045,2.8115666,0.97688895,-0.73999333,-2.801229,11.315483167881048,3.057578465835889,walk
10/07/2020, 15:07:24,-10.444671,-4.412365,2.6991038,0.97688895,-0.73999333,-2.801229,11.655267975890771,3.057578465835889,walk
10/07/2020, 15:07:24,-10.444671,-4.412365,2.6991038,0.99398446,-0.7656367,-2.8512945,11.655267975890771,3.1151380488834493,walk
10/07/2020, 15:07:24,-10.84188,-4.453043,2.6344976,0.99398446,-0.7656367,-2.8512945,12.013181435907084,3.1151380488834493,walk
10/07/2020, 15:07:24,-10.84188,-4.453043,2.6344976,0.99886894,-0.78761667,-2.8952546,12.013181435907084,3.162369119981117,walk
10/07/2020, 15:07:24,-11.243874,-4.4889355,2.5818555,0.99886894,-0.78761667,-2.8952546,12.379063499005092,3.162369119981117,walk
10/07/2020, 15:07:24,-11.243874,-4.4889355,2.5818555,1.0135223,-0.8181445,-2.9172347,12.379063499005092,3.19481546673732,walk
10/07/2020, 15:07:24,-11.574083,-4.4985065,2.5674987,1.0135223,-0.8181445,-2.9172347,12.680221430470983,3.19481546673732,walk
10/07/2020, 15:07:24,-11.574083,-4.4985065,2.5674987,1.020849,-0.8584412,-2.9270034,12.680221430470983,3.2165824591367005,walk
10/07/2020, 15:07:24,-11.717652,-4.429115,2.548356,1.020849,-0.8584412,-2.9270034,12.783370157276234,3.2165824591367005,walk
10/07/2020, 15:07:24,-11.717652,-4.429115,2.548356,0.99398446,-0.8987378,-2.9392145,12.783370157276234,3.230281165661333,walk
10/07/2020, 15:07:24,-11.686545,-4.278367,2.5148566,0.99398446,-0.8987378,-2.9392145,12.696624389388399,3.230281165661333,walk
10/07/2020, 15:07:24,-11.686545,-4.278367,2.5148566,0.9292656,-0.9365923,-2.955089,12.696624389388399,3.236246472865953,walk
10/07/2020, 15:07:24,-11.464013,-4.1084766,2.4382863,0.9292656,-0.9365923,-2.955089,12.419678608704624,3.236246472865953,walk
10/07/2020, 15:07:24,-11.464013,-4.1084766,2.4382863,0.83524,-0.97078335,-2.9721847,12.419678608704624,3.2363448252765985,walk
10/07/2020, 15:07:25,-9.365508,-3.1322048,3.5413775,-0.7265611,0.02198,2.8366413,10.491177399484732,2.928294405566506,walk
10/07/2020, 15:07:25,-9.372686,-3.1202407,3.5844483,-0.7265611,0.02198,2.8366413,10.508635588410824,2.928294405566506,walk
10/07/2020, 15:07:25,-9.372686,-3.1202407,3.5844483,-0.6581789,0.051286668,2.7181935,10.508635588410824,2.797213951851212,walk
10/07/2020, 15:07:25,-9.3200445,-3.199204,3.6993039,-0.6581789,0.051286668,2.7181935,10.525349634405531,2.797213951851212,walk
10/07/2020, 15:07:25,-9.3200445,-3.199204,3.6993039,-0.5470578,0.09036223,2.5899768,10.525349634405531,2.6486633113996807,walk
10/07/2020, 15:07:25,-9.2075815,-3.2757742,3.8500516,-0.5470578,0.09036223,2.5899768,10.503958871090136,2.6486633113996807,walk
10/07/2020, 15:07:25,-9.2075815,-3.2757742,3.8500516,-0.40785113,0.15019667,2.4642024,10.503958871090136,2.5022380126936783,walk
10/07/2020, 15:07:25,-9.049655,-3.330809,4.0438704,-0.40785113,0.15019667,2.4642024,10.456741006880593,2.5022380126936783,walk
10/07/2020, 15:07:25,-9.049655,-3.330809,4.0438704,-0.27719223,0.21369445,2.317669,10.456741006880593,2.3439475363353117,walk
10/07/2020, 15:07:25,-8.903693,-3.3786657,4.2257247,-0.27719223,0.21369445,2.317669,10.418631561579097,2.3439475363353117,walk
10/07/2020, 15:07:25,-8.903693,-3.3786657,4.2257247,-0.19782001,0.26009667,2.1467135,10.418631561579097,2.17144234634993,walk
10/07/2020, 15:07:25,-8.822337,-3.4025939,4.3262234,-0.19782001,0.26009667,2.1467135,10.398436728207324,2.17144234634993,walk
10/07/2020, 15:07:25,-8.822337,-3.4025939,4.3262234,-0.17584,0.28574002,1.9574412,10.398436728207324,1.9859866965341042,walk
10/07/2020, 15:07:25,-8.851051,-3.4121652,4.3836513,-0.17584,0.28574002,1.9574412,10.449898521438087,1.9859866965341042,walk
10/07/2020, 15:07:25,-8.851051,-3.4121652,4.3836513,-0.21613668,0.29673,1.7754956,10.449898521438087,1.8130495198166732,walk
10/07/2020, 15:07:25,-8.906086,-3.5318062,4.3118663,-0.21613668,0.29673,1.7754956,10.506389168782135,1.8130495198166732,walk
10/07/2020, 15:07:25,-8.906086,-3.5318062,4.3118663,-0.28818223,0.26986557,1.6069822,10.506389168782135,1.6547713785878404,walk
10/07/2020, 15:07:25,-8.946764,-3.7040894,4.223332,-0.28818223,0.26986557,1.6069822,10.564156228342902,1.6547713785878404,walk
10/07/2020, 15:07:25,-8.946764,-3.7040894,4.223332,-0.36389112,0.23445335,1.4311423,10.564156228342902,1.495176743173485,walk
10/07/2020, 15:07:25,-8.879765,-3.9194436,4.1204405,-0.36389112,0.23445335,1.4311423,10.544680485982648,1.495176743173485,walk
10/07/2020, 15:07:26,-9.542577,-3.871587,2.3688943,-1.4140468,0.123332225,2.6437056,10.567006121456835,3.0006529994549096,walk
10/07/2020, 15:07:26,-9.542577,-3.871587,2.3688943,-1.5373789,0.106236674,2.5887556,10.567006121456835,3.01271899305271,walk
10/07/2020, 15:07:26,-9.233903,-4.1443686,2.5052853,-1.5373789,0.106236674,2.5887556,10.426754484847853,3.01271899305271,walk
10/07/2020, 15:07:26,-9.233903,-4.1443686,2.5052853,-1.5923289,0.102573335,2.51671,10.426754484847853,2.9799097426705576,walk
10/07/2020, 15:07:26,-9.078369,-4.4051867,2.751746,-1.5923289,0.102573335,2.51671,10.459185504456624,2.9799097426705576,walk
10/07/2020, 15:07:26,-9.078369,-4.4051867,2.751746,-1.5935501,0.10745778,2.43978,10.459185504456624,2.9160719271200684,walk
10/07/2020, 15:07:26,-9.052048,-4.5966125,3.022135,-1.5935501,0.10745778,2.43978,10.592531058213062,2.9160719271200684,walk
10/07/2020, 15:07:26,-9.052048,-4.5966125,3.022135,-1.5886656,0.098910004,2.3677344,10.592531058213062,2.8530348637206666,walk
10/07/2020, 15:07:26,-9.147761,-4.706682,3.1848469,-1.5886656,0.098910004,2.3677344,10.76929174276599,2.8530348637206666,walk
10/07/2020, 15:07:26,-9.147761,-4.706682,3.1848469,-1.5862234,0.068382226,2.306679,10.76929174276599,2.800276548112687,walk
10/07/2020, 15:07:26,-9.322437,-4.761717,3.237489,-1.5862234,0.068382226,2.306679,10.9573317544198,2.800276548112687,walk
10/07/2020, 15:07:26,-9.322437,-4.761717,3.237489,-1.5764545,0.013432222,2.27493,10.9573317544198,2.767796196476015,walk
10/07/2020, 15:07:26,-9.403793,-4.847859,3.2087753,-1.5764545,0.013432222,2.27493,11.0557362426433,2.767796196476015,walk
10/07/2020, 15:07:26,-9.403793,-4.847859,3.2087753,-1.5373789,-0.05006556,2.2480657,11.0557362426433,2.7239383071639955,walk
10/07/2020, 15:07:26,-9.329616,-5.0344987,3.2398818,-1.5373789,-0.05006556,2.2480657,11.08533887470469,2.7239383071639955,walk
10/07/2020, 15:07:26,-9.329616,-5.0344987,3.2398818,-1.4409112,-0.098910004,2.2370756,11.08533887470469,2.662802150607338,walk
10/07/2020, 15:07:26,-9.085547,-5.302495,3.1944182,-1.4409112,-0.098910004,2.2370756,10.993995327193955,2.662802150607338,walk
10/07/2020, 15:07:26,-9.085547,-5.302495,3.1944182,-1.2723979,-0.12211112,2.2273068,10.993995327193955,2.568034900808324,walk
10/07/2020, 15:07:26,-8.743374,-5.584848,3.1561332,-1.2723979,-0.12211112,2.2273068,10.844274509246661,2.568034900808324,walk
10/07/2020, 15:07:26,-8.743374,-5.584848,3.1561332,-1.0440501,-0.10745778,2.2175379,10.844274509246661,2.453377677681524,walk
10/07/2020, 15:07:27,-9.037691,-4.2711883,1.6007984,0.04396,0.86821,3.3128746,10.123510521334714,3.4250341513010834,walk
10/07/2020, 15:07:27,-9.944571,-4.536792,1.6893328,0.04396,0.86821,3.3128746,11.060325879290389,3.4250341513010834,walk
10/07/2020, 15:07:27,-9.944571,-4.536792,1.6893328,0.11234222,0.92316,3.6437957,11.060325879290389,3.760597359953672,walk
10/07/2020, 15:07:27,-10.8682,-4.773681,1.7156538,0.11234222,0.92316,3.6437957,11.993718253466946,3.760597359953672,walk
10/07/2020, 15:07:27,-10.8682,-4.773681,1.7156538,0.16729222,0.9817734,3.9625058,11.993718253466946,4.085745709590688,walk
10/07/2020, 15:07:27,-11.729616,-4.9579287,1.6677973,0.16729222,0.9817734,3.9625058,12.843149920454524,4.085745709590688,walk
10/07/2020, 15:07:27,-11.729616,-4.9579287,1.6677973,0.1856089,1.0269545,4.244582,12.843149920454524,4.370991205905045,walk
10/07/2020, 15:07:27,-12.500106,-5.046463,1.6103697,0.1856089,1.0269545,4.244582,13.576182302460639,4.370991205905045,walk
10/07/2020, 15:07:27,-12.500106,-5.046463,1.6103697,0.14409111,1.0782411,4.513227,13.576182302460639,4.642476059901144,walk
10/07/2020, 15:07:27,-13.093526,-5.1062837,1.5768701,0.14409111,1.0782411,4.513227,14.142173534043732,4.642476059901144,walk
10/07/2020, 15:07:27,-13.093526,-5.1062837,1.5768701,0.034191113,1.0867889,4.7440166,14.142173534043732,4.867029184197494,walk
10/07/2020, 15:07:27,-13.442878,-5.197211,1.5577276,0.034191113,1.0867889,4.7440166,14.496498815446143,4.867029184197494,walk
10/07/2020, 15:07:27,-13.442878,-5.197211,1.5577276,-0.09768889,1.0367234,4.889329,14.496498815446143,4.998987509710917,walk
10/07/2020, 15:07:27,-13.430914,-5.2259245,1.7874385,-0.09768889,1.0367234,4.889329,14.52221305772106,4.998987509710917,walk
10/07/2020, 15:07:27,-13.430914,-5.2259245,1.7874385,-0.20148334,0.99032116,4.980912,14.52221305772106,5.082402774668536,walk
10/07/2020, 15:07:27,-13.174882,-5.3312087,2.268396,-0.20148334,0.99032116,4.980912,14.392530014999442,5.082402774668536,walk
10/07/2020, 15:07:27,-13.174882,-5.3312087,2.268396,-0.24300112,0.9610145,5.030978,14.392530014999442,5.127703200034038,walk
10/07/2020, 15:07:27,-12.873385,-5.505885,2.8115666,-0.24300112,0.9610145,5.030978,14.28088688112532,5.127703200034038,walk
10/07/2020, 15:07:27,-12.873385,-5.505885,2.8115666,-0.19293556,0.94514006,5.0248723,14.28088688112532,5.116625404552546,walk
10/07/2020, 15:07:27,-12.686746,-5.74756,3.333202,-0.19293556,0.94514006,5.0248723,14.32124980809803,5.116625404552546,walk
10/07/2020, 15:07:28,-6.7525454,-3.9481573,1.6797615,0.25643334,0.21613668,3.2396078,8.000400848552465,3.2569206145924166,walk
10/07/2020, 15:07:28,-6.7525454,-3.9481573,1.6797615,0.2759711,0.27475002,3.5534334,8.000400848552465,3.5747079167326623,walk
10/07/2020, 15:07:28,-7.176075,-4.065406,1.7395821,0.2759711,0.27475002,3.5534334,8.429099749216027,3.5747079167326623,walk
10/07/2020, 15:07:28,-7.176075,-4.065406,1.7395821,0.2759711,0.35168,3.8513846,8.429099749216027,3.877241613462304,walk
10/07/2020, 15:07:28,-7.647461,-4.1922255,1.7970098,0.2759711,0.35168,3.8513846,8.904361705378,3.877241613462304,walk
10/07/2020, 15:07:28,-7.647461,-4.1922255,1.7970098,0.25765446,0.43960002,4.1566625,8.904361705378,4.1877770760670225,walk
10/07/2020, 15:07:28,-8.283952,-4.3501515,1.847259,0.25765446,0.43960002,4.1566625,9.537297370850172,4.1877770760670225,walk
10/07/2020, 15:07:28,-8.283952,-4.3501515,1.847259,0.21125223,0.53851,4.4753723,9.537297370850172,4.512602121072056,walk
10/07/2020, 15:07:28,-9.064013,-4.486542,1.969293,0.21125223,0.53851,4.4753723,10.303567302004334,4.512602121072056,walk
10/07/2020, 15:07:28,-9.064013,-4.486542,1.969293,0.15752333,0.63131446,4.7940826,10.303567302004334,4.838036783469839,walk
10/07/2020, 15:07:28,-10.097712,-4.706682,2.1343977,0.15752333,0.63131446,4.7940826,11.343380886091552,4.838036783469839,walk
10/07/2020, 15:07:28,-10.097712,-4.706682,2.1343977,0.12821667,0.6972545,5.087149,11.343380886091552,5.136310906472053,walk
10/07/2020, 15:07:28,-11.330015,-4.979464,2.268396,0.12821667,0.6972545,5.087149,12.582127255124714,5.136310906472053,walk
10/07/2020, 15:07:28,-11.330015,-4.979464,2.268396,0.15019667,0.74121445,5.3338137,12.582127255124714,5.387163088736976,walk
10/07/2020, 15:07:28,-12.7393875,-5.4125648,2.5459633,0.15019667,0.74121445,5.3338137,14.073726602013888,5.387163088736976,walk
10/07/2020, 15:07:28,-12.7393875,-5.4125648,2.5459633,0.22224224,0.78029,5.5340757,14.073726602013888,5.593231478342085,walk
10/07/2020, 15:07:28,-14.1009035,-5.9007006,2.9312077,0.22224224,0.78029,5.5340757,15.56424509452049,5.593231478342085,walk
10/07/2020, 15:07:28,-14.1009035,-5.9007006,2.9312077,0.34313223,0.8083756,5.689157,15.56424509452049,5.756537006391692,walk
10/07/2020, 15:07:28,-15.311672,-6.3122663,3.3044882,0.34313223,0.8083756,5.689157,16.888210518106053,5.756537006391692,walk
10/07/2020, 15:07:28,-15.311672,-6.3122663,3.3044882,0.4908867,0.80471224,5.7709713,16.888210518106053,5.847447413033202,walk
10/07/2020, 15:07:29,-9.853643,-2.928815,1.1294123,0.94880337,-0.73999333,-3.0381246,10.341557782712622,3.2677237964674566,walk
10/07/2020, 15:07:29,-9.58804,-2.7349963,0.9834501,0.94880337,-0.73999333,-3.0381246,10.018877021959232,3.2677237964674566,walk
10/07/2020, 15:07:29,-9.58804,-2.7349963,0.9834501,0.7216767,-0.7216767,-3.0491145,10.018877021959232,3.2153901108028875,walk
10/07/2020, 15:07:29,-9.399008,-2.5938199,0.8709874,0.7216767,-0.7216767,-3.0491145,9.789170960758371,3.2153901108028875,walk
10/07/2020, 15:07:29,-9.399008,-2.5938199,0.8709874,0.49577114,-0.69114894,-3.0405667,9.789170960758371,3.1572965696200908,walk
10/07/2020, 15:07:29,-9.241081,-2.507678,0.7704889,0.49577114,-0.69114894,-3.0405667,9.60623155705532,3.1572965696200908,walk
10/07/2020, 15:07:29,-9.241081,-2.507678,0.7704889,0.27841336,-0.65329444,-3.0149236,9.60623155705532,3.0974298660934725,walk
10/07/2020, 15:07:29,-9.119047,-2.5148566,0.65084773,0.27841336,-0.65329444,-3.0149236,9.481831445983126,3.0974298660934725,walk
10/07/2020, 15:07:29,-9.119047,-2.5148566,0.65084773,0.08425667,-0.60811335,-2.955089,9.481831445983126,3.018186968104695,walk
10/07/2020, 15:07:29,-8.992228,-2.5435705,0.5694918,0.08425667,-0.60811335,-2.955089,9.362383686095393,3.018186968104695,walk
10/07/2020, 15:07:29,-8.992228,-2.5435705,0.5694918,-0.09646778,-0.5568267,-2.8720534,9.362383686095393,2.9271236159394416,walk
10/07/2020, 15:07:29,-8.896515,-2.6512475,0.5192425,-0.09646778,-0.5568267,-2.8720534,9.297671931579186,2.9271236159394416,walk
10/07/2020, 15:07:29,-8.896515,-2.6512475,0.5192425,-0.24788557,-0.5006556,-2.7645957,9.297671931579186,2.820477427912703,walk
10/07/2020, 15:07:29,-8.733803,-2.7756743,0.52163535,-0.24788557,-0.5006556,-2.7645957,9.179094877502774,2.820477427912703,walk
10/07/2020, 15:07:29,-8.733803,-2.7756743,0.52163535,-0.37366003,-0.45303226,-2.6437056,9.179094877502774,2.7081431598733037,walk
10/07/2020, 15:07:29,-8.559127,-2.940779,0.5455636,-0.37366003,-0.45303226,-2.6437056,9.066668245546788,2.7081431598733037,walk
10/07/2020, 15:07:29,-8.559127,-2.940779,0.5455636,-0.46646446,-0.40663,-2.4983935,9.066668245546788,2.5738895305935463,walk
10/07/2020, 15:07:29,-8.382058,-3.103491,0.5766702,-0.46646446,-0.40663,-2.4983935,8.956735124191269,2.5738895305935463,walk
10/07/2020, 15:07:29,-8.382058,-3.103491,0.5766702,-0.53973114,-0.35778558,-2.3323224,8.956735124191269,2.4205470081252263,walk
10/07/2020, 15:07:29,-8.209774,-3.2303107,0.6795616,-0.53973114,-0.35778558,-2.3323224,8.84856488272395,2.4205470081252263,walk
10/07/2020, 15:07:30,-12.248859,-4.5918264,2.8689942,1.2345434,-1.4201523,-2.1442711,13.392182596847695,2.852863261287979,walk
10/07/2020, 15:07:30,-12.248859,-4.5918264,2.8689942,1.2430911,-1.449459,-2.1809046,13.392182596847695,2.89871553579487,walk
10/07/2020, 15:07:30,-12.6987095,-4.682754,2.7469604,1.2430911,-1.449459,-2.1809046,13.810546676471384,2.89871553579487,walk
10/07/2020, 15:07:30,-12.6987095,-4.682754,2.7469604,1.2321012,-1.4824289,-2.2163167,13.810546676471384,2.9372995344229085,walk
10/07/2020, 15:07:30,-13.043276,-4.625326,2.6129622,1.2321012,-1.4824289,-2.2163167,14.083616659541043,2.9372995344229085,walk
10/07/2020, 15:07:30,-13.043276,-4.625326,2.6129622,1.1710457,-1.526389,-2.2468445,14.083616659541043,2.9579590379883385,walk
10/07/2020, 15:07:30,-13.194024,-4.465007,2.4789643,1.1710457,-1.526389,-2.2468445,14.147926409974046,2.9579590379883385,walk
10/07/2020, 15:07:30,-13.194024,-4.465007,2.4789643,1.0611455,-1.5825601,-2.2981312,14.147926409974046,2.9852861429973014,walk
10/07/2020, 15:07:30,-13.196417,-4.3070807,2.3162522,1.0611455,-1.5825601,-2.2981312,14.073428393875002,2.9852861429973014,walk
10/07/2020, 15:07:30,-13.196417,-4.3070807,2.3162522,0.9048434,-1.6326256,-2.3433123,14.073428393875002,2.9958838776811745,walk
10/07/2020, 15:07:30,-13.050455,-4.0941195,2.201397,0.9048434,-1.6326256,-2.3433123,13.853603918155416,2.9958838776811745,walk
10/07/2020, 15:07:30,-13.050455,-4.0941195,2.201397,0.7204556,-1.6753645,-2.394599,13.853603918155416,3.009984489159611,walk
10/07/2020, 15:07:30,-12.768102,-3.871587,2.0865414,0.7204556,-1.6753645,-2.394599,13.50434234196169,3.009984489159611,walk
10/07/2020, 15:07:30,-12.768102,-3.871587,2.0865414,0.5104245,-1.7095556,-2.4727502,13.50434234196169,3.0491977780798587,walk
10/07/2020, 15:07:30,-12.323036,-3.5964124,1.9860427,0.5104245,-1.7095556,-2.4727502,12.989833297182026,3.0491977780798587,walk
10/07/2020, 15:07:30,-12.323036,-3.5964124,1.9860427,0.2735289,-1.724209,-2.5521224,12.989833297182026,3.0920936402774917,walk
10/07/2020, 15:07:30,-11.818151,-3.3164523,1.9142581,0.2735289,-1.724209,-2.5521224,12.423040853443707,3.0920936402774917,walk
10/07/2020, 15:07:30,-11.818151,-3.3164523,1.9142581,0.03297,-1.7217667,-2.6608012,12.423040853443707,3.169452713611357,walk
10/07/2020, 15:07:30,-11.361122,-3.1106694,1.8065811,0.03297,-1.7217667,-2.6608012,11.917008662179786,3.169452713611357,walk
10/07/2020, 15:07:30,-11.361122,-3.1106694,1.8065811,-0.2075889,-1.7034501,-2.7658167,11.917008662179786,3.25493122694915,walk
10/07/2020, 15:07:31,-9.509077,-4.2185464,1.8711873,-0.97688895,0.47623336,2.361629,10.569769270629944,2.5996926401386973,walk
10/07/2020, 15:07:31,-9.509077,-4.2185464,1.8711873,-1.0403867,0.47867557,2.2932467,10.569769270629944,2.563301656218794,walk
10/07/2020, 15:07:31,-9.365508,-4.319045,1.9716859,-1.0403867,0.47867557,2.2932467,10.50021128890368,2.563301656218794,walk
10/07/2020, 15:07:31,-9.365508,-4.319045,1.9716859,-1.0819045,0.48600224,2.218759,10.50021128890368,2.515871092299984,walk
10/07/2020, 15:07:31,-9.190832,-4.4075794,2.1104696,-1.0819045,0.48600224,2.218759,10.409237897082647,2.515871092299984,walk
10/07/2020, 15:07:31,-9.190832,-4.4075794,2.1104696,-1.0953367,0.50676113,2.1406078,10.409237897082647,2.457391132482305,walk
10/07/2020, 15:07:31,-9.0951185,-4.476971,2.2827528,-1.0953367,0.50676113,2.1406078,10.391121774960283,2.457391132482305,walk
10/07/2020, 15:07:31,-9.0951185,-4.476971,2.2827528,-1.1038845,0.54095227,2.0453613,10.391121774960283,2.3863555935005643,walk
10/07/2020, 15:07:31,-9.083155,-4.4434714,2.3976083,-1.1038845,0.54095227,2.0453613,10.392144280202832,2.3863555935005643,walk
10/07/2020, 15:07:31,-9.083155,-4.4434714,2.3976083,-1.1246433,0.5519422,1.95622,10.392144280202832,2.322985071750295,walk
10/07/2020, 15:07:31,-9.157332,-4.3357944,2.510071,-1.1246433,0.5519422,1.95622,10.43821379266143,2.322985071750295,walk
10/07/2020, 15:07:31,-9.157332,-4.3357944,2.510071,-1.1844778,0.5189722,1.8719634,10.43821379266143,2.2752069661668863,walk
10/07/2020, 15:07:31,-9.178867,-4.141976,2.57707,-1.1844778,0.5189722,1.8719634,10.394655338595399,2.2752069661668863,walk
10/07/2020, 15:07:31,-9.178867,-4.141976,2.57707,-1.2870512,0.46646446,1.790149,10.394655338595399,2.2536022792844865,walk
10/07/2020, 15:07:31,-9.109476,-3.9960139,2.6799614,-1.2870512,0.46646446,1.790149,10.302081094992898,2.2536022792844865,walk
10/07/2020, 15:07:31,-9.109476,-3.9960139,2.6799614,-1.3786345,0.39930335,1.7193245,10.302081094992898,2.239676929598297,walk
10/07/2020, 15:07:31,-8.992228,-3.9984066,2.8498518,-1.3786345,0.39930335,1.7193245,10.245441311366783,2.239676929598297,walk
10/07/2020, 15:07:31,-8.992228,-3.9984066,2.8498518,-1.4348056,0.34069002,1.6619323,10.245441311366783,2.221881189763248,walk
10/07/2020, 15:07:31,-8.822337,-4.101298,2.969493,-1.4348056,0.34069002,1.6619323,10.17212686969005,2.221881189763248,walk
10/07/2020, 15:07:31,-8.822337,-4.101298,2.969493,-1.4213734,0.31993112,1.62652,10.17212686969005,2.1836267088303614,walk
10/07/2020, 15:07:32,-11.363515,-4.2352962,2.2612174,-0.09402556,0.21003112,3.1797736,12.336138339739001,3.1880893696489703,walk
10/07/2020, 15:07:32,-11.363515,-4.2352962,2.2612174,-0.30283555,0.17217667,3.2554824,12.336138339739001,3.2740678163161183,walk
10/07/2020, 15:07:32,-11.014163,-4.3405805,2.3665016,-0.30283555,0.17217667,3.2554824,12.072810584533086,3.2740678163161183,walk
10/07/2020, 15:07:32,-11.014163,-4.3405805,2.3665016,-0.42006224,0.15508112,3.2493768,12.072810584533086,3.2800841242050676,walk
10/07/2020, 15:07:32,-10.499705,-4.4171505,2.5818555,-0.42006224,0.15508112,3.2493768,11.679940420114873,3.2800841242050676,walk
10/07/2020, 15:07:32,-10.499705,-4.4171505,2.5818555,-0.43227336,0.18438779,3.228618,11.679940420114873,3.262641981459912,walk
10/07/2020, 15:07:32,-10.018748,-4.4458647,2.833102,-0.43227336,0.18438779,3.228618,11.321108460277333,3.262641981459912,walk
10/07/2020, 15:07:32,-10.018748,-4.4458647,2.833102,-0.3712178,0.25765446,3.2164068,11.321108460277333,3.247993428469421,walk
10/07/2020, 15:07:32,-9.669396,-4.4147577,2.9862428,-0.3712178,0.25765446,3.2164068,11.041057849650668,3.247993428469421,walk
10/07/2020, 15:07:32,-9.669396,-4.4147577,2.9862428,-0.27108666,0.3394689,3.1907635,11.041057849650668,3.22020164809078,walk
10/07/2020, 15:07:32,-9.60479,-4.395615,3.1106694,-0.27108666,0.3394689,3.1907635,11.011343328782813,3.22020164809078,walk
10/07/2020, 15:07:32,-9.60479,-4.395615,3.1106694,-0.13554333,0.42006224,3.1468034,11.011343328782813,3.1776085016807674,walk
10/07/2020, 15:07:32,-9.796216,-4.35733,3.2159536,-0.13554333,0.42006224,3.1468034,11.19350387502754,3.1776085016807674,walk
10/07/2020, 15:07:32,-9.796216,-4.35733,3.2159536,0.017095556,0.4908867,3.1004012,11.19350387502754,3.139068232914745,walk
10/07/2020, 15:07:32,-10.12164,-4.3501515,3.2039895,0.017095556,0.4908867,3.1004012,11.473315458543414,3.139068232914745,walk
10/07/2020, 15:07:32,-10.12164,-4.3501515,3.2039895,0.15630223,0.5568267,3.0478935,11.473315458543414,3.1022800175166285,walk
10/07/2020, 15:07:32,-10.533205,-4.347759,3.1202407,0.15630223,0.5568267,3.0478935,11.81470763618734,3.1022800175166285,walk
10/07/2020, 15:07:32,-10.533205,-4.347759,3.1202407,0.26986557,0.6288723,3.0027122,11.81470763618734,3.079705930886265,walk
10/07/2020, 15:07:32,-10.980663,-4.388437,2.9671001,0.26986557,0.6288723,3.0027122,12.191678607020163,3.079705930886265,walk
10/07/2020, 15:07:32,-10.980663,-4.388437,2.9671001,0.33580557,0.69114894,2.95631,12.191678607020163,3.054541086033933,walk
10/07/2020, 15:07:33,-7.3459654,-3.2159536,0.74416786,-1.3420012,-0.55438447,-2.4190211,8.053530327603134,2.8213423376308646,walk
10/07/2020, 15:07:33,-7.3459654,-3.2159536,0.74416786,-1.3700867,-0.52141446,-2.2407389,8.053530327603134,2.6776708533081193,walk
10/07/2020, 15:07:33,-6.9678993,-3.0867412,0.7609176,-1.3700867,-0.52141446,-2.2407389,7.658889466508037,2.6776708533081193,walk
10/07/2020, 15:07:33,-6.9678993,-3.0867412,0.7609176,-1.3847401,-0.48844448,-2.05513,7.658889466508037,2.5257954248714847,walk
10/07/2020, 15:07:33,-6.5682983,-2.9718857,0.83748794,-1.3847401,-0.48844448,-2.05513,7.257825681704635,2.5257954248714847,walk
10/07/2020, 15:07:33,-6.5682983,-2.9718857,0.83748794,-1.3786345,-0.45425335,-1.8634156,7.257825681704635,2.362053502932638,walk
10/07/2020, 15:07:33,-6.2285175,-2.8666015,0.8925229,-1.3786345,-0.45425335,-1.8634156,6.914364157193437,2.362053502932638,walk
10/07/2020, 15:07:33,-6.2285175,-2.8666015,0.8925229,-1.3444434,-0.42006224,-1.6582689,6.914364157193437,2.1757381029522778,walk
10/07/2020, 15:07:33,-5.9318075,-2.8378878,0.95473623,-1.3444434,-0.42006224,-1.6582689,6.644657151857861,2.1757381029522778,walk
10/07/2020, 15:07:33,-5.9318075,-2.8378878,0.95473623,-1.2894934,-0.36999667,-1.4519012,6.644657151857861,1.9767923402609233,walk
10/07/2020, 15:07:33,-5.7116675,-2.8187451,1.0001999,-1.2894934,-0.36999667,-1.4519012,6.4473925017956235,1.9767923402609233,walk
10/07/2020, 15:07:33,-5.7116675,-2.8187451,1.0001999,-1.2162267,-0.31871,-1.2211112,6.4473925017956235,1.75268250179408,walk
10/07/2020, 15:07:33,-5.601598,-2.8594232,1.0289137,-1.2162267,-0.31871,-1.2211112,6.372822141210246,1.75268250179408,walk
10/07/2020, 15:07:33,-5.601598,-2.8594232,1.0289137,-1.1368545,-0.24300112,-0.97688895,6.372822141210246,1.5184860204053097,walk
10/07/2020, 15:07:33,-5.6614184,-2.914458,1.026521,-1.1368545,-0.24300112,-0.97688895,6.449765086605904,1.5184860204053097,walk
10/07/2020, 15:07:33,-5.6614184,-2.914458,1.026521,-1.0489345,-0.15630223,-0.7167922,6.449765086605904,1.2800331958174622,walk
10/07/2020, 15:07:33,-5.9246287,-2.9958138,1.0145568,-1.0489345,-0.15630223,-0.7167922,6.7160592371314385,1.2800331958174622,walk
10/07/2020, 15:07:33,-5.9246287,-2.9958138,1.0145568,-0.9512456,-0.07693,-0.4371578,6.7160592371314385,1.0497110928986817,walk
10/07/2020, 15:07:33,-6.1878395,-3.1130621,0.9523434,-0.9512456,-0.07693,-0.4371578,6.991957640416266,1.0497110928986817,walk
10/07/2020, 15:07:33,-6.1878395,-3.1130621,0.9523434,-0.8498934,-0.017095556,-0.1746189,6.991957640416266,0.8678149540754836,walk
10/07/2020, 15:07:34,-6.175875,-2.2731814,0.39960137,-0.7522045,-0.7131289,-1.6631534,6.59306221959831,1.9597050043897495,walk
10/07/2020, 15:07:34,-6.175875,-2.2731814,0.39960137,-0.8364611,-0.70580226,-1.4592278,6.59306221959831,1.824053130484084,walk
10/07/2020, 15:07:34,-5.8743796,-2.2348964,0.36131623,-0.8364611,-0.70580226,-1.4592278,6.295525993101526,1.824053130484084,walk
10/07/2020, 15:07:34,-5.8743796,-2.2348964,0.36131623,-0.9085067,-0.6777167,-1.2528601,6.295525993101526,1.6894799938680154,walk
10/07/2020, 15:07:34,-5.5800624,-2.201397,0.37328035,-0.9085067,-0.6777167,-1.2528601,6.010206567428861,1.6894799938680154,walk
10/07/2020, 15:07:34,-5.5800624,-2.201397,0.37328035,-0.95735115,-0.64841,-1.0342811,6.010206567428861,1.5513523916857925,walk
10/07/2020, 15:07:34,-5.276174,-2.2277179,0.40438703,-0.95735115,-0.64841,-1.0342811,5.741451785498628,1.5513523916857925,walk
10/07/2020, 15:07:34,-5.276174,-2.2277179,0.40438703,-0.97688895,-0.6007867,-0.8120389,5.741451785498628,1.4052273283454095,walk
10/07/2020, 15:07:34,-5.029713,-2.268396,0.48095736,-0.97688895,-0.6007867,-0.8120389,5.538497481590388,1.4052273283454095,walk
10/07/2020, 15:07:34,-5.029713,-2.268396,0.48095736,-0.95613,-0.5470578,-0.5788067,5.538497481590388,1.2443769801451767,walk
10/07/2020, 15:07:34,-4.8454657,-2.3306093,0.57427746,-0.95613,-0.5470578,-0.5788067,5.407408979796933,1.2443769801451767,walk
10/07/2020, 15:07:34,-4.8454657,-2.3306093,0.57427746,-0.9133912,-0.48111778,-0.33580557,5.407408979796933,1.0855980542041128,walk
10/07/2020, 15:07:34,-4.6899323,-2.4047868,0.6364908,-0.9133912,-0.48111778,-0.33580557,5.308821493903118,1.0855980542041128,walk
10/07/2020, 15:07:34,-4.6899323,-2.4047868,0.6364908,-0.86088336,-0.41151446,-0.07693,5.308821493903118,0.9572787096325518,walk
10/07/2020, 15:07:34,-4.618148,-2.5028925,0.7178468,-0.86088336,-0.41151446,-0.07693,5.301609608989523,0.9572787096325518,walk
10/07/2020, 15:07:34,-4.618148,-2.5028925,0.7178468,-0.7998278,-0.33336335,0.19415668,5.301609608989523,0.8880047709221456,walk
10/07/2020, 15:07:34,-4.6779685,-2.6488547,0.8111669,-0.7998278,-0.33336335,0.19415668,5.436709704533611,0.8880047709221456,walk
10/07/2020, 15:07:34,-4.6779685,-2.6488547,0.8111669,-0.73633003,-0.24788557,0.4823389,5.436709704533611,0.9144834563387984,walk
10/07/2020, 15:07:34,-4.87418,-2.8426733,0.8757731,-0.73633003,-0.24788557,0.4823389,5.710113754362898,0.9144834563387984,walk
10/07/2020, 15:07:34,-4.87418,-2.8426733,0.8757731,-0.66062117,-0.16118668,0.78273225,5.710113754362898,1.036856423851368,walk
10/07/2020, 15:07:35,-11.717652,-5.9270215,4.469793,1.460449,-0.25521225,-1.6558267,13.871265546916264,2.2225675547511963,walk
10/07/2020, 15:07:35,-11.717652,-5.9270215,4.469793,1.5727912,-0.34801668,-1.7925912,13.871265546916264,2.4100147485063923,walk
10/07/2020, 15:07:35,-11.882757,-5.8767724,4.338187,1.5727912,-0.34801668,-1.7925912,13.948341857855041,2.4100147485063923,walk
10/07/2020, 15:07:35,-11.882757,-5.8767724,4.338187,1.636289,-0.4566956,-1.9354612,13.948341857855041,2.5752713385908774,walk
10/07/2020, 15:07:35,-11.947364,-5.6781683,4.0941195,1.636289,-0.4566956,-1.9354612,13.847126529848106,2.5752713385908774,walk
10/07/2020, 15:07:35,-11.947364,-5.6781683,4.0941195,1.6448368,-0.5739222,-2.0905423,13.847126529848106,2.721257417428746,walk
10/07/2020, 15:07:35,-11.944971,-5.4293146,3.804588,1.6448368,-0.5739222,-2.0905423,13.661430446214935,2.721257417428746,walk
10/07/2020, 15:07:35,-11.944971,-5.4293146,3.804588,1.6289623,-0.6691689,-2.2480657,13.661430446214935,2.8557143666387397,walk
10/07/2020, 15:07:35,-11.964113,-5.1421757,3.493521,1.6289623,-0.6691689,-2.2480657,13.482828523035367,2.8557143666387397,walk
10/07/2020, 15:07:35,-11.964113,-5.1421757,3.493521,1.6118667,-0.7522045,-2.4116945,13.482828523035367,2.9966975765792765,walk
10/07/2020, 15:07:35,-12.100504,-4.9316072,3.199204,1.6118667,-0.7522045,-2.4116945,13.452800868828716,2.9966975765792765,walk
10/07/2020, 15:07:35,-12.100504,-4.9316072,3.199204,1.5984346,-0.80227005,-2.5850923,13.452800868828716,3.143458690444227,walk
10/07/2020, 15:07:35,-12.325429,-4.7712884,2.9312077,1.5984346,-0.80227005,-2.5850923,13.53784954820966,3.143458690444227,walk
10/07/2020, 15:07:35,-12.325429,-4.7712884,2.9312077,1.6057612,-0.8437878,-2.7511635,13.53784954820966,3.295352375410838,walk
10/07/2020, 15:07:35,-12.684353,-4.634897,2.751746,1.6057612,-0.8437878,-2.7511635,13.782132850805406,3.295352375410838,walk
10/07/2020, 15:07:35,-12.684353,-4.634897,2.751746,1.6106457,-0.8633256,-2.9062445,13.782132850805406,3.4330405894955485,walk
10/07/2020, 15:07:35,-13.189239,-4.5487556,2.6081767,1.6106457,-0.8633256,-2.9062445,14.193300431875342,3.4330405894955485,walk
10/07/2020, 15:07:35,-13.189239,-4.5487556,2.6081767,1.6118667,-0.8865267,-3.0393457,14.193300431875342,3.552698471682002,walk
10/07/2020, 15:07:35,-13.782659,-4.517649,2.5292134,1.6118667,-0.8865267,-3.0393457,14.723034744000637,3.552698471682002,walk
10/07/2020, 15:07:35,-13.782659,-4.517649,2.5292134,1.5947711,-0.91461223,-3.152909,14.723034744000637,3.649746013884177,walk
10/07/2020, 15:07:36,-10.059426,-2.1296122,2.8307092,-0.92560226,0.6581789,1.7816012,10.66490602283874,2.1128279245718002,walk
10/07/2020, 15:07:36,-9.844072,-2.2229323,2.8809586,-0.92560226,0.6581789,1.7816012,10.495099364147581,2.1128279245718002,walk
10/07/2020, 15:07:36,-9.844072,-2.2229323,2.8809586,-1.229659,0.6105556,1.6631534,10.495099364147581,2.1565988392959223,walk
10/07/2020, 15:07:36,-9.669396,-2.3928227,2.8689942,-1.229659,0.6105556,1.6631534,10.365999968747321,2.1565988392959223,walk
10/07/2020, 15:07:36,-9.669396,-2.3928227,2.8689942,-1.5923289,0.52141446,1.5850023,10.365999968747321,2.30642942310705,walk
10/07/2020, 15:07:36,-9.521041,-2.6009982,2.7852457,-1.5923289,0.52141446,1.5850023,10.2553890685495,2.30642942310705,walk
10/07/2020, 15:07:36,-9.521041,-2.6009982,2.7852457,-1.9855268,0.41151446,1.5227256,10.2553890685495,2.535814272424732,walk
10/07/2020, 15:07:36,-9.343972,-2.9048867,2.725425,-1.9855268,0.41151446,1.5227256,10.15756491080673,2.535814272424732,walk
10/07/2020, 15:07:36,-9.343972,-2.9048867,2.725425,-2.3457546,0.29184556,1.471439,10.15756491080673,2.784397839125646,walk
10/07/2020, 15:07:36,-9.123833,-3.266203,2.6225336,-2.3457546,0.29184556,1.471439,10.039426627847837,2.784397839125646,walk
10/07/2020, 15:07:36,-9.123833,-3.266203,2.6225336,-2.6388211,0.18438779,1.4287001,10.039426627847837,3.00641975311893,walk
10/07/2020, 15:07:36,-8.944371,-3.7160535,2.6273193,-2.6388211,0.18438779,1.4287001,10.035618415708896,3.00641975311893,walk
10/07/2020, 15:07:36,-8.944371,-3.7160535,2.6273193,-2.8427467,0.09402556,1.3871822,10.035618415708896,3.1645417295652845,walk
10/07/2020, 15:07:36,-8.786445,-4.173083,2.6751757,-2.8427467,0.09402556,1.3871822,10.088250342628802,3.1645417295652845,walk
10/07/2020, 15:07:36,-8.786445,-4.173083,2.6751757,-2.9624157,0.023201112,1.3554333,10.088250342628802,3.257858897343741,walk
10/07/2020, 15:07:36,-8.69791,-4.5894337,2.7589245,-2.9624157,0.023201112,1.3554333,10.214118144124425,3.257858897343741,walk
10/07/2020, 15:07:36,-8.69791,-4.5894337,2.7589245,-2.9953856,-0.039075557,1.3322322,10.214118144124425,3.2785217408576828,walk
10/07/2020, 15:07:36,-8.559127,-4.898108,2.8689942,-2.9953856,-0.039075557,1.3322322,10.270406148824835,3.2785217408576828,walk
10/07/2020, 15:07:36,-8.559127,-4.898108,2.8689942,-2.95631,-0.09524667,1.3224634,10.270406148824835,3.2400232053130855,walk
10/07/2020, 15:07:36,-8.441878,-5.070391,2.914458,-2.95631,-0.09524667,1.3224634,10.269773215341145,3.2400232053130855,walk
10/07/2020, 15:07:37,-7.391429,-6.142376,4.26401,-0.10745778,0.41151446,1.3383378,10.51398045571412,1.4042931805029946,walk
10/07/2020, 15:07:37,-7.2023964,-6.0634127,4.4004006,-0.10745778,0.41151446,1.3383378,10.392449794993325,1.4042931805029946,walk
10/07/2020, 15:07:37,-7.2023964,-6.0634127,4.4004006,0.06960334,0.38831335,1.3004833,10.392449794993325,1.3590028764240205,walk
10/07/2020, 15:07:37,-7.082755,-5.895915,4.493721,0.06960334,0.38831335,1.3004833,10.252841664940119,1.3590028764240205,walk
10/07/2020, 15:07:37,-7.082755,-5.895915,4.493721,0.20881,0.36511225,1.2394278,10.252841664940119,1.3088505842753841,walk
10/07/2020, 15:07:37,-7.0612197,-5.7523456,4.5942197,0.20881,0.36511225,1.2394278,10.20084102007077,1.3088505842753841,walk
10/07/2020, 15:07:37,-7.0612197,-5.7523456,4.5942197,0.29306668,0.3309211,1.1612767,10.20084102007077,1.2425620435665434,walk
10/07/2020, 15:07:37,-7.140183,-5.615955,4.6899323,0.29306668,0.3309211,1.1612767,10.223337393186856,1.2425620435665434,walk
10/07/2020, 15:07:37,-7.140183,-5.615955,4.6899323,0.33458444,0.29306668,1.06603,10.223337393186856,1.1550994957512553,walk
10/07/2020, 15:07:37,-7.2119675,-5.4867425,4.74736,0.33458444,0.29306668,1.06603,10.230065842145105,1.1550994957512553,walk
10/07/2020, 15:07:37,-7.2119675,-5.4867425,4.74736,0.33458444,0.23933779,0.96589893,10.230065842145105,1.0498524048339857,walk
10/07/2020, 15:07:37,-7.3340015,-5.369494,4.8047876,0.33458444,0.23933779,0.96589893,10.281295065865114,1.0498524048339857,walk
10/07/2020, 15:07:37,-7.3340015,-5.369494,4.8047876,0.30405667,0.1856089,0.85599893,10.281295065865114,0.9271651936864513,walk
10/07/2020, 15:07:37,-7.4679995,-5.24746,4.8191447,0.30405667,0.1856089,0.85599893,10.321385908808134,0.9271651936864513,walk
10/07/2020, 15:07:37,-7.4679995,-5.24746,4.8191447,0.25643334,0.12699556,0.7338878,10.321385908808134,0.7877037645331177,walk
10/07/2020, 15:07:37,-7.6163545,-5.163711,4.790431,0.25643334,0.12699556,0.7338878,10.37405401718801,0.7877037645331177,walk
10/07/2020, 15:07:37,-7.6163545,-5.163711,4.790431,0.20026223,0.081814446,0.5971234,10.37405401718801,0.6351022768040342,walk
10/07/2020, 15:07:37,-7.7671022,-5.1493545,4.718646,0.20026223,0.081814446,0.5971234,10.44554206842591,0.6351022768040342,walk
10/07/2020, 15:07:37,-7.7671022,-5.1493545,4.718646,0.14287001,0.026864445,0.45547447,10.44554206842591,0.47811141704448684,walk
10/07/2020, 15:07:37,-7.9369926,-5.1062837,4.6564326,0.14287001,0.026864445,0.45547447,10.52389423836875,0.47811141704448684,walk
10/07/2020, 15:07:38,-12.1148615,-3.5389848,3.9481573,0.63131446,0.9549089,2.3994834,13.224304453225072,2.658557833544297,walk
10/07/2020, 15:07:38,-11.303694,-2.8019953,3.845266,0.63131446,0.9549089,2.3994834,12.264205715004138,2.658557833544297,walk
10/07/2020, 15:07:38,-11.303694,-2.8019953,3.845266,0.11356334,0.86821,2.15404,12.264205715004138,2.3252040793863937,walk
10/07/2020, 15:07:38,-10.502099,-2.1559331,3.615555,0.11356334,0.86821,2.15404,11.314343560414372,2.3252040793863937,walk
10/07/2020, 15:07:38,-10.502099,-2.1559331,3.615555,-0.44082114,0.7717422,1.9415667,11.314343560414372,2.1353197916069577,walk
10/07/2020, 15:07:38,-9.858429,-1.6462619,3.3667014,-0.44082114,0.7717422,1.9415667,10.546728302363036,2.1353197916069577,walk
10/07/2020, 15:07:38,-9.858429,-1.6462619,3.3667014,-0.97933114,0.66306335,1.7510734,10.546728302363036,2.1130547531211312,walk
10/07/2020, 15:07:38,-9.348758,-1.3830515,3.129812,-0.97933114,0.66306335,1.7510734,9.95529135756628,2.1130547531211312,walk
10/07/2020, 15:07:38,-9.348758,-1.3830515,3.129812,-1.4824289,0.5592689,1.6045401,9.95529135756628,2.2549780764077463,walk
10/07/2020, 15:07:38,-8.961121,-1.3686945,2.926422,-1.4824289,0.5592689,1.6045401,9.525699642518937,2.2549780764077463,walk
10/07/2020, 15:07:38,-8.961121,-1.3686945,2.926422,-1.9171445,0.44326335,1.4909767,9.525699642518937,2.468792633785523,walk
10/07/2020, 15:07:38,-8.702696,-1.6462619,2.7637103,-1.9171445,0.44326335,1.4909767,9.278210374031387,2.468792633785523,walk
10/07/2020, 15:07:38,-8.702696,-1.6462619,2.7637103,-2.262719,0.3370267,1.4128256,9.278210374031387,2.688784113914846,walk
10/07/2020, 15:07:38,-8.41795,-2.120041,2.6823542,-2.262719,0.3370267,1.4128256,9.085784185432807,2.688784113914846,walk
10/07/2020, 15:07:38,-8.41795,-2.120041,2.6823542,-2.51671,0.24666445,1.3664234,9.085784185432807,2.874332202937409,walk
10/07/2020, 15:07:38,-8.185846,-2.6392834,2.6608188,-2.51671,0.24666445,1.3664234,9.002991383376326,2.874332202937409,walk
10/07/2020, 15:07:38,-8.185846,-2.6392834,2.6608188,-2.6852233,0.15996556,1.3468856,9.002991383376326,3.008340753354456,walk
10/07/2020, 15:07:38,-7.9680996,-3.1944182,2.684747,-2.6852233,0.15996556,1.3468856,8.994597549460472,3.008340753354456,walk
10/07/2020, 15:07:38,-7.9680996,-3.1944182,2.684747,-2.7755857,0.08669889,1.3322322,8.994597549460472,3.079973236679251,walk
10/07/2020, 15:07:38,-7.759924,-3.7040894,2.6943183,-2.7755857,0.08669889,1.3322322,9.0108850206159,3.079973236679251,walk
10/07/2020, 15:07:39,-11.653047,-5.852844,2.1463618,0.27963445,0.7387723,4.283658,13.215753857468139,4.355881769817187,walk
10/07/2020, 15:07:39,-12.533605,-6.053841,2.2205393,0.27963445,0.7387723,4.283658,14.095071194369297,4.355881769817187,walk
10/07/2020, 15:07:39,-12.533605,-6.053841,2.2205393,0.45791668,0.7766267,4.492468,14.095071194369297,4.582041507756797,walk
10/07/2020, 15:07:39,-13.287344,-6.216553,2.3138595,0.45791668,0.7766267,4.492468,14.851026545470248,4.582041507756797,walk
10/07/2020, 15:07:39,-13.287344,-6.216553,2.3138595,0.6007867,0.80593336,4.6634235,14.851026545470248,4.770533755618185,walk
10/07/2020, 15:07:39,-13.878371,-6.3888364,2.4885356,0.6007867,0.80593336,4.6634235,15.479639150291508,4.770533755618185,walk
10/07/2020, 15:07:39,-13.878371,-6.3888364,2.4885356,0.72411895,0.8120389,4.7818713,15.479639150291508,4.904084902729439,walk
10/07/2020, 15:07:39,-14.155939,-6.472585,2.6991038,0.72411895,0.8120389,4.7818713,15.797788850003016,4.904084902729439,walk
10/07/2020, 15:07:39,-14.155939,-6.472585,2.6991038,0.85966223,0.7973856,4.8160625,15.797788850003016,4.95674292623667,walk
10/07/2020, 15:07:39,-14.136796,-6.546763,3.050849,0.85966223,0.7973856,4.8160625,15.875036551004856,4.95674292623667,walk
10/07/2020, 15:07:39,-14.136796,-6.546763,3.050849,1.0123012,0.7851745,4.7586703,15.875036551004856,4.928102679647239,walk
10/07/2020, 15:07:39,-13.854444,-6.6305118,3.495914,1.0123012,0.7851745,4.7586703,15.75216514846121,4.928102679647239,walk
10/07/2020, 15:07:39,-13.854444,-6.6305118,3.495914,1.1844778,0.81448114,4.624348,15.75216514846121,4.842619449992151,walk
10/07/2020, 15:07:39,-13.435699,-6.5922265,3.8668015,1.1844778,0.81448114,4.624348,15.457283855739659,4.842619449992151,walk
10/07/2020, 15:07:39,-13.435699,-6.5922265,3.8668015,1.350549,0.88896894,4.427749,15.457283855739659,4.7137258019234025,walk
10/07/2020, 15:07:39,-13.007384,-6.381658,4.1180477,1.350549,0.88896894,4.427749,15.06240097479235,4.7137258019234025,walk
10/07/2020, 15:07:39,-13.007384,-6.381658,4.1180477,1.4799867,0.98910004,4.19818,15.06240097479235,4.559977675826053,walk
10/07/2020, 15:07:39,-12.734602,-5.9724855,4.2687955,1.4799867,0.98910004,4.19818,14.6990913303943,4.559977675826053,walk
10/07/2020, 15:07:39,-12.734602,-5.9724855,4.2687955,1.5422634,1.0855678,3.9270935,14.6990913303943,4.356500577475122,walk
10/07/2020, 15:07:39,-12.686746,-5.4795637,4.2664027,1.5422634,1.0855678,3.9270935,14.463102215384122,4.356500577475122,walk
10/07/2020, 15:07:40,-13.911871,-5.6709895,2.5220351,0.7009178,0.96956223,4.6158004,15.233546426402325,4.7683277794308845,walk
10/07/2020, 15:07:40,-14.158332,-5.919843,2.8426733,0.7009178,0.96956223,4.6158004,15.607168107827741,4.7683277794308845,walk
10/07/2020, 15:07:40,-14.158332,-5.919843,2.8426733,0.83524,0.93415004,4.6402225,15.607168107827741,4.8064464497379245,walk
10/07/2020, 15:07:40,-14.177474,-6.070591,3.225525,0.83524,0.93415004,4.6402225,15.75616880138945,4.8064464497379245,walk
10/07/2020, 15:07:40,-14.177474,-6.070591,3.225525,1.0147433,0.8999589,4.580388,15.75616880138945,4.776984919700143,walk
10/07/2020, 15:07:40,-13.923835,-6.166304,3.5437703,1.0147433,0.8999589,4.580388,15.635050047447082,4.776984919700143,walk
10/07/2020, 15:07:40,-13.923835,-6.166304,3.5437703,1.1942468,0.87065226,4.4668245,15.635050047447082,4.704974186529011,walk
10/07/2020, 15:07:40,-13.4763775,-6.0801625,3.8165522,1.1942468,0.87065226,4.4668245,15.269158356509925,4.704974186529011,walk
10/07/2020, 15:07:40,-13.4763775,-6.0801625,3.8165522,1.3249056,0.8767578,4.3105226,15.269158356509925,4.593983444473842,walk
10/07/2020, 15:07:40,-12.914063,-5.8241305,3.9218364,1.3249056,0.8767578,4.3105226,14.699467063037323,4.593983444473842,walk
10/07/2020, 15:07:40,-12.914063,-5.8241305,3.9218364,1.3554333,0.91461223,4.120029,14.699467063037323,4.432646368198574,walk
10/07/2020, 15:07:40,-12.382857,-5.312066,3.8141594,1.3554333,0.91461223,4.120029,14.003607155685364,4.432646368198574,walk
10/07/2020, 15:07:40,-12.382857,-5.312066,3.8141594,1.2699556,0.9512456,3.9063346,14.003607155685364,4.216290529193943,walk
10/07/2020, 15:07:40,-11.997613,-4.6803613,3.546163,1.2699556,0.9512456,3.9063346,13.357536105347094,4.216290529193943,walk
10/07/2020, 15:07:40,-11.997613,-4.6803613,3.546163,1.1002212,0.9549089,3.668218,13.357536105347094,3.9469178049267395,walk
10/07/2020, 15:07:40,-11.810972,-4.1204405,3.1920254,1.1002212,0.9549089,3.668218,12.909923342528806,3.9469178049267395,walk
10/07/2020, 15:07:40,-11.810972,-4.1204405,3.1920254,0.8975167,0.9378134,3.4215534,12.909923342528806,3.659516052451809,walk
10/07/2020, 15:07:40,-11.748759,-3.6251264,2.9240294,0.8975167,0.9378134,3.4215534,12.63822903568217,3.659516052451809,walk
10/07/2020, 15:07:40,-11.748759,-3.6251264,2.9240294,0.6874856,0.92071784,3.163899,12.63822903568217,3.366097782668765,walk
10/07/2020, 15:07:40,-11.777473,-3.2614172,2.7565317,0.6874856,0.92071784,3.163899,12.527736818199873,3.366097782668765,walk
10/07/2020, 15:07:41,-10.631311,-3.8548372,0.3493521,-0.61788225,-0.9866578,-3.3812568,11.314000132542501,3.576055055844286,walk
10/07/2020, 15:07:41,-10.631311,-3.8548372,0.3493521,-0.6349778,-0.93415004,-3.2444923,11.314000132542501,3.4354858989295507,walk
10/07/2020, 15:07:41,-10.258031,-3.859623,0.31106696,-0.6349778,-0.93415004,-3.2444923,10.964517763095783,3.4354858989295507,walk
10/07/2020, 15:07:41,-10.258031,-3.859623,0.31106696,-0.6655056,-0.88286334,-3.1016223,10.964517763095783,3.2927809718708394,walk
10/07/2020, 15:07:41,-9.82493,-3.749553,0.30149564,-0.6655056,-0.88286334,-3.1016223,10.520423010469065,3.2927809718708394,walk
10/07/2020, 15:07:41,-9.82493,-3.749553,0.30149564,-0.70458114,-0.8401245,-2.933109,10.520423010469065,3.1313531276554065,walk
10/07/2020, 15:07:41,-9.343972,-3.586841,0.27996024,-0.70458114,-0.8401245,-2.933109,10.012673142076054,3.1313531276554065,walk
10/07/2020, 15:07:41,-9.343972,-3.586841,0.27996024,-0.74976224,-0.79128003,-2.7413945,10.012673142076054,2.9501714209760115,walk
10/07/2020, 15:07:41,-8.834301,-3.3523445,0.2416751,-0.74976224,-0.79128003,-2.7413945,9.452062983941596,2.9501714209760115,walk
10/07/2020, 15:07:41,-8.834301,-3.3523445,0.2416751,-0.80227005,-0.7534256,-2.5411322,9.452062983941596,2.7692309925428495,walk
10/07/2020, 15:07:41,-8.269595,-3.1106694,0.22013968,-0.80227005,-0.7534256,-2.5411322,8.838038771054975,2.7692309925428495,walk
10/07/2020, 15:07:41,-8.269595,-3.1106694,0.22013968,-0.8767578,-0.72534,-2.339649,8.838038771054975,2.601687843426695,walk
10/07/2020, 15:07:41,-7.688139,-2.8689942,0.17706887,-0.8767578,-0.72534,-2.339649,8.207920687251214,2.601687843426695,walk
10/07/2020, 15:07:41,-7.688139,-2.8689942,0.17706887,-0.9634567,-0.6984756,-2.1491556,8.207920687251214,2.456621017161591,walk
10/07/2020, 15:07:41,-7.1473613,-2.6679974,0.22253251,-0.9634567,-0.6984756,-2.1491556,7.632332794003535,2.456621017161591,walk
10/07/2020, 15:07:41,-7.1473613,-2.6679974,0.22253251,-1.0403867,-0.6655056,-1.9391245,7.632332794003535,2.299022795817472,walk
10/07/2020, 15:07:41,-6.649654,-2.5387847,0.2416751,-1.0403867,-0.6655056,-1.9391245,7.1219191207775525,2.299022795817472,walk
10/07/2020, 15:07:41,-6.649654,-2.5387847,0.2416751,-1.0965579,-0.62154555,-1.7266512,7.1219191207775525,2.1377750918283662,walk
10/07/2020, 15:07:41,-6.2237315,-2.440679,0.21774685,-1.0965579,-0.62154555,-1.7266512,6.688733963682201,2.1377750918283662,walk
10/07/2020, 15:07:41,-6.2237315,-2.440679,0.21774685,-1.130749,-0.5739222,-1.5105145,6.688733963682201,1.9722155133315131,walk
10/07/2020, 15:07:42,-9.0544405,-2.6895328,-0.2009971,0.21125223,-1.1344123,-2.0563512,9.447585883285011,2.3579862043026236,walk
10/07/2020, 15:07:42,-9.0544405,-2.6895328,-0.2009971,0.024422223,-1.0965579,-2.041698,9.447585883285011,2.317663956012475,walk
10/07/2020, 15:07:42,-8.683554,-2.4837499,-0.2656033,0.024422223,-1.0965579,-2.041698,9.03568831357358,2.317663956012475,walk
10/07/2020, 15:07:42,-8.683554,-2.4837499,-0.2656033,-0.1526389,-1.0428289,-2.0282657,9.03568831357358,2.285749897376366,walk
10/07/2020, 15:07:42,-8.389236,-2.3162522,-0.37567315,-0.1526389,-1.0428289,-2.0282657,8.711225110716862,2.285749897376366,walk
10/07/2020, 15:07:42,-8.389236,-2.3162522,-0.37567315,-0.3370267,-0.99398446,-2.0050645,8.711225110716862,2.263156135567832,walk
10/07/2020, 15:07:42,-8.157132,-2.210968,-0.38763726,-0.3370267,-0.99398446,-2.0050645,8.460345566835061,2.263156135567832,walk
10/07/2020, 15:07:42,-8.157132,-2.210968,-0.38763726,-0.52996224,-0.9414767,-1.9696523,8.460345566835061,2.2465013961546827,walk
10/07/2020, 15:07:42,-7.958528,-2.213361,-0.39960137,-0.52996224,-0.9414767,-1.9696523,8.270236808827432,2.2465013961546827,walk
10/07/2020, 15:07:42,-7.958528,-2.213361,-0.39960137,-0.7119078,-0.87920004,-1.9098178,8.270236808827432,2.2197318576475857,walk
10/07/2020, 15:07:42,-7.8436728,-2.2779672,-0.42592242,-0.7119078,-0.87920004,-1.9098178,8.17885974864967,2.2197318576475857,walk
10/07/2020, 15:07:42,-7.8436728,-2.2779672,-0.42592242,-0.88896894,-0.8120389,-1.8231189,8.17885974864967,2.1848193454006255,walk
10/07/2020, 15:07:42,-7.7383885,-2.3856442,-0.46660042,-0.88896894,-0.8120389,-1.8231189,8.111206529098292,2.1848193454006255,walk
10/07/2020, 15:07:42,-7.7383885,-2.3856442,-0.46660042,-1.0562612,-0.7558678,-1.7107767,8.111206529098292,2.1479712883573723,walk
10/07/2020, 15:07:42,-7.623533,-2.455036,-0.51445687,-1.0562612,-0.7558678,-1.7107767,8.02559151642744,2.1479712883573723,walk
10/07/2020, 15:07:42,-7.623533,-2.455036,-0.51445687,-1.2089001,-0.69237006,-1.5898868,8.02559151642744,2.11389586333533,walk
10/07/2020, 15:07:42,-7.4679995,-2.57707,-0.52163535,-1.2089001,-0.69237006,-1.5898868,7.9173486171159935,2.11389586333533,walk
10/07/2020, 15:07:42,-7.4679995,-2.57707,-0.52163535,-1.34078,-0.62643003,-1.45068,7.9173486171159935,2.072336401932473,walk
10/07/2020, 15:07:42,-7.274181,-2.7086751,-0.5240282,-1.34078,-0.62643003,-1.45068,7.779796539142642,2.072336401932473,walk
10/07/2020, 15:07:42,-7.274181,-2.7086751,-0.5240282,-1.4519012,-0.55438447,-1.3041468,7.779796539142642,2.0288316876140495,walk
10/07/2020, 15:07:43,-8.920443,-3.5030923,2.361716,1.7144401,-0.018316668,-1.6008767,9.870342144275353,2.3457294292460573,walk
10/07/2020, 15:07:43,-9.092726,-3.5820556,2.2181466,1.7144401,-0.018316668,-1.6008767,10.021424943780124,2.3457294292460573,walk
10/07/2020, 15:07:43,-9.092726,-3.5820556,2.2181466,1.7058923,-0.015874445,-1.6057612,10.021424943780124,2.342816586280456,walk
10/07/2020, 15:07:43,-9.209974,-3.5820556,2.0937197,1.7058923,-0.015874445,-1.6057612,10.101406375827048,2.342816586280456,walk
10/07/2020, 15:07:43,-9.209974,-3.5820556,2.0937197,1.6851335,-0.007326667,-1.6130879,10.101406375827048,2.3327625249062587,walk
10/07/2020, 15:07:43,-9.267402,-3.5653057,1.9980069,1.6851335,-0.007326667,-1.6130879,10.128581871002474,2.3327625249062587,walk
10/07/2020, 15:07:43,-9.267402,-3.5653057,1.9980069,1.6509423,-0.009768889,-1.6008767,10.128581871002474,2.299676535270938,walk
10/07/2020, 15:07:43,-9.286545,-3.5724843,1.861616,1.6509423,-0.009768889,-1.6008767,10.122656383517093,2.299676535270938,walk
10/07/2020, 15:07:43,-9.286545,-3.5724843,1.861616,1.5984346,-0.007326667,-1.5862234,10.122656383517093,2.2519216919296254,walk
10/07/2020, 15:07:43,-9.221938,-3.5676985,1.8281165,1.5984346,-0.007326667,-1.5862234,10.055576832679503,2.2519216919296254,walk
10/07/2020, 15:07:43,-9.221938,-3.5676985,1.8281165,1.5178412,-0.0048844446,-1.5850023,10.055576832679503,2.1945610329949576,walk
10/07/2020, 15:07:43,-9.12144,-3.6011982,1.7994026,1.5178412,-0.0048844446,-1.5850023,9.970313165225354,2.1945610329949576,walk
10/07/2020, 15:07:43,-9.12144,-3.6011982,1.7994026,1.4030567,0.009768889,-1.5691278,9.970313165225354,2.1049526587790486,walk
10/07/2020, 15:07:43,-9.030513,-3.6586258,1.6797615,1.4030567,0.009768889,-1.5691278,9.887229310923614,2.1049526587790486,walk
10/07/2020, 15:07:43,-9.030513,-3.6586258,1.6797615,1.2479756,0.039075557,-1.56058,9.887229310923614,1.9985944938405311,walk
10/07/2020, 15:07:43,-9.018549,-3.711268,1.5194423,1.2479756,0.039075557,-1.56058,9.86997670659234,1.9985944938405311,walk
10/07/2020, 15:07:43,-9.018549,-3.711268,1.5194423,1.0452712,0.07326667,-1.5434844,9.86997670659234,1.8655573013579985,walk
10/07/2020, 15:07:43,-9.071191,-3.7615173,1.3064811,1.0452712,0.07326667,-1.5434844,9.90668503423252,1.8655573013579985,walk
10/07/2020, 15:07:43,-9.071191,-3.7615173,1.3064811,0.81326,0.098910004,-1.5215045,9.90668503423252,1.7280483371829787,walk
10/07/2020, 15:07:43,-9.133404,-3.8524444,1.0576276,0.81326,0.098910004,-1.5215045,9.968900067758353,1.7280483371829787,walk
10/07/2020, 15:07:44,-9.580862,-5.6039906,3.182454,3.2237334,1.1954678,2.1247334,11.546672326967153,4.041793259606008,walk
10/07/2020, 15:07:44,-9.580862,-5.6039906,3.182454,3.260367,1.17593,1.9244711,11.546672326967153,3.9643906239186215,walk
10/07/2020, 15:07:44,-9.303294,-5.367101,3.266203,3.260367,1.17593,1.9244711,11.226091902428864,3.9643906239186215,walk
10/07/2020, 15:07:44,-9.303294,-5.367101,3.266203,3.229839,1.1222012,1.7083346,11.226091902428864,3.8222510454384584,walk
10/07/2020, 15:07:44,-9.032906,-5.1086764,3.2757742,3.229839,1.1222012,1.7083346,10.882217373755674,3.8222510454384584,walk
10/07/2020, 15:07:44,-9.032906,-5.1086764,3.2757742,3.1370347,1.0599245,1.4885345,10.882217373755674,3.630449165734838,walk
10/07/2020, 15:07:44,-8.815159,-4.871787,3.2398818,3.1370347,1.0599245,1.4885345,10.58008357677888,3.630449165734838,walk
10/07/2020, 15:07:44,-8.815159,-4.871787,3.2398818,3.010039,0.97933114,1.2785034,10.58008357677888,3.4137949254778763,walk
10/07/2020, 15:07:44,-8.645268,-4.627719,3.1537402,3.010039,0.97933114,1.2785034,10.300608035547171,3.4137949254778763,walk
10/07/2020, 15:07:44,-8.645268,-4.627719,3.1537402,2.845189,0.8914111,1.0696933,10.300608035547171,3.1676424344267233,walk
10/07/2020, 15:07:44,-8.4705925,-4.3262234,3.0317063,2.845189,0.8914111,1.0696933,9.98290485017095,3.1676424344267233,walk
10/07/2020, 15:07:44,-8.4705925,-4.3262234,3.0317063,2.6534746,0.78395337,0.8755367,9.98290485017095,2.9020810899566967,walk
10/07/2020, 15:07:44,-8.353344,-4.0534415,2.9216363,2.6534746,0.78395337,0.8755367,9.733689048245582,2.9020810899566967,walk
10/07/2020, 15:07:44,-8.353344,-4.0534415,2.9216363,2.43978,0.6667267,0.6801589,9.733689048245582,2.6190966160041356,walk
10/07/2020, 15:07:44,-8.252846,-3.8356948,2.8354948,2.43978,0.6667267,0.6801589,9.532158635033504,2.6190966160041356,walk
10/07/2020, 15:07:44,-8.252846,-3.8356948,2.8354948,2.2529502,0.54950005,0.5006556,9.532158635033504,2.3724229997170654,walk
10/07/2020, 15:07:44,-8.17149,-3.696911,2.7445676,2.2529502,0.54950005,0.5006556,9.379394826856315,2.3724229997170654,walk
10/07/2020, 15:07:44,-8.17149,-3.696911,2.7445676,2.1015322,0.4383789,0.33214223,9.379394826856315,2.1723103367050465,walk
10/07/2020, 15:07:44,-8.087741,-3.6083765,2.7397819,2.1015322,0.4383789,0.33214223,9.270293331069217,2.1723103367050465,walk
10/07/2020, 15:07:44,-8.087741,-3.6083765,2.7397819,1.976979,0.3309211,0.16362889,9.270293331069217,2.011151220579241,walk
10/07/2020, 15:07:45,-7.4847493,-3.4743786,3.345166,0.97078335,0.7900589,0.13310112,8.904095364017056,1.2587014376273777,walk
10/07/2020, 15:07:45,-7.4847493,-3.4743786,3.345166,0.94391894,0.7534256,0.20392556,8.904095364017056,1.2248341682335062,walk
10/07/2020, 15:07:45,-7.6067834,-3.481557,3.3236306,0.94391894,0.7534256,0.20392556,9.001717175792889,1.2248341682335062,walk
10/07/2020, 15:07:45,-7.6067834,-3.481557,3.3236306,0.92071784,0.7216767,0.26620224,9.001717175792889,1.1997509056031086,walk
10/07/2020, 15:07:45,-7.692925,-3.522235,3.290131,0.92071784,0.7216767,0.26620224,9.078116330113717,1.1997509056031086,walk
10/07/2020, 15:07:45,-7.692925,-3.522235,3.290131,0.90362227,0.69114894,0.3174889,9.078116330113717,1.1811093370772865,walk
10/07/2020, 15:07:45,-7.795816,-3.5437703,3.2925239,0.90362227,0.69114894,0.3174889,9.174626294905027,1.1811093370772865,walk
10/07/2020, 15:07:45,-7.795816,-3.5437703,3.2925239,0.88286334,0.64841,0.37732336,9.174626294905027,1.1585577915645644,walk
10/07/2020, 15:07:45,-7.82453,-3.6083765,3.3355947,0.88286334,0.64841,0.37732336,9.2395803127341,1.1585577915645644,walk
10/07/2020, 15:07:45,-7.82453,-3.6083765,3.3355947,0.85966223,0.6105556,0.42372558,9.2395803127341,1.136371703493417,walk
10/07/2020, 15:07:45,-7.8077803,-3.6011982,3.35713,0.85966223,0.6105556,0.42372558,9.230405370622472,1.136371703493417,walk
10/07/2020, 15:07:45,-7.8077803,-3.6011982,3.35713,0.82913446,0.5885756,0.45425335,9.230405370622472,1.1136567248069942,walk
10/07/2020, 15:07:45,-7.759924,-3.6394832,3.3786657,0.82913446,0.5885756,0.45425335,9.21290612956707,1.1136567248069942,walk
10/07/2020, 15:07:45,-7.759924,-3.6394832,3.3786657,0.80593336,0.5690378,0.4908867,9.21290612956707,1.1019538682137637,walk
10/07/2020, 15:07:45,-7.7503524,-3.6466618,3.35713,0.80593336,0.5690378,0.4908867,9.199805770383673,1.1019538682137637,walk
10/07/2020, 15:07:45,-7.7503524,-3.6466618,3.35713,0.78273225,0.5568267,0.52019334,9.199805770383673,1.0923950144514318,walk
10/07/2020, 15:07:45,-7.798209,-3.656233,3.2973096,0.78273225,0.5568267,0.52019334,9.222383515030339,1.0923950144514318,walk
10/07/2020, 15:07:45,-7.798209,-3.656233,3.2973096,0.7619734,0.5470578,0.5507211,9.222383515030339,1.0877359136790714,walk
10/07/2020, 15:07:45,-7.9034934,-3.6801612,3.2638102,0.7619734,0.5470578,0.5507211,9.30920251551145,1.0877359136790714,walk
10/07/2020, 15:07:45,-7.9034934,-3.6801612,3.2638102,0.73999333,0.5336256,0.5800278,9.30920251551145,1.0811006837551973,walk
10/07/2020, 15:07:46,-9.812965,-3.9888353,2.2779672,-0.48600224,0.3944189,1.5666857,10.834861871025966,1.68708874932384,walk
10/07/2020, 15:07:46,-9.812965,-3.9888353,2.2779672,-0.42250445,0.3809867,1.5337156,10.834861871025966,1.6358314191874608,walk
10/07/2020, 15:07:46,-9.757931,-3.9768713,2.4215364,-0.42250445,0.3809867,1.5337156,10.811871084335825,1.6358314191874608,walk
10/07/2020, 15:07:46,-9.757931,-3.9768713,2.4215364,-0.3712178,0.37610224,1.4934189,10.811871084335825,1.584157708696619,walk
10/07/2020, 15:07:46,-9.688539,-3.8548372,2.5292134,-0.3712178,0.37610224,1.4934189,10.729607145908403,1.584157708696619,walk
10/07/2020, 15:07:46,-9.688539,-3.8548372,2.5292134,-0.34069002,0.37366003,1.4421322,10.729607145908403,1.5282136257791072,walk
10/07/2020, 15:07:46,-9.650253,-3.6323047,2.5411777,-0.34069002,0.37366003,1.4421322,10.619727408672293,1.5282136257791072,walk
10/07/2020, 15:07:46,-9.650253,-3.6323047,2.5411777,-0.3370267,0.36633334,1.3871822,10.619727408672293,1.4737915913092328,walk
10/07/2020, 15:07:46,-9.549755,-3.4217365,2.5339992,-0.3370267,0.36633334,1.3871822,10.455967430198854,1.4737915913092328,walk
10/07/2020, 15:07:46,-9.549755,-3.4217365,2.5339992,-0.34435335,0.35412225,1.339559,10.455967430198854,1.42772546443392,walk
10/07/2020, 15:07:46,-9.363115,-3.2327034,2.5674987,-0.34435335,0.35412225,1.339559,10.23280750289572,1.42772546443392,walk
10/07/2020, 15:07:46,-9.363115,-3.2327034,2.5674987,-0.3492378,0.33336335,1.3017045,10.23280750289572,1.388356164498301,walk
10/07/2020, 15:07:46,-9.162118,-3.022135,2.696711,-0.3492378,0.33336335,1.3017045,10.017482523660549,1.388356164498301,walk
10/07/2020, 15:07:46,-9.162118,-3.022135,2.696711,-0.34557447,0.31871,1.2650712,10.017482523660549,1.349593568684467,walk
10/07/2020, 15:07:46,-8.898908,-2.845066,2.833102,-0.34557447,0.31871,1.2650712,9.762757058645278,1.349593568684467,walk
10/07/2020, 15:07:46,-8.898908,-2.845066,2.833102,-0.34801668,0.3174889,1.21989,9.762757058645278,1.307687433806927,walk
10/07/2020, 15:07:46,-8.678768,-2.6703901,2.9647074,-0.34801668,0.3174889,1.21989,9.552041143022088,1.307687433806927,walk
10/07/2020, 15:07:46,-8.678768,-2.6703901,2.9647074,-0.3712178,0.31260446,1.1795933,9.552041143022088,1.2755252266386845,walk
10/07/2020, 15:07:46,-8.523234,-2.4789643,3.07717,-0.3712178,0.31260446,1.1795933,9.39466672044169,1.2755252266386845,walk
10/07/2020, 15:07:46,-8.523234,-2.4789643,3.07717,-0.4249467,0.2942878,1.1405178,9.39466672044169,1.2521844617505755,walk
10/07/2020, 15:07:47,-6.235696,-3.4528432,1.3256238,-0.48356003,-0.06227667,0.14287001,7.2500556558890565,0.5080556282396067,walk
10/07/2020, 15:07:47,-6.209375,-3.4719856,1.4404793,-0.48356003,-0.06227667,0.14287001,7.258512321118089,0.5080556282396067,walk
10/07/2020, 15:07:47,-6.209375,-3.4719856,1.4404793,-0.37854445,-0.014653334,0.35900667,7.258512321118089,0.5219160967210809,walk
10/07/2020, 15:07:47,-6.2404814,-3.5581272,1.5146568,-0.37854445,-0.014653334,0.35900667,7.341529942810354,0.5219160967210809,walk
10/07/2020, 15:07:47,-6.2404814,-3.5581272,1.5146568,-0.2759711,0.028085556,0.5800278,7.341529942810354,0.642947217899541,walk
10/07/2020, 15:07:47,-6.3696938,-3.644269,1.6606189,-0.2759711,0.028085556,0.5800278,7.524051445201079,0.642947217899541,walk
10/07/2020, 15:07:47,-6.3696938,-3.644269,1.6606189,-0.16607112,0.064718895,0.7998278,7.524051445201079,0.8194465714212326,walk
10/07/2020, 15:07:47,-6.6352973,-3.802195,1.7994026,-0.16607112,0.064718895,0.7998278,7.856316395281435,0.8194465714212326,walk
10/07/2020, 15:07:47,-6.6352973,-3.802195,1.7994026,-0.036633335,0.09768889,1.0257334,7.856316395281435,1.03102571716992,walk
10/07/2020, 15:07:47,-6.9966135,-3.9840498,1.9645073,-0.036633335,0.09768889,1.0257334,8.28761379307659,1.03102571716992,walk
10/07/2020, 15:07:47,-6.9966135,-3.9840498,1.9645073,0.10013112,0.117226675,1.2589656,8.28761379307659,1.2683701134739256,walk
10/07/2020, 15:07:47,-7.4656067,-4.1228333,2.0817556,0.10013112,0.117226675,1.2589656,8.778766644687208,1.2683701134739256,walk
10/07/2020, 15:07:47,-7.4656067,-4.1228333,2.0817556,0.20881,0.1306589,1.4934189,8.778766644687208,1.5135962043746076,walk
10/07/2020, 15:07:47,-7.984849,-4.180261,2.1511476,0.20881,0.1306589,1.4934189,9.266058080083077,1.5135962043746076,walk
10/07/2020, 15:07:47,-7.984849,-4.180261,2.1511476,0.26986557,0.14287001,1.7327567,9.266058080083077,1.7594559288335203,walk
10/07/2020, 15:07:47,-8.427522,-4.1491547,2.1080768,0.26986557,0.14287001,1.7327567,9.627179979486062,1.7594559288335203,walk
10/07/2020, 15:07:47,-8.427522,-4.1491547,2.1080768,0.25887558,0.15386,1.9952956,9.627179979486062,2.0178934986411727,walk
10/07/2020, 15:07:47,-8.891729,-4.1515474,2.0338993,0.25887558,0.15386,1.9952956,10.021723573905954,2.0178934986411727,walk
10/07/2020, 15:07:47,-8.891729,-4.1515474,2.0338993,0.18438779,0.16362889,2.2761512,10.021723573905954,2.2894622656569465,walk
10/07/2020, 15:07:47,-9.38465,-4.139583,1.9310079,0.18438779,0.16362889,2.2761512,10.43726974078216,2.2894622656569465,walk
10/07/2020, 15:07:48,-10.109675,-3.6681972,3.4600215,0.65940005,-0.34435335,-1.8951645,11.297475645588051,2.0359361709003934,walk
10/07/2020, 15:07:48,-10.109675,-3.6681972,3.4600215,0.57636446,-0.37732336,-2.141829,11.297475645588051,2.2498889816810226,walk
10/07/2020, 15:07:48,-9.200403,-3.4217365,3.1896327,0.57636446,-0.37732336,-2.141829,10.32131078352276,2.2498889816810226,walk
10/07/2020, 15:07:48,-9.200403,-3.4217365,3.1896327,0.53851,-0.37488112,-2.3933778,10.32131078352276,2.481690170377302,walk
10/07/2020, 15:07:48,-8.449057,-3.237489,2.928815,0.53851,-0.37488112,-2.3933778,9.510302278855992,2.481690170377302,walk
10/07/2020, 15:07:48,-8.449057,-3.237489,2.928815,0.55438447,-0.34069002,-2.62661,9.510302278855992,2.706010372077837,walk
10/07/2020, 15:07:48,-7.879565,-3.0819557,2.7445676,0.55438447,-0.34069002,-2.62661,8.894866108639446,2.706010372077837,walk
10/07/2020, 15:07:48,-7.879565,-3.0819557,2.7445676,0.6227667,-0.28940335,-2.8549578,8.894866108639446,2.9363883899089878,walk
10/07/2020, 15:07:48,-7.52782,-2.9359934,2.5722845,0.6227667,-0.28940335,-2.8549578,8.479668648919676,2.9363883899089878,walk
10/07/2020, 15:07:48,-7.52782,-2.9359934,2.5722845,0.71801335,-0.21735778,-3.06621,8.479668648919676,3.1566487814025614,walk
10/07/2020, 15:07:48,-7.355537,-2.7948167,2.3904297,0.71801335,-0.21735778,-3.06621,8.22369007980359,3.1566487814025614,walk
10/07/2020, 15:07:48,-7.355537,-2.7948167,2.3904297,0.81081784,-0.13676445,-3.2261758,8.22369007980359,3.329315286569872,walk
10/07/2020, 15:07:48,-7.322037,-2.7086751,2.2061825,0.81081784,-0.13676445,-3.2261758,8.11273019597182,3.329315286569872,walk
10/07/2020, 15:07:48,-7.322037,-2.7086751,2.2061825,0.9060645,-0.06105556,-3.3372967,8.11273019597182,3.4586457038018428,walk
10/07/2020, 15:07:48,-7.463214,-2.7206392,2.053042,0.9060645,-0.06105556,-3.3372967,8.204658495310387,3.4586457038018428,walk
10/07/2020, 15:07:48,-7.463214,-2.7206392,2.053042,0.9866578,0.0061055557,-3.4203324,8.204658495310387,3.5598040441453644,walk
10/07/2020, 15:07:48,-7.8317084,-2.8187451,1.9046868,0.9866578,0.0061055557,-3.4203324,8.53866575841997,3.5598040441453644,walk
10/07/2020, 15:07:48,-7.8317084,-2.8187451,1.9046868,1.0745778,0.037854444,-3.4459758,8.53866575841997,3.6098337226131103,walk
10/07/2020, 15:07:48,-8.319844,-3.0819557,1.9310079,1.0745778,0.037854444,-3.4459758,9.080035814884898,3.6098337226131103,walk
10/07/2020, 15:07:48,-8.319844,-3.0819557,1.9310079,1.1966889,0.08792,-3.4618502,9.080035814884898,3.6639051299758054,walk
10/07/2020, 15:07:49,-8.477771,-4.8885365,3.2135608,0.93537116,0.43471557,-0.5507211,10.300357257122458,1.1692692477180815,walk
10/07/2020, 15:07:49,-8.477771,-4.8885365,3.2135608,1.0574822,0.46158,-0.6032289,10.300357257122458,1.302002279326618,walk
10/07/2020, 15:07:49,-8.841479,-5.13739,3.2279177,1.0574822,0.46158,-0.6032289,10.723058619019998,1.302002279326618,walk
10/07/2020, 15:07:49,-8.841479,-5.13739,3.2279177,1.2259957,0.5030978,-0.6679478,10.723058619019998,1.4840239312992973,walk
10/07/2020, 15:07:49,-9.274581,-5.393422,3.3044882,1.2259957,0.5030978,-0.6679478,11.226152336539068,1.4840239312992973,walk
10/07/2020, 15:07:49,-9.274581,-5.393422,3.3044882,1.4445745,0.55438447,-0.72534,11.226152336539068,1.7088755611480284,walk
10/07/2020, 15:07:49,-9.839287,-5.6614184,3.4241292,1.4445745,0.55438447,-0.72534,11.856976201783263,1.7088755611480284,walk
10/07/2020, 15:07:49,-9.839287,-5.6614184,3.4241292,1.6900178,0.59834445,-0.7815111,11.856976201783263,1.9557443463164412,walk
10/07/2020, 15:07:49,-10.454242,-5.9030933,3.522235,1.6900178,0.59834445,-0.7815111,12.511747295559347,1.9557443463164412,walk
10/07/2020, 15:07:49,-10.454242,-5.9030933,3.522235,1.9342401,0.63009334,-0.83768225,12.511747295559347,2.2000031669455082,walk
10/07/2020, 15:07:49,-11.0811615,-6.108876,3.5772698,1.9342401,0.63009334,-0.83768225,13.149424630350357,2.2000031669455082,walk
10/07/2020, 15:07:49,-11.0811615,-6.108876,3.5772698,2.1723568,0.65451556,-0.8999589,13.149424630350357,2.440788995107611,walk
10/07/2020, 15:07:49,-11.827723,-6.3361945,3.656233,2.1723568,0.65451556,-0.8999589,13.907207552925382,2.440788995107611,walk
10/07/2020, 15:07:49,-11.827723,-6.3361945,3.656233,2.4178002,0.67161113,-0.97811,13.907207552925382,2.693235686284219,walk
10/07/2020, 15:07:49,-12.784851,-6.6568327,3.8165522,2.4178002,0.67161113,-0.97811,14.910798400013276,2.693235686284219,walk
10/07/2020, 15:07:49,-12.784851,-6.6568327,3.8165522,2.6901078,0.66306335,-1.0464922,14.910798400013276,2.9616682905396865,walk
10/07/2020, 15:07:49,-13.818551,-6.9559355,3.9625144,2.6901078,0.66306335,-1.0464922,15.969937765897885,2.9616682905396865,walk
10/07/2020, 15:07:49,-13.818551,-6.9559355,3.9625144,2.953868,0.60445005,-1.1087689,15.969937765897885,3.212485652085534,walk
10/07/2020, 15:07:49,-14.713467,-7.0899334,4.031906,2.953868,0.60445005,-1.1087689,16.822886888640497,3.212485652085534,walk
10/07/2020, 15:07:49,-14.713467,-7.0899334,4.031906,3.1504667,0.4933289,-1.16494,16.822886888640497,3.3949814300616166,walk
10/07/2020, 15:07:50,-7.91785,-3.2063823,2.7996025,0.6520734,0.50676113,-1.4555645,8.98949444614525,1.673521602582541,walk
10/07/2020, 15:07:50,-7.850851,-3.3403804,2.737389,0.6520734,0.50676113,-1.4555645,8.960318230169786,1.673521602582541,walk
10/07/2020, 15:07:50,-7.850851,-3.3403804,2.737389,0.60445005,0.45181113,-1.2345434,8.960318230169786,1.4469245567267597,walk
10/07/2020, 15:07:50,-7.7383885,-3.3954153,2.6321049,0.60445005,0.45181113,-1.2345434,8.850959176123224,1.4469245567267597,walk
10/07/2020, 15:07:50,-7.7383885,-3.3954153,2.6321049,0.56171113,0.3931978,-1.0147433,8.850959176123224,1.2246746228810834,walk
10/07/2020, 15:07:50,-7.62114,-3.4169507,2.5316064,0.56171113,0.3931978,-1.0147433,8.727333968547375,1.2246746228810834,walk
10/07/2020, 15:07:50,-7.62114,-3.4169507,2.5316064,0.51164556,0.33458444,-0.8071545,8.727333968547375,1.0125345793104779,walk
10/07/2020, 15:07:50,-7.4823565,-3.4289148,2.4143581,0.51164556,0.33458444,-0.8071545,8.577426265786238,1.0125345793104779,walk
10/07/2020, 15:07:50,-7.4823565,-3.4289148,2.4143581,0.46524334,0.27475002,-0.6203245,8.577426265786238,0.822642946031926,walk
10/07/2020, 15:07:50,-7.30768,-3.3619158,2.2707887,0.46524334,0.27475002,-0.6203245,8.358298157571348,0.822642946031926,walk
10/07/2020, 15:07:50,-7.30768,-3.3619158,2.2707887,0.42861003,0.22590557,-0.4383789,8.358298157571348,0.6533880475716642,walk
10/07/2020, 15:07:50,-7.140183,-3.2685957,2.115255,0.42861003,0.22590557,-0.4383789,8.132664686642096,0.6533880475716642,walk
10/07/2020, 15:07:50,-7.140183,-3.2685957,2.115255,0.39197668,0.18072446,-0.2613178,8.132664686642096,0.5045731240579596,walk
10/07/2020, 15:07:50,-6.9678993,-3.1752756,1.9716859,0.39197668,0.18072446,-0.2613178,7.90705641258237,0.5045731240579596,walk
10/07/2020, 15:07:50,-6.9678993,-3.1752756,1.9716859,0.36389112,0.15019667,-0.10501556,7.90705641258237,0.4074359567198636,walk
10/07/2020, 15:07:50,-6.800402,-3.1130621,1.8041883,0.36389112,0.15019667,-0.10501556,7.693615583938667,0.4074359567198636,walk
10/07/2020, 15:07:50,-6.800402,-3.1130621,1.8041883,0.34557447,0.117226675,0.046402223,7.693615583938667,0.3678545539975668,walk
10/07/2020, 15:07:50,-6.666404,-3.0125637,1.6366907,0.34557447,0.117226675,0.046402223,7.496348169255252,0.3678545539975668,walk
10/07/2020, 15:07:50,-6.666404,-3.0125637,1.6366907,0.32481557,0.09524667,0.1856089,7.496348169255252,0.3860411188034265,walk
10/07/2020, 15:07:50,-6.556334,-2.9647074,1.4955142,0.32481557,0.09524667,0.1856089,7.349256300321646,0.3860411188034265,walk
10/07/2020, 15:07:51,-8.965906,-5.4628143,3.17049,-0.44326335,0.11844778,-2.2663822,10.967306888749508,2.3123582402525473,walk
10/07/2020, 15:07:51,-9.518648,-5.4891353,3.2566316,-0.44326335,0.11844778,-2.2663822,11.46040653642537,2.3123582402525473,walk
10/07/2020, 15:07:51,-9.518648,-5.4891353,3.2566316,-0.31993112,0.12577444,-2.3799458,11.46040653642537,2.404644865391832,walk
10/07/2020, 15:07:51,-10.155139,-5.4891353,3.37388,-0.31993112,0.12577444,-2.3799458,12.026658683666264,2.404644865391832,walk
10/07/2020, 15:07:51,-10.155139,-5.4891353,3.37388,-0.21003112,0.13188,-2.5008357,12.026658683666264,2.5131025427902567,walk
10/07/2020, 15:07:51,-10.810773,-5.4341,3.4743786,-0.21003112,0.13188,-2.5008357,12.588628265787728,2.5131025427902567,walk
10/07/2020, 15:07:51,-10.810773,-5.4341,3.4743786,-0.11600556,0.11844778,-2.6192834,12.588628265787728,2.624525270284901,walk
10/07/2020, 15:07:51,-11.332408,-5.355137,3.5198421,-0.11600556,0.11844778,-2.6192834,13.018842100291277,2.624525270284901,walk
10/07/2020, 15:07:51,-11.332408,-5.355137,3.5198421,-0.04396,0.098910004,-2.7413945,13.018842100291277,2.7435304962419305,walk
10/07/2020, 15:07:51,-11.700903,-5.206782,3.5365918,-0.04396,0.098910004,-2.7413945,13.286428726357894,2.7435304962419305,walk
10/07/2020, 15:07:51,-11.700903,-5.206782,3.5365918,-0.0036633336,0.07693,-2.865948,13.286428726357894,2.8669826237548457,walk
10/07/2020, 15:07:51,-11.91865,-4.9842496,3.5198421,-0.0036633336,0.07693,-2.865948,13.389781281931597,2.8669826237548457,walk
10/07/2020, 15:07:51,-11.91865,-4.9842496,3.5198421,-0.0012211112,0.06227667,-2.9941645,13.389781281931597,2.9948123028312827,walk
10/07/2020, 15:07:51,-11.935399,-4.6875396,3.5581272,-0.0012211112,0.06227667,-2.9941645,13.307405713557888,2.9948123028312827,walk
10/07/2020, 15:07:51,-11.935399,-4.6875396,3.5581272,-0.04029667,0.057392225,-3.1358135,13.307405713557888,3.136597493606471,walk
10/07/2020, 15:07:51,-11.949757,-4.4578285,3.5676985,-0.04029667,0.057392225,-3.1358135,13.243768002218765,3.136597493606471,walk
10/07/2020, 15:07:51,-11.949757,-4.4578285,3.5676985,-0.08669889,0.06349778,-3.2664723,13.243768002218765,3.2682396196327406,walk
10/07/2020, 15:07:51,-11.959328,-4.287938,3.5389848,-0.08669889,0.06349778,-3.2664723,13.188492921005965,3.2682396196327406,walk
10/07/2020, 15:07:51,-11.959328,-4.287938,3.5389848,-0.1306589,0.07448778,-3.39591,13.188492921005965,3.399238895999121,walk
10/07/2020, 15:07:51,-11.959328,-4.182654,3.5150564,-0.1306589,0.07448778,-3.39591,13.148221703285042,3.399238895999121,walk
10/07/2020, 15:07:52,-8.721839,-4.536792,2.78046,-0.07570889,-0.59834445,-1.0013112,10.216844507368258,1.1689191572053905,walk
10/07/2020, 15:07:52,-8.937193,-4.54397,2.78046,-0.07570889,-0.59834445,-1.0013112,10.404423997749353,1.1689191572053905,walk
10/07/2020, 15:07:52,-8.937193,-4.54397,2.78046,-0.13188,-0.64841,-1.07702,10.404423997749353,1.2640411692584061,walk
10/07/2020, 15:07:52,-9.150154,-4.5415773,2.725425,-0.13188,-0.64841,-1.07702,10.57256763946553,1.2640411692584061,walk
10/07/2020, 15:07:52,-9.150154,-4.5415773,2.725425,-0.19293556,-0.6874856,-1.1539501,10.57256763946553,1.357004557013988,walk
10/07/2020, 15:07:52,-9.312865,-4.54397,2.7038896,-0.19293556,-0.6874856,-1.1539501,10.709255000089998,1.357004557013988,walk
10/07/2020, 15:07:52,-9.312865,-4.54397,2.7038896,-0.24178001,-0.70336,-1.2430911,10.709255000089998,1.44860222033564,walk
10/07/2020, 15:07:52,-9.454042,-4.584648,2.7038896,-0.24178001,-0.70336,-1.2430911,10.849374906809643,1.44860222033564,walk
10/07/2020, 15:07:52,-9.454042,-4.584648,2.7038896,-0.26864445,-0.70946556,-1.3468856,10.849374906809643,1.5458369720370941,walk
10/07/2020, 15:07:52,-9.710074,-4.615755,2.725425,-0.26864445,-0.70946556,-1.3468856,11.091378713267623,1.5458369720370941,walk
10/07/2020, 15:07:52,-9.710074,-4.615755,2.725425,-0.27841336,-0.7082445,-1.4653333,11.091378713267623,1.6511590100947422,walk
10/07/2020, 15:07:52,-9.970892,-4.6085763,2.725425,-0.27841336,-0.7082445,-1.4653333,11.31749103285057,1.6511590100947422,walk
10/07/2020, 15:07:52,-9.970892,-4.6085763,2.725425,-0.2845189,-0.7119078,-1.5691278,11.31749103285057,1.7464036678775121,walk
10/07/2020, 15:07:52,-10.224531,-4.575077,2.6512475,-0.2845189,-0.7119078,-1.5691278,11.510928768438209,1.7464036678775121,walk
10/07/2020, 15:07:52,-10.224531,-4.575077,2.6512475,-0.2955089,-0.70946556,-1.6655957,11.510928768438209,1.8343597689408258,walk
10/07/2020, 15:07:52,-10.372886,-4.4817567,2.5722845,-0.2955089,-0.70946556,-1.6655957,11.588768190603192,1.8343597689408258,walk
10/07/2020, 15:07:52,-10.372886,-4.4817567,2.5722845,-0.32970002,-0.70946556,-1.7754956,11.588768190603192,1.9402134645598874,walk
10/07/2020, 15:07:52,-10.466207,-4.3501515,2.4717858,-0.32970002,-0.70946556,-1.7754956,11.600647522081207,1.9402134645598874,walk
10/07/2020, 15:07:52,-10.466207,-4.3501515,2.4717858,-0.3724389,-0.7021389,-1.8902801,11.600647522081207,2.0505776591938245,walk
10/07/2020, 15:07:52,-10.514063,-4.2257247,2.3856442,-0.3724389,-0.7021389,-1.8902801,11.579877621468379,2.0505776591938245,walk
10/07/2020, 15:07:53,-8.190632,-4.4195433,2.6344976,-0.09646778,-0.15141778,0.24178001,9.672610344828495,0.3011493815283704,walk
10/07/2020, 15:07:53,-8.190632,-4.4195433,2.6344976,-0.10501556,-0.16607112,0.16851334,9.672610344828495,0.25885252675254733,walk
10/07/2020, 15:07:53,-8.1738825,-4.402794,2.603391,-0.10501556,-0.16607112,0.16851334,9.642333389903756,0.25885252675254733,walk
10/07/2020, 15:07:53,-8.1738825,-4.402794,2.603391,-0.12089001,-0.17339778,0.09646778,9.642333389903756,0.23235149189369522,walk
10/07/2020, 15:07:53,-8.140383,-4.3932223,2.5794628,-0.12089001,-0.17339778,0.09646778,9.603117317396524,0.23235149189369522,walk
10/07/2020, 15:07:53,-8.140383,-4.3932223,2.5794628,-0.13798556,-0.17950334,0.029306669,9.603117317396524,0.22829880134573674,walk
10/07/2020, 15:07:53,-8.097312,-4.3932223,2.565106,-0.13798556,-0.17950334,0.029306669,9.562773238515268,0.22829880134573674,walk
10/07/2020, 15:07:53,-8.097312,-4.3932223,2.565106,-0.15996556,-0.19171445,-0.04029667,9.562773238515268,0.2529174421936382,walk
10/07/2020, 15:07:53,-8.078169,-4.371687,2.548356,-0.15996556,-0.19171445,-0.04029667,9.532186398040265,0.2529174421936382,walk
10/07/2020, 15:07:53,-8.078169,-4.371687,2.548356,-0.17828223,-0.20392556,-0.102573335,9.532186398040265,0.28964025794954024,walk
10/07/2020, 15:07:53,-8.068598,-4.3812585,2.5339992,-0.17828223,-0.20392556,-0.102573335,9.524644258957874,0.28964025794954024,walk
10/07/2020, 15:07:53,-8.068598,-4.3812585,2.5339992,-0.19293556,-0.2075889,-0.16607112,9.524644258957874,0.3284766270518949,walk
10/07/2020, 15:07:53,-8.059027,-4.359723,2.5292134,-0.19293556,-0.2075889,-0.16607112,9.505367833065307,0.3284766270518949,walk
10/07/2020, 15:07:53,-8.059027,-4.359723,2.5292134,-0.20270446,-0.20514667,-0.23567446,9.505367833065307,0.37244691342953795,walk
10/07/2020, 15:07:53,-8.037491,-4.3836513,2.5124638,-0.20270446,-0.20514667,-0.23567446,9.493689051418547,0.37244691342953795,walk
10/07/2020, 15:07:53,-8.037491,-4.3836513,2.5124638,-0.1965989,-0.19415668,-0.30405667,9.493689051418547,0.410850830102314,walk
10/07/2020, 15:07:53,-8.025527,-4.4243293,2.4861426,-0.1965989,-0.19415668,-0.30405667,9.495508328851322,0.410850830102314,walk
10/07/2020, 15:07:53,-8.025527,-4.4243293,2.4861426,-0.17584,-0.17706113,-0.3712178,9.495508328851322,0.4472951992257426,walk
10/07/2020, 15:07:53,-8.073383,-4.4721856,2.4717858,-0.17584,-0.17706113,-0.3712178,9.554563701218841,0.4472951992257426,walk
10/07/2020, 15:07:53,-8.073383,-4.4721856,2.4717858,-0.13920668,-0.16485001,-0.4383789,9.554563701218841,0.48860012854011875,walk
10/07/2020, 15:07:54,-9.147761,-4.347759,2.4622145,-0.18194556,-0.08792,2.273709,10.423389278026244,2.2826710228200007,walk
10/07/2020, 15:07:54,-9.243474,-4.3262234,2.4526432,-0.18194556,-0.08792,2.273709,10.496355502709461,2.2826710228200007,walk
10/07/2020, 15:07:54,-9.243474,-4.3262234,2.4526432,-0.1526389,-0.08425667,2.2981312,10.496355502709461,2.3047353337029577,walk
10/07/2020, 15:07:54,-9.377472,-4.3740797,2.4598217,-0.1526389,-0.08425667,2.2981312,10.635801603197352,2.3047353337029577,walk
10/07/2020, 15:07:54,-9.377472,-4.3740797,2.4598217,-0.11844778,-0.07693,2.317669,10.635801603197352,2.3219684107347214,walk
10/07/2020, 15:07:54,-9.504292,-4.409972,2.4717858,-0.11844778,-0.07693,2.317669,10.765181710323708,2.3219684107347214,walk
10/07/2020, 15:07:54,-9.504292,-4.409972,2.4717858,-0.09280445,-0.06716111,2.328659,10.765181710323708,2.3314751311292308,walk
10/07/2020, 15:07:54,-9.65504,-4.4315076,2.5435705,-0.09280445,-0.06716111,2.328659,10.923726643148203,2.3314751311292308,walk
10/07/2020, 15:07:54,-9.65504,-4.4315076,2.5435705,-0.070824444,-0.06227667,2.3274379,10.923726643148203,2.329347882935378,walk
10/07/2020, 15:07:54,-9.851251,-4.4554358,2.5746772,-0.070824444,-0.06227667,2.3274379,11.114270552791192,2.329347882935378,walk
10/07/2020, 15:07:54,-9.851251,-4.4554358,2.5746772,-0.054950003,-0.06105556,2.3274379,11.114270552791192,2.3288869355322914,walk
10/07/2020, 15:07:54,-10.030712,-4.5152564,2.6153553,-0.054950003,-0.06105556,2.3274379,11.306759451355699,2.3288869355322914,walk
10/07/2020, 15:07:54,-10.030712,-4.5152564,2.6153553,-0.045181114,-0.06960334,2.3079002,11.306759451355699,2.3093915316579237,walk
10/07/2020, 15:07:54,-10.195817,-4.5726843,2.6153553,-0.045181114,-0.06960334,2.3079002,11.476245416850745,2.3093915316579237,walk
10/07/2020, 15:07:54,-10.195817,-4.5726843,2.6153553,-0.046402223,-0.078151114,2.2798145,11.476245416850745,2.2816254806893452,walk
10/07/2020, 15:07:54,-10.298709,-4.6061835,2.6249263,-0.046402223,-0.078151114,2.2798145,11.583202072973277,2.2816254806893452,walk
10/07/2020, 15:07:54,-10.298709,-4.6061835,2.6249263,-0.05372889,-0.08303556,2.2382967,11.583202072973277,2.2404807578095878,walk
10/07/2020, 15:07:54,-10.320244,-4.5942197,2.6129622,-0.05372889,-0.08303556,2.2382967,11.594906598684409,2.2404807578095878,walk
10/07/2020, 15:07:54,-10.320244,-4.5942197,2.6129622,-0.078151114,-0.08425667,2.1894524,11.594906598684409,2.192466336769881,walk
10/07/2020, 15:07:54,-10.305887,-4.5918264,2.6344976,-0.078151114,-0.08425667,2.1894524,11.586058834306222,2.192466336769881,walk
10/07/2020, 15:07:55,-8.807981,-3.6729827,2.8426733,0.5030978,0.20392556,0.41395667,9.957515478705663,0.6826808412879555,walk
10/07/2020, 15:07:55,-8.807981,-3.6729827,2.8426733,0.47257003,0.1856089,0.36267,9.957515478705663,0.6239412059610338,walk
10/07/2020, 15:07:55,-8.817552,-3.696911,2.8953154,0.47257003,0.1856089,0.36267,9.989955926689674,0.6239412059610338,walk
10/07/2020, 15:07:55,-8.817552,-3.696911,2.8953154,0.42250445,0.15996556,0.3174889,9.989955926689674,0.5521758794936287,walk
10/07/2020, 15:07:55,-8.834301,-3.67059,2.9359934,0.42250445,0.15996556,0.3174889,10.006905710346167,0.5521758794936287,walk
10/07/2020, 15:07:55,-8.834301,-3.67059,2.9359934,0.36999667,0.12943779,0.26498112,10.006905710346167,0.4731455053375157,walk
10/07/2020, 15:07:55,-8.819944,-3.6251264,2.9096723,0.36999667,0.12943779,0.26498112,9.96991237163859,0.4731455053375157,walk
10/07/2020, 15:07:55,-8.819944,-3.6251264,2.9096723,0.31138334,0.102573335,0.2185789,9.96991237163859,0.39402742184619405,walk
10/07/2020, 15:07:55,-8.7984085,-3.6011982,2.8929226,0.31138334,0.102573335,0.2185789,9.937284444399916,0.39402742184619405,walk
10/07/2020, 15:07:55,-8.7984085,-3.6011982,2.8929226,0.24544334,0.08059334,0.16118668,9.937284444399916,0.30449772989695606,walk
10/07/2020, 15:07:55,-8.774481,-3.5796626,2.8666015,0.24544334,0.08059334,0.16118668,9.900651578572761,0.30449772989695606,walk
10/07/2020, 15:07:55,-8.774481,-3.5796626,2.8666015,0.18683001,0.06105556,0.11112112,9.900651578572761,0.22579003161010633,walk
10/07/2020, 15:07:55,-8.738588,-3.5437703,2.8307092,0.18683001,0.06105556,0.11112112,9.845514144598516,0.22579003161010633,walk
10/07/2020, 15:07:55,-8.738588,-3.5437703,2.8307092,0.1306589,0.04029667,0.05250778,9.845514144598516,0.1464671820365427,walk
10/07/2020, 15:07:55,-8.712267,-3.5198421,2.8187451,0.1306589,0.04029667,0.05250778,9.810107431060056,0.1464671820365427,walk
10/07/2020, 15:07:55,-8.712267,-3.5198421,2.8187451,0.09524667,0.028085556,-0.01099,9.810107431060056,0.09990749323026975,walk
10/07/2020, 15:07:55,-8.669196,-3.4695928,2.804388,0.09524667,0.028085556,-0.01099,9.749750155741435,0.09990749323026975,walk
10/07/2020, 15:07:55,-8.669196,-3.4695928,2.804388,0.070824444,0.019537779,-0.06227667,9.749750155741435,0.09631308417696727,walk
10/07/2020, 15:07:55,-8.590233,-3.4528432,2.8163524,0.070824444,0.019537779,-0.06227667,9.677089807838028,0.09631308417696727,walk
10/07/2020, 15:07:55,-8.590233,-3.4528432,2.8163524,0.059834447,0.018316668,-0.11600556,9.677089807838028,0.1318064937706324,walk
10/07/2020, 15:07:56,-9.755538,-3.196811,3.2925239,0.098910004,-0.25887558,0.026864445,10.78104053905404,0.2784267452763391,walk
10/07/2020, 15:07:56,-9.755538,-3.196811,3.2925239,0.05617111,-0.30772,-0.023201112,10.78104053905404,0.3136639717490615,walk
10/07/2020, 15:07:56,-9.5760765,-3.0364919,3.2757742,0.05617111,-0.30772,-0.023201112,10.566561457513332,0.3136639717490615,walk
10/07/2020, 15:07:56,-9.5760765,-3.0364919,3.2757742,0.0061055557,-0.34069002,-0.085477784,10.566561457513332,0.35130245789878684,walk
10/07/2020, 15:07:56,-9.348758,-2.8689942,3.266203,0.0061055557,-0.34069002,-0.085477784,10.310115461867776,0.35130245789878684,walk
10/07/2020, 15:07:56,-9.348758,-2.8689942,3.266203,-0.06349778,-0.35778558,-0.15386,10.310115461867776,0.3946078962856059,walk
10/07/2020, 15:07:56,-9.126225,-2.7014968,3.2303107,-0.06349778,-0.35778558,-0.15386,10.05091954052278,0.3946078962856059,walk
10/07/2020, 15:07:56,-9.126225,-2.7014968,3.2303107,-0.14775445,-0.3724389,-0.22468445,10.05091954052278,0.45937481088288623,walk
10/07/2020, 15:07:56,-8.927621,-2.5220351,3.117848,-0.14775445,-0.3724389,-0.22468445,9.786932692146026,0.45937481088288623,walk
10/07/2020, 15:07:56,-8.927621,-2.5220351,3.117848,-0.25521225,-0.3809867,-0.2759711,9.786932692146026,0.5352048259087075,walk
10/07/2020, 15:07:56,-8.7673025,-2.3521447,3.0029924,-0.25521225,-0.3809867,-0.2759711,9.561178872699024,0.5352048259087075,walk
10/07/2020, 15:07:56,-8.7673025,-2.3521447,3.0029924,-0.3944189,-0.39686114,-0.31138334,9.561178872699024,0.6403316395329139,walk
10/07/2020, 15:07:56,-8.676374,-2.239682,2.8881369,-0.3944189,-0.39686114,-0.31138334,9.414721619111049,0.6403316395329139,walk
10/07/2020, 15:07:56,-8.676374,-2.239682,2.8881369,-0.5421733,-0.41151446,-0.3382478,9.414721619111049,0.760070815937253,walk
10/07/2020, 15:07:56,-8.606983,-2.251646,2.737389,-0.5421733,-0.41151446,-0.3382478,9.308241963919999,0.760070815937253,walk
10/07/2020, 15:07:56,-8.606983,-2.251646,2.737389,-0.66062117,-0.40663,-0.33458444,9.308241963919999,0.8448165721038674,walk
10/07/2020, 15:07:56,-8.492127,-2.3545375,2.5938199,-0.66062117,-0.40663,-0.33458444,9.1862928496154,0.8448165721038674,walk
10/07/2020, 15:07:56,-8.492127,-2.3545375,2.5938199,-0.76930004,-0.38831335,-0.3162678,9.1862928496154,0.9179515952426628,walk
10/07/2020, 15:07:56,-8.322237,-2.4454648,2.5220351,-0.76930004,-0.38831335,-0.3162678,9.033304401834704,0.9179515952426628,walk
10/07/2020, 15:07:56,-8.322237,-2.4454648,2.5220351,-0.8669889,-0.36877558,-0.26864445,9.033304401834704,0.9797117001640776,walk
10/07/2020, 15:07:57,-7.2909307,-2.981457,4.5655055,-0.30405667,0.2955089,0.27108666,9.10442735693075,0.5032533605205128,walk
10/07/2020, 15:07:57,-7.2909307,-2.981457,4.5655055,-0.25399113,0.32359445,0.21125223,9.10442735693075,0.4624417421472948,walk
10/07/2020, 15:07:57,-7.2287173,-3.0317063,4.5631127,-0.25399113,0.32359445,0.21125223,9.070148583405235,0.4624417421472948,walk
10/07/2020, 15:07:57,-7.2287173,-3.0317063,4.5631127,-0.1856089,0.35656446,0.16240779,9.070148583405235,0.43354949651671143,walk
10/07/2020, 15:07:57,-7.21436,-3.0987053,4.5798626,-0.1856089,0.35656446,0.16240779,9.08978049798375,0.43354949651671143,walk
10/07/2020, 15:07:57,-7.21436,-3.0987053,4.5798626,-0.102573335,0.3944189,0.11478445,9.08978049798375,0.4233946431215883,walk
10/07/2020, 15:07:57,-7.3052874,-3.1609187,4.6037908,-0.102573335,0.3944189,0.11478445,9.19529879334561,0.4233946431215883,walk
10/07/2020, 15:07:57,-7.3052874,-3.1609187,4.6037908,-0.023201112,0.4261678,0.08059334,9.19529879334561,0.4343415245865691,walk
10/07/2020, 15:07:57,-7.5062847,-3.2925239,4.6396832,-0.023201112,0.4261678,0.08059334,9.418688030055108,0.4343415245865691,walk
10/07/2020, 15:07:57,-7.5062847,-3.2925239,4.6396832,0.05250778,0.45425335,0.048844445,9.418688030055108,0.4598792765206185,walk
10/07/2020, 15:07:57,-7.771888,-3.4049866,4.666004,0.05250778,0.45425335,0.048844445,9.68337588609067,0.4598792765206185,walk
10/07/2020, 15:07:57,-7.771888,-3.4049866,4.666004,0.12211112,0.46035892,0.03297,9.68337588609067,0.477418557961352,walk
10/07/2020, 15:07:57,-8.128419,-3.4911282,4.718646,0.12211112,0.46035892,0.03297,10.02620520792282,0.477418557961352,walk
10/07/2020, 15:07:57,-8.128419,-3.4911282,4.718646,0.18072446,0.44204223,0.019537779,10.02620520792282,0.47795856368299294,walk
10/07/2020, 15:07:57,-8.444271,-3.5437703,4.8047876,0.18072446,0.44204223,0.019537779,10.341663621487289,0.47795856368299294,walk
10/07/2020, 15:07:57,-8.444271,-3.5437703,4.8047876,0.2295689,0.41273558,-0.0036633336,10.341663621487289,0.4722985913647822,walk
10/07/2020, 15:07:57,-8.626125,-3.5724843,4.8646083,0.2295689,0.41273558,-0.0036633336,10.527919825492194,0.4722985913647822,walk
10/07/2020, 15:07:57,-8.626125,-3.5724843,4.8646083,0.27230778,0.38465002,-0.03297,10.527919825492194,0.47243432247172373,walk
10/07/2020, 15:07:57,-8.705089,-3.5533416,4.9172506,0.27230778,0.38465002,-0.03297,10.610568236970083,0.47243432247172373,walk
10/07/2020, 15:07:57,-8.705089,-3.5533416,4.9172506,0.31504667,0.35290113,-0.064718895,10.610568236970083,0.47747476014762347,walk
10/07/2020, 15:07:58,-9.798609,-3.4695928,2.120041,-0.58491224,-0.4701278,-0.8120389,10.608740814864992,1.1056896679199346,walk
10/07/2020, 15:07:58,-9.745967,-3.5102708,2.0793629,-0.58491224,-0.4701278,-0.8120389,10.565492052258966,1.1056896679199346,walk
10/07/2020, 15:07:58,-9.745967,-3.5102708,2.0793629,-0.6569578,-0.48478112,-0.82547116,10.565492052258966,1.161037867183492,walk
10/07/2020, 15:07:58,-9.726824,-3.5389848,2.0961127,-0.6569578,-0.48478112,-0.82547116,10.56073876101072,1.161037867183492,walk
10/07/2020, 15:07:58,-9.726824,-3.5389848,2.0961127,-0.72534,-0.49577114,-0.8413456,10.56073876101072,1.2164578019340415,walk
10/07/2020, 15:07:58,-9.74836,-3.5581272,2.0697916,-0.72534,-0.49577114,-0.8413456,10.581815650354084,1.2164578019340415,walk
10/07/2020, 15:07:58,-9.74836,-3.5581272,2.0697916,-0.7888378,-0.5104245,-0.8498934,10.581815650354084,1.26693212163412,walk
10/07/2020, 15:07:58,-9.805787,-3.6179478,2.0075781,-0.7888378,-0.5104245,-0.8498934,10.642996606089016,1.26693212163412,walk
10/07/2020, 15:07:58,-9.805787,-3.6179478,2.0075781,-0.8486723,-0.5262989,-0.85966223,10.642996606089016,1.3176700242440136,walk
10/07/2020, 15:07:58,-9.84168,-3.6394832,1.9190438,-0.8486723,-0.5262989,-0.85966223,10.667109444770842,1.3176700242440136,walk
10/07/2020, 15:07:58,-9.84168,-3.6394832,1.9190438,-0.90362227,-0.54461557,-0.85722005,10.667109444770842,1.359398963555592,walk
10/07/2020, 15:07:58,-9.848858,-3.6179478,1.9262222,-0.90362227,-0.54461557,-0.85722005,10.66770265438725,1.359398963555592,walk
10/07/2020, 15:07:58,-9.848858,-3.6179478,1.9262222,-0.95735115,-0.5519422,-0.8523356,10.66770265438725,1.3955777918073569,walk
10/07/2020, 15:07:58,-9.827323,-3.6083765,1.8999012,-0.95735115,-0.5519422,-0.8523356,10.639844074589595,1.3955777918073569,walk
10/07/2020, 15:07:58,-9.827323,-3.6083765,1.8999012,-0.9952056,-0.5556056,-0.8437878,10.639844074589595,1.4181359435175571,walk
10/07/2020, 15:07:58,-9.767502,-3.5988052,1.8520447,-0.9952056,-0.5556056,-0.8437878,10.57286907067432,1.4181359435175571,walk
10/07/2020, 15:07:58,-9.767502,-3.5988052,1.8520447,-1.0330601,-0.5556056,-0.83524,10.57286907067432,1.439977970865683,walk
10/07/2020, 15:07:58,-9.645468,-3.5988052,1.8041883,-1.0330601,-0.5556056,-0.83524,10.451867886183184,1.439977970865683,walk
10/07/2020, 15:07:58,-9.645468,-3.5988052,1.8041883,-1.0574822,-0.5482789,-0.8266923,10.451867886183184,1.4499305525022301,walk
10/07/2020, 15:07:58,-9.449257,-3.615555,1.7443677,-1.0574822,-0.5482789,-0.8266923,10.266621301482491,1.4499305525022301,walk
10/07/2020, 15:07:59,-7.91785,-1.9621146,4.3836513,0.10745778,0.20026223,0.66062117,9.26059613822161,0.6986218303380667,walk
10/07/2020, 15:07:59,-7.8604226,-1.9453648,4.388437,0.10745778,0.20026223,0.66062117,9.210269564873625,0.6986218303380667,walk
10/07/2020, 15:07:59,-7.8604226,-1.9453648,4.388437,0.15019667,0.18438779,0.63986224,9.210269564873625,0.6826284362036997,walk
10/07/2020, 15:07:59,-7.8053875,-1.9238294,4.421936,0.15019667,0.18438779,0.63986224,9.174895747446513,0.6826284362036997,walk
10/07/2020, 15:07:59,-7.8053875,-1.9238294,4.421936,0.17339778,0.16118668,0.6239878,9.174895747446513,0.6673894685718609,walk
10/07/2020, 15:07:59,-7.7312098,-1.9238294,4.4315076,0.17339778,0.16118668,0.6239878,9.116522553715134,0.6673894685718609,walk
10/07/2020, 15:07:59,-7.7312098,-1.9238294,4.4315076,0.19293556,0.13676445,0.6032289,9.116522553715134,0.647930383672951,walk
10/07/2020, 15:07:59,-7.652247,-1.9525433,4.453043,0.19293556,0.13676445,0.6032289,9.066360924299214,0.647930383672951,walk
10/07/2020, 15:07:59,-7.652247,-1.9525433,4.453043,0.20514667,0.11112112,0.5788067,9.066360924299214,0.6240594949648591,walk
10/07/2020, 15:07:59,-7.5613194,-1.9573289,4.503292,0.20514667,0.11112112,0.5788067,9.01578207401228,0.6240594949648591,walk
10/07/2020, 15:07:59,-7.5613194,-1.9573289,4.503292,0.23445335,0.09280445,0.55316335,9.01578207401228,0.6079232930153045,walk
10/07/2020, 15:07:59,-7.4847493,-1.9860427,4.520042,0.23445335,0.09280445,0.55316335,8.966416076711056,0.6079232930153045,walk
10/07/2020, 15:07:59,-7.4847493,-1.9860427,4.520042,0.25887558,0.07448778,0.53851,8.966416076711056,0.6021279279138796,walk
10/07/2020, 15:07:59,-7.4512496,-2.0673988,4.536792,0.25887558,0.07448778,0.53851,8.965363248956491,0.6021279279138796,walk
10/07/2020, 15:07:59,-7.4512496,-2.0673988,4.536792,0.28818223,0.05617111,0.5104245,8.965363248956491,0.5888440843116873,walk
10/07/2020, 15:07:59,-7.4153576,-2.1367905,4.546363,0.28818223,0.05617111,0.5104245,8.956719114302567,0.5888440843116873,walk
10/07/2020, 15:07:59,-7.4153576,-2.1367905,4.546363,0.31871,0.04396,0.47867557,8.956719114302567,0.5767485158976696,walk
10/07/2020, 15:07:59,-7.4249287,-2.268396,4.5631127,0.31871,0.04396,0.47867557,9.005397463983014,0.5767485158976696,walk
10/07/2020, 15:07:59,-7.4249287,-2.268396,4.5631127,0.36633334,0.03297,0.44570556,9.005397463983014,0.5778759230502086,walk
10/07/2020, 15:07:59,-7.3986077,-2.4215364,4.584648,0.36633334,0.03297,0.44570556,9.034502399684282,0.5778759230502086,walk
10/07/2020, 15:08:00,-7.786245,-3.318845,3.3834512,1.0623667,0.7265611,1.636289,9.11526651842642,2.0818155114696935,walk
10/07/2020, 15:08:00,-7.8317084,-3.2039895,3.2973096,1.0623667,0.7265611,1.636289,9.081489775791184,2.0818155114696935,walk
10/07/2020, 15:08:00,-7.8317084,-3.2039895,3.2973096,1.01108,0.6996967,1.680249,9.081489775791184,2.0820890807669272,walk
10/07/2020, 15:08:00,-7.9298143,-3.0532417,3.2159536,1.01108,0.6996967,1.680249,9.085515835080423,2.0820890807669272,walk
10/07/2020, 15:08:00,-7.9298143,-3.0532417,3.2159536,0.9414767,0.6789378,1.7022289,9.085515835080423,2.0603199142371285,walk
10/07/2020, 15:08:00,-8.059027,-2.9647074,3.0915267,0.9414767,0.6789378,1.7022289,9.126606109962491,2.0603199142371285,walk
10/07/2020, 15:08:00,-8.059027,-2.9647074,3.0915267,0.86821,0.6581789,1.72543,9.126606109962491,2.0406118832933386,walk
10/07/2020, 15:08:00,-8.262417,-2.8689942,2.9431717,0.86821,0.6581789,1.72543,9.228267434687242,2.0406118832933386,walk
10/07/2020, 15:08:00,-8.262417,-2.8689942,2.9431717,0.7754056,0.62643003,1.7510734,9.228267434687242,2.014925885581474,walk
10/07/2020, 15:08:00,-8.492127,-2.8259234,2.7972097,0.7754056,0.62643003,1.7510734,9.376910670627678,2.014925885581474,walk
10/07/2020, 15:08:00,-8.492127,-2.8259234,2.7972097,0.66062117,0.58491224,1.7779379,9.376910670627678,1.984844022047366,walk
10/07/2020, 15:08:00,-8.693125,-2.8187451,2.658426,0.66062117,0.58491224,1.7779379,9.517508679977622,1.984844022047366,walk
10/07/2020, 15:08:00,-8.693125,-2.8187451,2.658426,0.53484666,0.52752,1.8060234,9.517508679977622,1.9560313594492813,walk
10/07/2020, 15:08:00,-8.843872,-2.8115666,2.5435705,0.53484666,0.52752,1.8060234,9.622303823706087,1.9560313594492813,walk
10/07/2020, 15:08:00,-8.843872,-2.8115666,2.5435705,0.39686114,0.47257003,1.8280034,9.622303823706087,1.929356797104476,walk
10/07/2020, 15:08:00,-8.920443,-2.8833513,2.4933212,0.39686114,0.47257003,1.8280034,9.70075570362963,1.929356797104476,walk
10/07/2020, 15:08:00,-8.920443,-2.8833513,2.4933212,0.26498112,0.4249467,1.8414357,9.70075570362963,1.9083186364846878,walk
10/07/2020, 15:08:00,-9.025727,-2.981457,2.5268207,0.26498112,0.4249467,1.8414357,9.835530552451132,1.9083186364846878,walk
10/07/2020, 15:08:00,-9.025727,-2.981457,2.5268207,0.1526389,0.3944189,1.8597523,9.835530552451132,1.9072345177205525,walk
10/07/2020, 15:08:00,-9.157332,-3.1369905,2.5914268,0.1526389,0.3944189,1.8597523,10.02062572225337,1.9072345177205525,walk
10/07/2020, 15:08:01,-8.793623,-2.9479575,2.5196424,-0.07693,0.10867889,-1.5642434,9.610767713899001,1.5699002686043029,walk
10/07/2020, 15:08:01,-8.506484,-3.0269206,2.5459633,-0.07693,0.10867889,-1.5642434,9.381068579871636,1.5699002686043029,walk
10/07/2020, 15:08:01,-8.506484,-3.0269206,2.5459633,-0.06960334,0.15019667,-1.4396901,9.381068579871636,1.4491760716239641,walk
10/07/2020, 15:08:01,-8.190632,-3.117848,2.548356,-0.06960334,0.15019667,-1.4396901,9.1269679855873,1.4491760716239641,walk
10/07/2020, 15:08:01,-8.190632,-3.117848,2.548356,-0.04029667,0.20026223,-1.2980411,9.1269679855873,1.3140165504289034,walk
10/07/2020, 15:08:01,-7.972885,-3.1345978,2.5028925,-0.04029667,0.20026223,-1.2980411,8.925081030154976,1.3140165504289034,walk
10/07/2020, 15:08:01,-7.972885,-3.1345978,2.5028925,-0.009768889,0.26620224,-1.1392968,8.925081030154976,1.1700240146078833,walk
10/07/2020, 15:08:01,-7.905886,-3.1633115,2.4909284,-0.009768889,0.26620224,-1.1392968,8.872107983130748,1.1700240146078833,walk
10/07/2020, 15:08:01,-7.905886,-3.1633115,2.4909284,0.039075557,0.3309211,-0.9463611,8.872107983130748,1.0033120454347508,walk
10/07/2020, 15:08:01,-8.082955,-3.2757742,2.524428,0.039075557,0.3309211,-0.9463611,9.079515428085417,1.0033120454347508,walk
10/07/2020, 15:08:01,-8.082955,-3.2757742,2.524428,0.123332225,0.3931978,-0.71801335,9.079515428085417,0.8278638273277564,walk
10/07/2020, 15:08:01,-8.487342,-3.4217365,2.6249263,0.123332225,0.3931978,-0.71801335,9.520162339100608,0.8278638273277564,walk
10/07/2020, 15:08:01,-8.487342,-3.4217365,2.6249263,0.2295689,0.44204223,-0.47745445,9.520162339100608,0.6899753394773463,walk
10/07/2020, 15:08:01,-8.851051,-3.591627,2.7158537,0.2295689,0.44204223,-0.47745445,9.930596889979311,0.6899753394773463,walk
10/07/2020, 15:08:01,-8.851051,-3.591627,2.7158537,0.33580557,0.47867557,-0.24300112,9.930596889979311,0.6332023580710071,walk
10/07/2020, 15:08:01,-9.073584,-3.723232,2.7972097,0.33580557,0.47867557,-0.24300112,10.198860646287201,0.6332023580710071,walk
10/07/2020, 15:08:01,-9.073584,-3.723232,2.7972097,0.4261678,0.5030978,-0.028085556,10.198860646287201,0.6599357159376094,walk
10/07/2020, 15:08:01,-9.06162,-3.7184465,2.8187451,0.4261678,0.5030978,-0.028085556,10.192405070206123,0.6599357159376094,walk
10/07/2020, 15:08:01,-9.06162,-3.7184465,2.8187451,0.47501224,0.5250778,0.16607112,10.192405070206123,0.727270901076109,walk
10/07/2020, 15:08:01,-8.71466,-3.6873398,2.833102,0.47501224,0.5250778,0.16607112,9.87766344203598,0.727270901076109,walk
10/07/2020, 15:08:02,-6.6424756,-3.3499517,3.0269206,-0.6288723,-0.07326667,-0.5458367,8.031619195987252,0.8359342274526814,walk
10/07/2020, 15:08:02,-6.6424756,-3.3499517,3.0269206,-0.56659555,-0.04396,-0.35656446,8.031619195987252,0.6708958336585984,walk
10/07/2020, 15:08:02,-6.506085,-3.3236306,3.0436704,-0.56659555,-0.04396,-0.35656446,7.914517720514112,0.6708958336585984,walk
10/07/2020, 15:08:02,-6.506085,-3.3236306,3.0436704,-0.51775116,-0.014653334,-0.16973445,7.914517720514112,0.5450603305886923,walk
10/07/2020, 15:08:02,-6.3768725,-3.2949169,3.050849,-0.51775116,-0.014653334,-0.16973445,7.799273038930125,0.5450603305886923,walk
10/07/2020, 15:08:02,-6.3768725,-3.2949169,3.050849,-0.4689067,0.01099,0.029306669,7.799273038930125,0.4699501620605251,walk
10/07/2020, 15:08:02,-6.3122663,-3.3044882,3.0604203,-0.4689067,0.01099,0.029306669,7.7543872017171465,0.4699501620605251,walk
10/07/2020, 15:08:02,-6.3122663,-3.3044882,3.0604203,-0.41762,0.035412222,0.24055889,7.7543872017171465,0.48324845920602805,walk
10/07/2020, 15:08:02,-6.2955165,-3.347559,3.1393833,-0.41762,0.035412222,0.24055889,7.790725677705212,0.48324845920602805,walk
10/07/2020, 15:08:02,-6.2955165,-3.347559,3.1393833,-0.35778558,0.057392225,0.4371578,7.790725677705212,0.5678127694402946,walk
10/07/2020, 15:08:02,-6.245267,-3.4241292,3.2566316,-0.35778558,0.057392225,0.4371578,7.83158153872871,0.5678127694402946,walk
10/07/2020, 15:08:02,-6.245267,-3.4241292,3.2566316,-0.2869611,0.07448778,0.62643003,7.83158153872871,0.6930437907340061,walk
10/07/2020, 15:08:02,-6.233303,-3.4863427,3.3667014,-0.2869611,0.07448778,0.62643003,7.895779280324505,0.6930437907340061,walk
10/07/2020, 15:08:02,-6.233303,-3.4863427,3.3667014,-0.20881,0.09280445,0.80593336,7.895779280324505,0.8377009352358076,walk
10/07/2020, 15:08:02,-6.2931237,-3.5509489,3.495914,-0.20881,0.09280445,0.80593336,8.027082816791303,0.8377009352358076,walk
10/07/2020, 15:08:02,-6.2931237,-3.5509489,3.495914,-0.12089001,0.102573335,0.97933114,8.027082816791303,0.9920812245930414,walk
10/07/2020, 15:08:02,-6.3744793,-3.6083765,3.6275191,-0.12089001,0.102573335,0.97933114,8.173937992079493,0.9920812245930414,walk
10/07/2020, 15:08:02,-6.3744793,-3.6083765,3.6275191,-0.039075557,0.10745778,1.1612767,8.173937992079493,1.166892301408926,walk
10/07/2020, 15:08:02,-6.5084777,-3.644269,3.6729827,-0.039075557,0.10745778,1.1612767,8.31455231160134,1.166892301408926,walk
10/07/2020, 15:08:02,-6.5084777,-3.644269,3.6729827,0.034191113,0.10501556,1.3322322,8.31455231160134,1.3368021668106078,walk
10/07/2020, 15:08:03,-9.420543,-3.76391,3.0723844,-0.19782001,-0.23079,-2.1674724,10.599678751061335,2.1886829884145786,walk
10/07/2020, 15:08:03,-9.420543,-3.76391,3.0723844,-0.2283478,-0.22468445,-2.129618,10.599678751061335,2.1535780322261218,walk
10/07/2020, 15:08:03,-9.547362,-3.8380876,3.141776,-0.2283478,-0.22468445,-2.129618,10.75889401798641,2.1535780322261218,walk
10/07/2020, 15:08:03,-9.547362,-3.8380876,3.141776,-0.25765446,-0.23811668,-2.0881002,10.75889401798641,2.1173681300117564,walk
10/07/2020, 15:08:03,-9.667004,-3.8931224,3.1537402,-0.25765446,-0.23811668,-2.0881002,10.888224765725862,2.1173681300117564,walk
10/07/2020, 15:08:03,-9.667004,-3.8931224,3.1537402,-0.29306668,-0.26864445,-2.031929,10.888224765725862,2.070457303917081,walk
10/07/2020, 15:08:03,-9.585648,-3.8668015,3.1633115,-0.29306668,-0.26864445,-2.031929,10.809409463857898,2.070457303917081,walk
10/07/2020, 15:08:03,-9.585648,-3.8668015,3.1633115,-0.33336335,-0.29795113,-1.9855268,10.809409463857898,2.035245114761149,walk
10/07/2020, 15:08:03,-9.29133,-3.790231,3.1154552,-0.33336335,-0.29795113,-1.9855268,10.507175224096247,2.035245114761149,walk
10/07/2020, 15:08:03,-9.29133,-3.790231,3.1154552,-0.38709223,-0.31504667,-1.9195868,10.507175224096247,1.983408227456472,walk
10/07/2020, 15:08:03,-8.872586,-3.6849468,3.0317063,-0.38709223,-0.31504667,-1.9195868,10.07436662016171,1.983408227456472,walk
10/07/2020, 15:08:03,-8.872586,-3.6849468,3.0317063,-0.4273889,-0.30894113,-1.85731,10.07436662016171,1.9307269468527462,walk
10/07/2020, 15:08:03,-8.484949,-3.6514473,2.9886355,-0.4273889,-0.30894113,-1.85731,9.708726547786515,1.9307269468527462,walk
10/07/2020, 15:08:03,-8.484949,-3.6514473,2.9886355,-0.4481478,-0.28329778,-1.7693901,9.708726547786515,1.8471154355636814,walk
10/07/2020, 15:08:03,-8.147561,-3.6083765,2.9312077,-0.4481478,-0.28329778,-1.7693901,9.38057091856238,1.8471154355636814,walk
10/07/2020, 15:08:03,-8.147561,-3.6083765,2.9312077,-0.4493689,-0.25643334,-1.68147,9.38057091856238,1.7592702872085417,walk
10/07/2020, 15:08:03,-7.920243,-3.5605202,2.8522446,-0.4493689,-0.25643334,-1.68147,9.140177735616977,1.7592702872085417,walk
10/07/2020, 15:08:03,-7.920243,-3.5605202,2.8522446,-0.42861003,-0.22712667,-1.5764545,9.140177735616977,1.6493944146172066,walk
10/07/2020, 15:08:03,-7.7216387,-3.493521,2.902494,-0.42861003,-0.22712667,-1.5764545,8.95839627677105,1.6493944146172066,walk
10/07/2020, 15:08:03,-7.7216387,-3.493521,2.902494,-0.39808223,-0.2075889,-1.4628912,8.95839627677105,1.530233097762808,walk
10/07/2020, 15:08:04,-10.475778,-4.3238306,2.7182465,0.07326667,0.1526389,-2.8793802,11.654453731692069,2.8843538487114033,walk
10/07/2020, 15:08:04,-10.475778,-4.3238306,2.7182465,0.078151114,0.1746189,-2.8928123,11.654453731692069,2.899131263399247,walk
10/07/2020, 15:08:04,-10.353744,-4.3405805,2.672783,0.078151114,0.1746189,-2.8928123,11.540555131515001,2.899131263399247,walk
10/07/2020, 15:08:04,-10.353744,-4.3405805,2.672783,0.08059334,0.18316667,-2.9038024,11.540555131515001,2.910689551137876,walk
10/07/2020, 15:08:04,-10.202995,-4.362116,2.6656044,0.08059334,0.18316667,-2.9038024,11.412038136994099,2.910689551137876,walk
10/07/2020, 15:08:04,-10.202995,-4.362116,2.6656044,0.070824444,0.18805112,-2.9062445,11.412038136994099,2.913183227052669,walk
10/07/2020, 15:08:04,-10.054641,-4.4841495,2.6344976,0.070824444,0.18805112,-2.9062445,11.320069575108695,2.913183227052669,walk
10/07/2020, 15:08:04,-10.054641,-4.4841495,2.6344976,0.06227667,0.20514667,-2.8854856,11.320069575108695,2.8934392979719075,walk
10/07/2020, 15:08:04,-9.877572,-4.599005,2.5962126,0.06227667,0.20514667,-2.8854856,11.200785634274302,2.8934392979719075,walk
10/07/2020, 15:08:04,-9.877572,-4.599005,2.5962126,0.078151114,0.22468445,-2.856179,11.200785634274302,2.8660685915443302,walk
10/07/2020, 15:08:04,-9.741181,-4.658826,2.5004997,0.078151114,0.22468445,-2.856179,11.083671411452324,2.8660685915443302,walk
10/07/2020, 15:08:04,-9.741181,-4.658826,2.5004997,0.10501556,0.23689556,-2.7877967,11.083671411452324,2.799813996484004,walk
10/07/2020, 15:08:04,-9.533006,-4.6301117,2.4478576,0.10501556,0.23689556,-2.7877967,10.876954498973952,2.799813996484004,walk
10/07/2020, 15:08:04,-9.533006,-4.6301117,2.4478576,0.12089001,0.25521225,-2.7194145,10.876954498973952,2.734037812199892,walk
10/07/2020, 15:08:04,-9.276974,-4.551149,2.4191437,0.12089001,0.25521225,-2.7194145,10.6126082488471,2.734037812199892,walk
10/07/2020, 15:08:04,-9.276974,-4.551149,2.4191437,0.13432223,0.27475002,-2.646148,10.6126082488471,2.6637622071321134,walk
10/07/2020, 15:08:04,-9.02812,-4.4602213,2.4071796,0.13432223,0.27475002,-2.646148,10.353503708009375,2.6637622071321134,walk
10/07/2020, 15:08:04,-9.02812,-4.4602213,2.4071796,0.15386,0.29062447,-2.5545645,10.353503708009375,2.57564266637273,walk
10/07/2020, 15:08:04,-8.7984085,-4.4410787,2.388037,0.15386,0.29062447,-2.5545645,10.140901957976348,2.57564266637273,walk
10/07/2020, 15:08:04,-8.7984085,-4.4410787,2.388037,0.18683001,0.31871,-2.4556546,10.140901957976348,2.483288371503604,walk
10/07/2020, 15:08:05,-9.377472,-5.271388,2.4382863,0.9842156,0.034191113,1.5202833,11.03040125287863,1.8113836842227973,walk
10/07/2020, 15:08:05,-9.200403,-5.1014977,2.3976083,0.9842156,0.034191113,1.5202833,10.789866682709565,1.8113836842227973,walk
10/07/2020, 15:08:05,-9.200403,-5.1014977,2.3976083,1.0269545,0.039075557,1.3603178,10.789866682709565,1.7048833091310303,walk
10/07/2020, 15:08:05,-8.989835,-4.938786,2.3162522,1.0269545,0.039075557,1.3603178,10.51540590365284,1.7048833091310303,walk
10/07/2020, 15:08:05,-8.989835,-4.938786,2.3162522,1.0428289,0.051286668,1.1783723,10.51540590365284,1.5743835828036987,walk
10/07/2020, 15:08:05,-8.784052,-4.7449675,2.2875385,1.0428289,0.051286668,1.1783723,10.242417508484444,1.5743835828036987,walk
10/07/2020, 15:08:05,-8.784052,-4.7449675,2.2875385,1.0293967,0.068382226,0.9927634,10.242417508484444,1.4317516428926944,walk
10/07/2020, 15:08:05,-8.63809,-4.5918264,2.2372892,1.0293967,0.068382226,0.9927634,10.035284456524892,1.4317516428926944,walk
10/07/2020, 15:08:05,-8.63809,-4.5918264,2.2372892,1.0013112,0.07693,0.80227005,10.035284456524892,1.285371367006732,walk
10/07/2020, 15:08:05,-8.566305,-4.402794,2.1966112,1.0013112,0.07693,0.80227005,9.87882982469185,1.285371367006732,walk
10/07/2020, 15:08:05,-8.566305,-4.402794,2.1966112,0.9634567,0.08303556,0.6068922,9.87882982469185,1.1416925482087361,walk
10/07/2020, 15:08:05,-8.5112705,-4.2448673,2.172683,0.9634567,0.08303556,0.6068922,9.756084047569818,1.1416925482087361,walk
10/07/2020, 15:08:05,-8.5112705,-4.2448673,2.172683,0.91461223,0.08303556,0.42006224,9.756084047569818,1.0098825331064056,walk
10/07/2020, 15:08:05,-8.487342,-4.132405,2.1631117,0.91461223,0.08303556,0.42006224,9.684564721077605,1.0098825331064056,walk
10/07/2020, 15:08:05,-8.487342,-4.132405,2.1631117,0.8669889,0.08669889,0.23811668,9.684564721077605,0.9032640807692341,walk
10/07/2020, 15:08:05,-8.441878,-4.065406,2.160719,0.8669889,0.08669889,0.23811668,9.61569240777392,0.9032640807692341,walk
10/07/2020, 15:08:05,-8.441878,-4.065406,2.160719,0.82791334,0.08425667,0.06105556,9.61569240777392,0.8344264335784669,walk
10/07/2020, 15:08:05,-8.396415,-4.082155,2.225325,0.82791334,0.08425667,0.06105556,9.597699927842594,0.8344264335784669,walk
10/07/2020, 15:08:05,-8.396415,-4.082155,2.225325,0.7949434,0.08059334,-0.10379445,9.597699927842594,0.8057316990441229,walk
10/07/2020, 15:08:05,-8.343773,-4.141976,2.2827528,0.7949434,0.08059334,-0.10379445,9.590905605077175,0.8057316990441229,walk
10/07/2020, 15:08:06,-7.8460655,-3.3810585,2.4837499,-1.0513767,-0.08669889,1.2833878,8.897264401809107,1.66132292404798,walk
10/07/2020, 15:08:06,-7.9537425,-3.455236,2.4861426,-1.0513767,-0.08669889,1.2833878,9.021174011805137,1.66132292404798,walk
10/07/2020, 15:08:06,-7.9537425,-3.455236,2.4861426,-1.0464922,-0.08425667,1.4140468,9.021174011805137,1.761185226736111,walk
10/07/2020, 15:08:06,-8.015956,-3.5198421,2.5148566,-1.0464922,-0.08425667,1.4140468,9.108750833096869,1.761185226736111,walk
10/07/2020, 15:08:06,-8.015956,-3.5198421,2.5148566,-1.0318389,-0.081814446,1.5337156,9.108750833096869,1.8503158286422072,walk
10/07/2020, 15:08:06,-8.073383,-3.6203406,2.495714,-1.0318389,-0.081814446,1.5337156,9.193202515275711,1.8503158286422072,walk
10/07/2020, 15:08:06,-8.073383,-3.6203406,2.495714,-0.99886894,-0.054950003,1.6387311,9.193202515275711,1.9199474880484422,walk
10/07/2020, 15:08:06,-8.135597,-3.694518,2.4765713,-0.99886894,-0.054950003,1.6387311,9.272044634012166,1.9199474880484422,walk
10/07/2020, 15:08:06,-8.135597,-3.694518,2.4765713,-0.9536878,-0.02198,1.7510734,9.272044634012166,1.9940565260950507,walk
10/07/2020, 15:08:06,-8.216953,-3.739982,2.4478576,-0.9536878,-0.02198,1.7510734,9.354025476828514,1.9940565260950507,walk
10/07/2020, 15:08:06,-8.216953,-3.739982,2.4478576,-0.90240115,0.023201112,1.8548678,9.354025476828514,2.0628622689166156,walk
10/07/2020, 15:08:06,-8.322237,-3.7998023,2.4119651,-0.90240115,0.023201112,1.8548678,9.46127381863101,2.0628622689166156,walk
10/07/2020, 15:08:06,-8.322237,-3.7998023,2.4119651,-0.85111445,0.059834447,1.95622,9.46127381863101,2.134191364444541,walk
10/07/2020, 15:08:06,-8.4682,-3.871587,2.359323,-0.85111445,0.059834447,1.95622,9.605519142349491,2.134191364444541,walk
10/07/2020, 15:08:06,-8.4682,-3.871587,2.359323,-0.79616445,0.10135223,2.053909,9.605519142349491,2.205151366959443,walk
10/07/2020, 15:08:06,-8.6548395,-3.9194436,2.321038,-0.79616445,0.10135223,2.053909,9.78036311527742,2.205151366959443,walk
