DATE,TIME,ax,ay,az,gx,gy,gz,ma,mg,label
05/08/2020, 16:48:02,2.321038,-2.7613173,9.150154,0.047623336,-0.04029667,-0.054950003,9.835517816130878,0.08313426828028107,walk
05/08/2020, 16:48:02,2.321038,-2.7613173,9.150154,0.042738892,-0.04396,-0.06227667,9.835517816130878,0.08739266616734664,walk
05/08/2020, 16:48:02,2.3832514,-2.644069,9.138189,0.042738892,-0.04396,-0.06227667,9.807012388558329,0.08739266616734664,walk
05/08/2020, 16:48:02,2.3832514,-2.644069,9.138189,0.018316668,-0.03174889,-0.070824444,9.807012388558329,0.0797470644647735,walk
05/08/2020, 16:48:02,2.4143581,-2.6273193,9.066405,0.018316668,-0.03174889,-0.070824444,9.74328677160705,0.0797470644647735,walk
05/08/2020, 16:48:02,2.4143581,-2.6273193,9.066405,0.009768889,-0.023201112,-0.06349778,9.74328677160705,0.06830586409527094,walk
05/08/2020, 16:48:02,2.400001,-2.6105695,8.992228,0.009768889,-0.023201112,-0.06349778,9.666190274289299,0.06830586409527094,walk
05/08/2020, 16:48:02,2.400001,-2.6105695,8.992228,0.024422223,-0.025643334,-0.059834447,9.666190274289299,0.06952831474165967,walk
05/08/2020, 16:48:02,2.4430718,-2.6225336,8.961121,0.024422223,-0.025643334,-0.059834447,9.651319329715959,0.06952831474165967,walk
05/08/2020, 16:48:02,2.4430718,-2.6225336,8.961121,0.02198,0.03174889,-0.036633335,9.651319329715959,0.05322700196407559,walk
05/08/2020, 16:48:02,2.7876384,-2.5339992,8.99462,0.02198,0.03174889,-0.036633335,9.75168061004998,0.05322700196407559,walk
05/08/2020, 16:48:02,2.7876384,-2.5339992,8.99462,-0.028085556,0.11966889,-0.05006556,9.75168061004998,0.1327252902155268,walk
05/08/2020, 16:48:02,3.6203406,-2.1104696,7.812566,-0.028085556,0.11966889,-0.05006556,8.865502368044716,0.1327252902155268,walk
05/08/2020, 16:48:02,3.6203406,-2.1104696,7.812566,-0.07570889,0.26620224,-0.068382226,8.865502368044716,0.2850817388526727,walk
05/08/2020, 16:48:02,5.8337016,-2.0817556,7.2933235,-0.07570889,0.26620224,-0.068382226,9.568612696694359,0.2850817388526727,walk
05/08/2020, 16:48:02,5.8337016,-2.0817556,7.2933235,-0.106236674,0.3284789,-0.07570889,9.568612696694359,0.3534352219461885,walk
05/08/2020, 16:48:02,4.907679,-2.4478576,5.613562,-0.106236674,0.3284789,-0.07570889,7.847891462772824,0.3534352219461885,walk
05/08/2020, 16:48:02,4.907679,-2.4478576,5.613562,0.02075889,-0.26009667,-0.09402556,7.847891462772824,0.27734818316834337,walk
05/08/2020, 16:48:02,0.43070808,-2.821138,9.62154,0.02075889,-0.26009667,-0.09402556,10.035853817233422,0.27734818316834337,walk
05/08/2020, 16:48:02,0.43070808,-2.821138,9.62154,-0.045181114,0.16729222,-0.08669889,10.035853817233422,0.19376459488934553,walk
05/08/2020, 16:48:03,-0.43788654,-3.2590244,7.9920278,0.039075557,0.22102112,-0.064718895,8.642076848077338,0.23359316794943197,walk
05/08/2020, 16:48:03,5.5800624,-2.1678972,7.4584284,0.039075557,0.22102112,-0.064718895,9.563735075138398,0.23359316794943197,walk
05/08/2020, 16:48:03,5.5800624,-2.1678972,7.4584284,0.08303556,-0.27963445,-0.08303556,9.563735075138398,0.30329067126309645,walk
05/08/2020, 16:48:03,2.6416762,-2.239682,11.483156,0.08303556,-0.27963445,-0.08303556,11.99406122914323,0.30329067126309645,walk
05/08/2020, 16:48:03,2.6416762,-2.239682,11.483156,-0.047623336,-0.18316667,-0.13676445,11.99406122914323,0.23350059026618086,walk
05/08/2020, 16:48:03,-1.2729816,-3.1752756,8.523234,-0.047623336,-0.18316667,-0.13676445,9.184137480179135,0.23350059026618086,walk
05/08/2020, 16:48:03,-1.2729816,-3.1752756,8.523234,-0.05617111,0.22712667,-0.11478445,9.184137480179135,0.26060926524766503,walk
05/08/2020, 16:48:03,4.6564326,-2.2348964,6.6041903,-0.05617111,0.22712667,-0.11478445,8.384059697603972,0.26060926524766503,walk
05/08/2020, 16:48:03,4.6564326,-2.2348964,6.6041903,-0.01099,-0.19904111,-0.09036223,8.384059697603972,0.21886863001586315,walk
05/08/2020, 16:48:03,4.436293,-1.8520447,10.96152,-0.01099,-0.19904111,-0.09036223,11.96936469719534,0.21886863001586315,walk
05/08/2020, 16:48:03,4.436293,-1.8520447,10.96152,-0.058613338,-0.38953447,-0.14531223,11.96936469719534,0.41986697285516494,walk
05/08/2020, 16:48:03,-1.3304094,-3.089134,10.052248,-0.058613338,-0.38953447,-0.14531223,10.600020179264675,0.41986697285516494,walk
05/08/2020, 16:48:03,-1.3304094,-3.089134,10.052248,-0.089141116,0.25521225,-0.15874445,10.600020179264675,0.31349518574764795,walk
05/08/2020, 16:48:03,2.5914268,-2.7732813,6.3696938,-0.089141116,0.25521225,-0.15874445,7.4148217126119755,0.31349518574764795,walk
05/08/2020, 16:48:03,2.5914268,-2.7732813,6.3696938,0.017095556,-0.037854444,-0.08669889,7.4148217126119755,0.09613487650514607,walk
05/08/2020, 16:48:03,5.9030933,-1.8568304,9.68136,0.017095556,-0.037854444,-0.08669889,11.490129073522251,0.09613487650514607,walk
05/08/2020, 16:48:03,5.9030933,-1.8568304,9.68136,0.008547778,-0.47379112,-0.14287001,11.490129073522251,0.49493730074485304,walk
05/08/2020, 16:48:03,-0.13160525,-2.7469604,11.227124,0.008547778,-0.47379112,-0.14287001,11.559041029020316,0.49493730074485304,walk
05/08/2020, 16:48:03,-0.13160525,-2.7469604,11.227124,-0.029306669,0.09646778,-0.19049335,11.559041029020316,0.21552871649276875,walk
05/08/2020, 16:48:03,0.552742,-2.9671001,6.879365,-0.029306669,0.09646778,-0.19049335,7.51231451275371,0.21552871649276875,walk
05/08/2020, 16:48:04,10.281959,-4.0438704,5.4795637,-2.6962135,-0.78761667,-1.4689968,12.332768502475508,3.169835746490476,walk
05/08/2020, 16:48:04,10.281959,-4.0438704,5.4795637,-3.8929024,-0.43471557,-1.4653333,12.332768502475508,4.182208546488457,walk
05/08/2020, 16:48:04,10.466207,-3.6275191,5.986842,-3.8929024,-0.43471557,-1.4653333,12.591372188835448,4.182208546488457,walk
05/08/2020, 16:48:04,10.466207,-3.6275191,5.986842,-4.7073836,-0.14653334,-1.4995245,12.591372188835448,4.942621402999221,walk
05/08/2020, 16:48:04,10.710274,-4.254439,6.2404814,-4.7073836,-0.14653334,-1.4995245,13.105488224952502,4.942621402999221,walk
05/08/2020, 16:48:04,10.710274,-4.254439,6.2404814,-4.8282733,0.12089001,-1.5569167,13.105488224952502,5.07452727565861,walk
05/08/2020, 16:48:04,10.760524,-5.575277,6.056234,-4.8282733,0.12089001,-1.5569167,13.548083007682738,5.07452727565861,walk
05/08/2020, 16:48:04,10.760524,-5.575277,6.056234,-4.2665625,0.2613178,-1.61553,13.548083007682738,4.569658570865986,walk
05/08/2020, 16:48:04,10.281959,-6.771688,5.4293146,-4.2665625,0.2613178,-1.61553,13.455552295272305,4.569658570865986,walk
05/08/2020, 16:48:04,10.281959,-6.771688,5.4293146,-3.2664723,0.22224224,-1.6533846,13.455552295272305,3.667821380764673,walk
05/08/2020, 16:48:04,9.45165,-7.4919276,4.792824,-3.2664723,0.22224224,-1.6533846,12.978205608693672,3.667821380764673,walk
05/08/2020, 16:48:04,9.45165,-7.4919276,4.792824,-2.1918945,0.039075557,-1.6558267,12.978205608693672,2.747306054185223,walk
05/08/2020, 16:48:04,8.583055,-7.7671022,4.1874394,-2.1918945,0.039075557,-1.6558267,12.30980713042052,2.747306054185223,walk
05/08/2020, 16:48:04,8.583055,-7.7671022,4.1874394,-1.2907145,-0.21369445,-1.5837811,12.30980713042052,2.0542570170171657,walk
05/08/2020, 16:48:04,7.941778,-7.647461,3.6897326,-1.2907145,-0.21369445,-1.5837811,11.626247279343815,2.0542570170171657,walk
05/08/2020, 16:48:04,7.941778,-7.647461,3.6897326,-0.6764956,-0.4481478,-1.4726601,11.626247279343815,1.681431066854043,walk
05/08/2020, 16:48:04,7.7312098,-7.2287173,3.2757742,-0.6764956,-0.4481478,-1.4726601,11.07956025052422,1.681431066854043,walk
05/08/2020, 16:48:04,7.7312098,-7.2287173,3.2757742,-0.3260367,-0.5885756,-1.3761923,11.07956025052422,1.5318702607768726,walk
05/08/2020, 16:48:04,7.925029,-6.6089764,3.07717,-0.3260367,-0.5885756,-1.3761923,10.768176477081578,1.5318702607768726,walk
05/08/2020, 16:48:04,7.925029,-6.6089764,3.07717,-0.16118668,-0.61299783,-1.3224634,10.768176477081578,1.4665118177964556,walk
05/08/2020, 16:48:05,8.200203,-3.034099,2.5028925,-0.43349445,0.5226356,-0.1856089,9.094699362082668,0.7039290070504461,walk
05/08/2020, 16:48:05,8.283952,-3.010171,2.4023938,-0.43349445,0.5226356,-0.1856089,9.135451925044276,0.7039290070504461,walk
05/08/2020, 16:48:05,8.283952,-3.010171,2.4023938,-0.46768558,0.49821335,-0.2759711,9.135451925044276,0.7369575299694063,walk
05/08/2020, 16:48:05,8.276773,-2.9886355,2.3377876,-0.46768558,0.49821335,-0.2759711,9.105062996692412,0.7369575299694063,walk
05/08/2020, 16:48:05,8.276773,-2.9886355,2.3377876,-0.50798225,0.47867557,-0.37488112,9.105062996692412,0.7922828589892854,walk
05/08/2020, 16:48:05,8.216953,-2.9742785,2.2851455,-0.50798225,0.47867557,-0.37488112,9.0325269729553,0.7922828589892854,walk
05/08/2020, 16:48:05,8.216953,-2.9742785,2.2851455,-0.53484666,0.45303226,-0.4713489,9.0325269729553,0.8446709264867337,walk
05/08/2020, 16:48:05,8.070991,-3.0005996,2.2444677,-0.53484666,0.45303226,-0.4713489,8.89843369192832,0.8446709264867337,walk
05/08/2020, 16:48:05,8.070991,-3.0005996,2.2444677,-0.5519422,0.41029334,-0.5580478,8.89843369192832,0.8856625571209323,walk
05/08/2020, 16:48:05,7.9657063,-3.0723844,2.158326,-0.5519422,0.41029334,-0.5580478,8.806270152873697,0.8856625571209323,walk
05/08/2020, 16:48:05,7.9657063,-3.0723844,2.158326,-0.5421733,0.3492378,-0.6459678,8.806270152873697,0.9127942434830103,walk
05/08/2020, 16:48:05,7.948957,-3.2231321,2.1511476,-0.5421733,0.3492378,-0.6459678,8.843185716568657,0.9127942434830103,walk
05/08/2020, 16:48:05,7.948957,-3.2231321,2.1511476,-0.50554,0.2869611,-0.73755115,8.843185716568657,0.9390948225177245,walk
05/08/2020, 16:48:05,8.051848,-3.495914,2.1678972,-0.50554,0.2869611,-0.73755115,9.041761763655176,0.9390948225177245,walk
05/08/2020, 16:48:05,8.051848,-3.495914,2.1678972,-0.43960002,0.23811668,-0.8095967,9.041761763655176,0.9515222419648445,walk
05/08/2020, 16:48:05,8.226524,-3.8261235,2.1894326,-0.43960002,0.23811668,-0.8095967,9.333195539935744,0.9515222419648445,walk
05/08/2020, 16:48:05,8.226524,-3.8261235,2.1894326,-0.3614489,0.2185789,-0.8877478,9.333195539935744,0.9831166025996009,walk
05/08/2020, 16:48:05,8.389236,-4.1108694,2.158326,-0.3614489,0.2185789,-0.8877478,9.58837349294967,0.9831166025996009,walk
05/08/2020, 16:48:05,8.389236,-4.1108694,2.158326,-0.27719223,0.19537778,-0.9610145,9.58837349294967,1.0190961189846484,walk
05/08/2020, 16:48:05,8.487342,-4.249653,2.1343977,-0.27719223,0.19537778,-0.9610145,9.728832169800722,1.0190961189846484,walk
05/08/2020, 16:48:06,6.896115,-7.798209,4.3740797,0.33336335,0.13798556,0.71923447,11.291635821808708,0.8046548066302803,walk
05/08/2020, 16:48:06,6.8195443,-7.850851,4.3525443,0.33336335,0.13798556,0.71923447,11.273273214528297,0.8046548066302803,walk
05/08/2020, 16:48:06,6.8195443,-7.850851,4.3525443,0.42006224,0.13432223,0.79128003,11.273273214528297,0.9058801449284114,walk
05/08/2020, 16:48:06,6.8099732,-7.9034934,4.3812585,0.42006224,0.13432223,0.79128003,11.315315702948956,0.9058801449284114,walk
05/08/2020, 16:48:06,6.8099732,-7.9034934,4.3812585,0.52019334,0.13676445,0.8718734,11.315315702948956,1.0244358511795344,walk
05/08/2020, 16:48:06,6.798009,-7.8867435,4.3764725,0.52019334,0.13676445,0.8718734,11.294563308103442,1.0244358511795344,walk
05/08/2020, 16:48:06,6.798009,-7.8867435,4.3764725,0.6105556,0.14653334,0.9414767,11.294563308103442,1.1316485890086432,walk
05/08/2020, 16:48:06,6.7669024,-7.8029947,4.3645086,0.6105556,0.14653334,0.9414767,11.21278872634402,1.1316485890086432,walk
05/08/2020, 16:48:06,6.7669024,-7.8029947,4.3645086,0.6740534,0.15141778,1.0196278,11.21278872634402,1.231631503341202,walk
05/08/2020, 16:48:06,6.778867,-7.661818,4.347759,0.6740534,0.15141778,1.0196278,11.11573193564854,1.231631503341202,walk
05/08/2020, 16:48:06,6.778867,-7.661818,4.347759,0.70336,0.16362889,1.0782411,11.11573193564854,1.2977263287281717,walk
05/08/2020, 16:48:06,6.8051877,-7.554141,4.369294,0.70336,0.16362889,1.0782411,11.066451920007099,1.2977263287281717,walk
05/08/2020, 16:48:06,6.8051877,-7.554141,4.369294,0.6984756,0.18438779,1.1283067,11.066451920007099,1.3397548780987485,walk
05/08/2020, 16:48:06,6.8410797,-7.5062847,4.4004006,0.6984756,0.18438779,1.1283067,11.068342586339831,1.3397548780987485,walk
05/08/2020, 16:48:06,6.8410797,-7.5062847,4.4004006,0.7009178,0.20148334,1.17593,11.068342586339831,1.3837242103290517,walk
05/08/2020, 16:48:06,6.927222,-7.513463,4.3788652,0.7009178,0.20148334,1.17593,11.118137833568007,1.3837242103290517,walk
05/08/2020, 16:48:06,6.927222,-7.513463,4.3788652,0.7021389,0.21491556,1.2223322,11.118137833568007,1.4259326197943023,walk
05/08/2020, 16:48:06,7.0061846,-7.5062847,4.371687,0.7021389,0.21491556,1.2223322,11.159864658917614,1.4259326197943023,walk
05/08/2020, 16:48:06,7.0061846,-7.5062847,4.371687,0.70946556,0.23567446,1.2626289,11.159864658917614,1.4673498581999362,walk
05/08/2020, 16:48:06,7.068398,-7.5062847,4.3645086,0.70946556,0.23567446,1.2626289,11.196226866433467,1.4673498581999362,walk
05/08/2020, 16:48:07,9.927821,-7.628319,5.1589255,-0.34557447,-0.6068922,-0.9927634,13.541321691056885,1.2138035501211057,walk
05/08/2020, 16:48:07,10.243673,-7.9800634,5.35753,-0.34557447,-0.6068922,-0.9927634,14.046970656226412,1.2138035501211057,walk
05/08/2020, 16:48:07,10.243673,-7.9800634,5.35753,-0.27475002,-0.50798225,-0.9634567,14.046970656226412,1.1232908529164047,walk
05/08/2020, 16:48:07,10.346565,-8.250452,5.517849,-0.27475002,-0.50798225,-0.9634567,14.337643758030485,1.1232908529164047,walk
05/08/2020, 16:48:07,10.346565,-8.250452,5.517849,-0.18683001,-0.4041878,-0.92560226,14.337643758030485,1.027138145145771,walk
05/08/2020, 16:48:07,10.179068,-8.377272,5.4963136,-0.18683001,-0.4041878,-0.92560226,14.2829114909931,1.027138145145771,walk
05/08/2020, 16:48:07,10.179068,-8.377272,5.4963136,-0.09524667,-0.32725778,-0.86943114,14.2829114909931,0.933852284069812,walk
05/08/2020, 16:48:07,9.80818,-8.408379,5.300102,-0.09524667,-0.32725778,-0.86943114,13.963964568255042,0.933852284069812,walk
05/08/2020, 16:48:07,9.80818,-8.408379,5.300102,-0.02198,-0.27719223,-0.7766267,13.963964568255042,0.8249046588748407,walk
05/08/2020, 16:48:07,9.442079,-8.451449,4.955536,-0.02198,-0.27719223,-0.7766267,13.606512444937474,0.8249046588748407,walk
05/08/2020, 16:48:07,9.442079,-8.451449,4.955536,0.0012211112,-0.24666445,-0.63742,13.606512444937474,0.6834830623131722,walk
05/08/2020, 16:48:07,9.238688,-8.372486,4.6731825,0.0012211112,-0.24666445,-0.63742,13.3150487391105,0.6834830623131722,walk
05/08/2020, 16:48:07,9.238688,-8.372486,4.6731825,-0.009768889,-0.21247335,-0.50554,13.3150487391105,0.5484624506534911,walk
05/08/2020, 16:48:07,9.159725,-8.159525,4.3118663,-0.009768889,-0.21247335,-0.50554,13.002715226785229,0.5484624506534911,walk
05/08/2020, 16:48:07,9.159725,-8.159525,4.3118663,-0.05250778,-0.15752333,-0.40907225,13.002715226785229,0.4414870027527607,walk
05/08/2020, 16:48:07,9.104691,-7.91785,4.072584,-0.05250778,-0.15752333,-0.40907225,12.734743052789632,0.4414870027527607,walk
05/08/2020, 16:48:07,9.104691,-7.91785,4.072584,-0.11600556,-0.10013112,-0.3382478,12.734743052789632,0.3713423072805944,walk
05/08/2020, 16:48:07,9.040084,-7.810173,3.952943,-0.11600556,-0.10013112,-0.3382478,12.583627399476994,0.3713423072805944,walk
05/08/2020, 16:48:07,9.040084,-7.810173,3.952943,-0.17584,-0.048844445,-0.2735289,12.583627399476994,0.3288214538074422,walk
05/08/2020, 16:48:07,8.839087,-7.8293157,3.9433718,-0.17584,-0.048844445,-0.2735289,12.449008611538648,0.3288214538074422,walk
05/08/2020, 16:48:08,9.595219,-6.0346985,2.7828526,-0.6935911,-0.7216767,-2.0111701,11.671764039517978,2.2464842034184986,walk
05/08/2020, 16:48:08,9.595219,-6.0346985,2.7828526,-0.44570556,-0.78395337,-1.954999,11.671764039517978,2.1529647711474613,walk
05/08/2020, 16:48:08,9.403793,-6.161518,2.8570302,-0.44570556,-0.78395337,-1.954999,11.599924811915615,2.1529647711474613,walk
05/08/2020, 16:48:08,9.403793,-6.161518,2.8570302,-0.30161446,-0.8205867,-1.867079,11.599924811915615,2.0616299016446655,walk
05/08/2020, 16:48:08,9.190832,-6.1998034,2.8785655,-0.30161446,-0.8205867,-1.867079,11.45404280691733,2.0616299016446655,walk
05/08/2020, 16:48:08,9.190832,-6.1998034,2.8785655,-0.22224224,-0.84623003,-1.7657267,11.45404280691733,1.9706058975020617,walk
05/08/2020, 16:48:08,8.980264,-6.108876,2.8474588,-0.22224224,-0.84623003,-1.7657267,11.22815777039114,1.9706058975020617,walk
05/08/2020, 16:48:08,8.980264,-6.108876,2.8474588,-0.18072446,-0.8767578,-1.6570479,11.22815777039114,1.8833940655895374,walk
05/08/2020, 16:48:08,8.781659,-5.8672013,2.7397819,-0.18072446,-0.8767578,-1.6570479,10.910911651102223,1.8833940655895374,walk
05/08/2020, 16:48:08,8.781659,-5.8672013,2.7397819,-0.18438779,-0.90362227,-1.5691278,10.910911651102223,1.820080797467374,walk
05/08/2020, 16:48:08,8.616554,-5.4843497,2.6512475,-0.18438779,-0.90362227,-1.5691278,10.552355782876157,1.820080797467374,walk
05/08/2020, 16:48:08,8.616554,-5.4843497,2.6512475,-0.23445335,-0.9402556,-1.4836501,10.552355782876157,1.7720797155094705,walk
05/08/2020, 16:48:08,8.530413,-5.0847483,2.5818555,-0.23445335,-0.9402556,-1.4836501,10.261022529180234,1.7720797155094705,walk
05/08/2020, 16:48:08,8.530413,-5.0847483,2.5818555,-0.32237336,-0.9732256,-1.4006145,10.261022529180234,1.7357458388844713,walk
05/08/2020, 16:48:08,8.595019,-4.776074,2.6153553,-0.32237336,-0.9732256,-1.4006145,10.174739445041801,1.7357458388844713,walk
05/08/2020, 16:48:08,8.595019,-4.776074,2.6153553,-0.43960002,-0.97933114,-1.3334534,10.174739445041801,1.7118515316587537,walk
05/08/2020, 16:48:08,8.772088,-4.601398,2.7110682,-0.43960002,-0.97933114,-1.3334534,10.269969950162842,1.7118515316587537,walk
05/08/2020, 16:48:08,8.772088,-4.601398,2.7110682,-0.5788067,-0.97078335,-1.2870512,10.269969950162842,1.712874281974449,walk
05/08/2020, 16:48:08,9.008977,-4.5822554,2.9096723,-0.5788067,-0.97078335,-1.2870512,10.517838291102338,1.712874281974449,walk
05/08/2020, 16:48:08,9.008977,-4.5822554,2.9096723,-0.7167922,-0.93903446,-1.2809457,10.517838291102338,1.7425264980191983,walk
05/08/2020, 16:48:09,7.6331043,-4.692325,1.2801601,-0.9170545,1.4360267,1.2601867,9.0510223961991,2.1192527029610226,walk
05/08/2020, 16:48:09,7.6331043,-4.692325,1.2801601,-0.9500245,1.3652023,1.2333223,9.0510223961991,2.070605628312301,walk
05/08/2020, 16:48:09,7.4823565,-4.5152564,1.2035898,-0.9500245,1.3652023,1.2333223,8.821668114211628,2.070605628312301,walk
05/08/2020, 16:48:09,7.4823565,-4.5152564,1.2035898,-0.98910004,1.2882723,1.1918045,8.821668114211628,2.0145377486518847,walk
05/08/2020, 16:48:09,7.3603225,-4.386044,1.2059826,-0.98910004,1.2882723,1.1918045,8.652521198154206,2.0145377486518847,walk
05/08/2020, 16:48:09,7.3603225,-4.386044,1.2059826,-1.0245123,1.2027946,1.1527289,8.652521198154206,1.955792453264718,walk
05/08/2020, 16:48:09,7.257431,-4.261617,1.2059826,-1.0245123,1.2027946,1.1527289,8.50212209561023,1.955792453264718,walk
05/08/2020, 16:48:09,7.257431,-4.261617,1.2059826,-1.0635878,1.12098,1.1063267,8.50212209561023,1.9004667732846212,walk
05/08/2020, 16:48:09,7.1449685,-4.132405,1.2346965,-1.0635878,1.12098,1.1063267,8.345766587664313,1.9004667732846212,walk
05/08/2020, 16:48:09,7.1449685,-4.132405,1.2346965,-1.0916734,1.0293967,1.05504,8.345766587664313,1.8342621489300959,walk
05/08/2020, 16:48:09,7.0133634,-4.082155,1.2897314,-1.0916734,1.0293967,1.05504,8.216730735657515,1.8342621489300959,walk
05/08/2020, 16:48:09,7.0133634,-4.082155,1.2897314,-1.1087689,0.92438114,0.99886894,8.216730735657515,1.7554453031369048,walk
05/08/2020, 16:48:09,6.9224358,-4.058227,1.3399807,-1.1087689,0.92438114,0.99886894,8.135408538034305,1.7554453031369048,walk
05/08/2020, 16:48:09,6.9224358,-4.058227,1.3399807,-1.0977789,0.81326,0.92560226,8.135408538034305,1.6502272407313618,walk
05/08/2020, 16:48:09,6.8745794,-4.024728,1.402194,-1.0977789,0.81326,0.92560226,8.08853660736606,1.6502272407313618,walk
05/08/2020, 16:48:09,6.8745794,-4.024728,1.402194,-1.053819,0.7021389,0.85599893,8.08853660736606,1.5284853844405772,walk
05/08/2020, 16:48:09,6.829116,-4.0414777,1.4668003,-1.053819,0.7021389,0.85599893,8.069812177930295,1.5284853844405772,walk
05/08/2020, 16:48:09,6.829116,-4.0414777,1.4668003,-0.9683412,0.59956557,0.7766267,8.069812177930295,1.378518238178316,walk
05/08/2020, 16:48:09,6.754938,-4.0773697,1.5601203,-0.9683412,0.59956557,0.7766267,8.042891778306188,1.378518238178316,walk
05/08/2020, 16:48:09,6.754938,-4.0773697,1.5601203,-0.84623003,0.48722336,0.6887067,8.042891778306188,1.1949095264939111,walk
05/08/2020, 16:48:10,10.224531,-6.439086,1.6486548,1.6729223,1.1612767,1.5825601,12.195119041568773,2.5790945673488777,walk
05/08/2020, 16:48:10,10.0163555,-6.3194447,1.538585,1.6729223,1.1612767,1.5825601,11.942780337897482,2.5790945673488777,walk
05/08/2020, 16:48:10,10.0163555,-6.3194447,1.538585,1.4128256,1.2284378,1.5727912,11.942780337897482,2.4451600627316323,walk
05/08/2020, 16:48:10,9.765109,-6.209375,1.4141582,1.4128256,1.2284378,1.5727912,11.658196052063271,2.4451600627316323,walk
05/08/2020, 16:48:10,9.765109,-6.209375,1.4141582,1.1368545,1.2736189,1.5752333,11.658196052063271,2.3229084124779606,walk
05/08/2020, 16:48:10,9.521041,-6.13759,1.3304094,1.1368545,1.2736189,1.5752333,11.405709951228589,2.3229084124779606,walk
05/08/2020, 16:48:10,9.521041,-6.13759,1.3304094,0.84745115,1.3053678,1.5850023,11.405709951228589,2.2213488960768286,walk
05/08/2020, 16:48:10,9.281759,-6.111269,1.2873386,0.84745115,1.3053678,1.5850023,11.187309974414509,2.2213488960768286,walk
05/08/2020, 16:48:10,9.281759,-6.111269,1.2873386,0.5739222,1.3358957,1.5984346,11.187309974414509,2.160786196109841,walk
05/08/2020, 16:48:10,9.071191,-6.1399827,1.268196,0.5739222,1.3358957,1.5984346,11.026976547043349,2.160786196109841,walk
05/08/2020, 16:48:10,9.071191,-6.1399827,1.268196,0.3712178,1.3444434,1.6118667,11.026976547043349,2.131535856890346,walk
05/08/2020, 16:48:10,8.831908,-6.233303,1.2011969,0.3712178,1.3444434,1.6118667,10.876559386594455,2.131535856890346,walk
05/08/2020, 16:48:10,8.831908,-6.233303,1.2011969,0.24544334,1.3163579,1.6118667,10.876559386594455,2.095508226237015,walk
05/08/2020, 16:48:10,8.571091,-6.3074803,1.1030912,0.24544334,1.3163579,1.6118667,10.698818356271222,2.095508226237015,walk
05/08/2020, 16:48:10,8.571091,-6.3074803,1.1030912,0.17828223,1.2614079,1.6008767,10.698818356271222,2.0459082327155445,walk
05/08/2020, 16:48:10,8.327023,-6.4055862,1.0959128,0.17828223,1.2614079,1.6008767,10.562758380188159,2.0459082327155445,walk
05/08/2020, 16:48:10,8.327023,-6.4055862,1.0959128,0.17706113,1.1881411,1.5935501,10.562758380188159,1.9956031194459536,walk
05/08/2020, 16:48:10,8.1738825,-6.539584,1.0767702,0.17706113,1.1881411,1.5935501,10.523210056228917,1.9956031194459536,walk
05/08/2020, 16:48:10,8.1738825,-6.539584,1.0767702,0.23445335,1.1038845,1.5740123,10.523210056228917,1.9367611952250625,walk
05/08/2020, 16:48:10,8.080562,-6.812366,1.1126626,0.23445335,1.1038845,1.5740123,10.627409137670455,1.9367611952250625,walk
05/08/2020, 16:48:11,7.944171,-3.8644085,4.022335,0.7009178,0.013432222,-0.54095227,9.70683699191951,0.8854916785446123,walk
05/08/2020, 16:48:11,7.944171,-3.8644085,4.022335,0.6838223,0.051286668,-0.4689067,9.70683699191951,0.8307326398144648,walk
05/08/2020, 16:48:11,7.9369926,-3.900301,3.8548372,0.6838223,0.051286668,-0.4689067,9.647174180067887,0.8307326398144648,walk
05/08/2020, 16:48:11,7.9369926,-3.900301,3.8548372,0.64841,0.08303556,-0.37610224,9.647174180067887,0.7541772702988561,walk
05/08/2020, 16:48:11,7.8723865,-3.9457645,3.6107693,0.64841,0.08303556,-0.37610224,9.517414620462754,0.7541772702988561,walk
05/08/2020, 16:48:11,7.8723865,-3.9457645,3.6107693,0.61299783,0.10135223,-0.26986557,9.517414620462754,0.6773965169253577,walk
05/08/2020, 16:48:11,7.7814593,-4.0414777,3.4121652,0.61299783,0.10135223,-0.26986557,9.408906540107047,0.6773965169253577,walk
05/08/2020, 16:48:11,7.7814593,-4.0414777,3.4121652,0.6032289,0.10013112,-0.15752333,9.408906540107047,0.6314467351040826,walk
05/08/2020, 16:48:11,7.6737823,-4.130012,3.2614172,0.6032289,0.10013112,-0.15752333,9.30487919191041,0.6314467351040826,walk
05/08/2020, 16:48:11,7.6737823,-4.130012,3.2614172,0.6239878,0.07204556,-0.04151778,9.30487919191041,0.629503816723015,walk
05/08/2020, 16:48:11,7.597212,-4.1611185,3.1393833,0.6239878,0.07204556,-0.04151778,9.21348265019614,0.629503816723015,walk
05/08/2020, 16:48:11,7.597212,-4.1611185,3.1393833,0.6679478,0.036633335,0.07448778,9.21348265019614,0.6730859774306428,walk
05/08/2020, 16:48:11,7.568498,-4.173083,3.0915267,0.6679478,0.036633335,0.07448778,9.179015303027542,0.6730859774306428,walk
05/08/2020, 16:48:11,7.568498,-4.173083,3.0915267,0.71923447,0.007326667,0.18805112,9.179015303027542,0.7434481296329893,walk
05/08/2020, 16:48:11,7.6139617,-4.1898327,3.1250265,0.71923447,0.007326667,0.18805112,9.235415587264015,0.7434481296329893,walk
05/08/2020, 16:48:11,7.6139617,-4.1898327,3.1250265,0.79250115,-0.025643334,0.30649891,9.235415587264015,0.8500924894766035,walk
05/08/2020, 16:48:11,7.7240314,-4.223332,3.1369905,0.79250115,-0.025643334,0.30649891,9.345475059333287,0.8500924894766035,walk
05/08/2020, 16:48:11,7.7240314,-4.223332,3.1369905,0.86576784,-0.058613338,0.40663,9.345475059333287,0.9582992407057666,walk
05/08/2020, 16:48:11,7.8460655,-4.273581,3.1633115,0.86576784,-0.058613338,0.40663,9.477910027805796,0.9582992407057666,walk
05/08/2020, 16:48:11,7.8460655,-4.273581,3.1633115,0.92438114,-0.068382226,0.5018767,9.477910027805796,1.0540573271705134,walk
05/08/2020, 16:48:12,11.607583,-4.8885365,3.196811,-0.5372889,-0.97811,-1.9586623,12.994359281721751,2.254270716345443,walk
05/08/2020, 16:48:12,11.607583,-4.8885365,3.196811,-0.6667267,-0.9646778,-2.0478034,12.994359281721751,2.35979375266843,walk
05/08/2020, 16:48:12,11.420942,-4.981857,3.3044882,-0.6667267,-0.9646778,-2.0478034,12.890944989363646,2.35979375266843,walk
05/08/2020, 16:48:12,11.420942,-4.981857,3.3044882,-0.7558678,-0.95857227,-2.11008,12.890944989363646,2.4377519389394102,walk
05/08/2020, 16:48:12,11.162518,-5.0392847,3.4097722,-0.7558678,-0.95857227,-2.11008,12.713093035023011,2.4377519389394102,walk
05/08/2020, 16:48:12,11.162518,-5.0392847,3.4097722,-0.78273225,-0.96223557,-2.1491556,12.713093035023011,2.481418330244879,walk
05/08/2020, 16:48:12,10.84188,-5.111069,3.4504502,-0.78273225,-0.96223557,-2.1491556,12.472970512925842,2.481418330244879,walk
05/08/2020, 16:48:12,10.84188,-5.111069,3.4504502,-0.7619734,-0.9549089,-2.1796834,12.472970512925842,2.498694535851814,walk
05/08/2020, 16:48:12,10.499705,-5.113462,3.4648073,-0.7619734,-0.9549089,-2.1796834,12.181797669382224,2.498694535851814,walk
05/08/2020, 16:48:12,10.499705,-5.113462,3.4648073,-0.7314456,-0.93415004,-2.1992211,12.181797669382224,2.498844247990417,walk
05/08/2020, 16:48:12,10.10489,-5.032106,3.495914,-0.7314456,-0.93415004,-2.1992211,11.817457589012278,2.498844247990417,walk
05/08/2020, 16:48:12,10.10489,-5.032106,3.495914,-0.7021389,-0.90118,-2.1955578,11.817457589012278,2.474994682273255,walk
05/08/2020, 16:48:12,9.626326,-5.015356,3.5270207,-0.7021389,-0.90118,-2.1955578,11.413142254107692,2.474994682273255,walk
05/08/2020, 16:48:12,9.626326,-5.015356,3.5270207,-0.68504333,-0.85966223,-2.15404,11.413142254107692,2.4183035941127224,walk
05/08/2020, 16:48:12,9.176475,-4.9938207,3.546163,-0.68504333,-0.85966223,-2.15404,11.032733252382512,2.4183035941127224,walk
05/08/2020, 16:48:12,9.176475,-4.9938207,3.546163,-0.6801589,-0.82913446,-2.0929844,11.032733252382512,2.351736372218922,walk
05/08/2020, 16:48:12,8.762517,-4.981857,3.586841,-0.6801589,-0.82913446,-2.0929844,10.698879860594651,2.351736372218922,walk
05/08/2020, 16:48:12,8.762517,-4.981857,3.586841,-0.6667267,-0.8230289,-2.0075068,10.698879860594651,2.2697984167268923,walk
05/08/2020, 16:48:12,8.475378,-4.9052863,3.6275191,-0.6667267,-0.8230289,-2.0075068,10.44283303078822,2.2697984167268923,walk
05/08/2020, 16:48:12,8.475378,-4.9052863,3.6275191,-0.6520734,-0.8315767,-1.9049335,10.44283303078822,2.1784147842802906,walk
05/08/2020, 16:48:13,8.640483,-5.426922,2.510071,0.7106867,0.7973856,1.2382067,10.507610675924813,1.6352538813094946,walk
05/08/2020, 16:48:13,8.640483,-5.426922,2.510071,0.6007867,0.7949434,1.13197,10.507610675924813,1.5080569712014191,walk
05/08/2020, 16:48:13,8.4682,-5.278567,2.3784657,0.6007867,0.7949434,1.13197,10.258205173504987,1.5080569712014191,walk
05/08/2020, 16:48:13,8.4682,-5.278567,2.3784657,0.46158,0.80593336,1.0489345,10.258205173504987,1.4010168377015748,walk
05/08/2020, 16:48:13,8.281559,-5.1182475,2.254039,0.46158,0.80593336,1.0489345,9.99306604157474,1.4010168377015748,walk
05/08/2020, 16:48:13,8.281559,-5.1182475,2.254039,0.30283555,0.8205867,0.99398446,9.99306604157474,1.324038134913274,walk
05/08/2020, 16:48:13,8.035098,-4.979464,2.115255,0.30283555,0.8205867,0.99398446,9.686700551101147,1.324038134913274,walk
05/08/2020, 16:48:13,8.035098,-4.979464,2.115255,0.13798556,0.8450089,0.95613,9.686700551101147,1.2834581027481664,walk
05/08/2020, 16:48:13,7.719246,-4.8646083,2.0051854,0.13798556,0.8450089,0.95613,9.34194517076445,1.2834581027481664,walk
05/08/2020, 16:48:13,7.719246,-4.8646083,2.0051854,-0.015874445,0.86576784,0.9378134,9.34194517076445,1.276440331692148,walk
05/08/2020, 16:48:13,7.3172517,-4.7210393,1.9381863,-0.015874445,0.86576784,0.9378134,8.921151848005222,1.276440331692148,walk
05/08/2020, 16:48:13,7.3172517,-4.7210393,1.9381863,-0.14653334,0.8633256,0.9317078,8.921151848005222,1.278625249156987,walk
05/08/2020, 16:48:13,6.867401,-4.634897,1.8640088,-0.14653334,0.8633256,0.9317078,8.492231702236369,1.278625249156987,walk
05/08/2020, 16:48:13,6.867401,-4.634897,1.8640088,-0.24544334,0.8205867,0.9463611,8.492231702236369,1.2764028810686947,walk
05/08/2020, 16:48:13,6.4773707,-4.5391846,1.8687944,-0.24544334,0.8205867,0.9463611,8.127294809292005,1.2764028810686947,walk
05/08/2020, 16:48:13,6.4773707,-4.5391846,1.8687944,-0.31138334,0.7570889,0.9732256,8.127294809292005,1.2717355229432594,walk
05/08/2020, 16:48:13,6.1854467,-4.4315076,1.8783658,-0.31138334,0.7570889,0.9732256,7.837491229390738,1.2717355229432594,walk
05/08/2020, 16:48:13,6.1854467,-4.4315076,1.8783658,-0.3614489,0.68260115,0.99886894,7.837491229390738,1.2626673419185035,walk
05/08/2020, 16:48:13,5.9700923,-4.302295,1.9094725,-0.3614489,0.68260115,0.99886894,7.602488486217627,1.2626673419185035,walk
05/08/2020, 16:48:13,5.9700923,-4.302295,1.9094725,-0.39808223,0.6020078,1.009859,7.602488486217627,1.2412485604704693,walk
05/08/2020, 16:48:14,11.167303,-6.558727,5.9174504,1.24187,0.91583335,1.8841745,14.23874203858797,2.4353860805696588,walk
05/08/2020, 16:48:14,11.976077,-7.281359,6.3050876,1.24187,0.91583335,1.8841745,15.368758673922503,2.4353860805696588,walk
05/08/2020, 16:48:14,11.976077,-7.281359,6.3050876,1.6472789,0.8816423,1.8817323,15.368758673922503,2.6517423556636497,walk
05/08/2020, 16:48:14,12.734602,-7.6402826,6.695118,1.6472789,0.8816423,1.8817323,16.290138443219462,2.6517423556636497,walk
05/08/2020, 16:48:14,12.734602,-7.6402826,6.695118,2.019718,0.9060645,1.8707423,16.290138443219462,2.8982564159101,walk
05/08/2020, 16:48:14,13.3687,-7.6666036,6.95115,2.019718,0.9060645,1.8707423,16.906136050136723,2.8982564159101,walk
05/08/2020, 16:48:14,13.3687,-7.6666036,6.95115,2.2956889,0.9878789,1.845099,16.906136050136723,3.106522549772841,walk
05/08/2020, 16:48:14,13.818551,-7.554141,7.0085773,2.2956889,0.9878789,1.845099,17.237678406434593,3.106522549772841,walk
05/08/2020, 16:48:14,13.818551,-7.554141,7.0085773,2.4336746,1.1344123,1.8243401,17.237678406434593,3.2462100965947323,walk
05/08/2020, 16:48:14,14.026727,-7.32443,6.829116,2.4336746,1.1344123,1.8243401,17.234650003664893,3.2462100965947323,walk
05/08/2020, 16:48:14,14.026727,-7.32443,6.829116,2.4153578,1.3261267,1.8365512,17.234650003664893,3.311417478915783,walk
05/08/2020, 16:48:14,13.971691,-6.960721,6.3696938,2.4153578,1.3261267,1.8365512,16.859204865139905,3.311417478915783,walk
05/08/2020, 16:48:14,13.971691,-6.960721,6.3696938,2.2529502,1.5337156,1.8829534,16.859204865139905,3.31263968029735,walk
05/08/2020, 16:48:14,13.679767,-6.4701924,5.828916,2.2529502,1.5337156,1.8829534,16.21652454846568,3.31263968029735,walk
05/08/2020, 16:48:14,13.679767,-6.4701924,5.828916,1.9757578,1.7437468,1.9488934,16.21652454846568,3.2775688214077725,walk
05/08/2020, 16:48:14,13.210773,-5.9007006,5.2953167,1.9757578,1.7437468,1.9488934,15.407244456514041,3.2775688214077725,walk
05/08/2020, 16:48:14,13.210773,-5.9007006,5.2953167,1.6179723,1.9269134,2.0258234,15.407244456514041,3.23029250349061,walk
05/08/2020, 16:48:14,12.58864,-5.3718867,4.776074,1.6179723,1.9269134,2.0258234,14.49627233687449,3.23029250349061,walk
05/08/2020, 16:48:14,12.58864,-5.3718867,4.776074,1.2211112,2.0514667,2.1235123,14.49627233687449,3.1951420152878143,walk
05/08/2020, 16:48:14,11.942577,-4.847859,4.4051867,1.2211112,2.0514667,2.1235123,13.621033715113121,3.1951420152878143,walk
05/08/2020, 16:48:15,8.01117,-6.125626,5.312066,-1.5361578,-0.39564002,-1.5398211,11.398253899299776,2.210737686550732,walk
05/08/2020, 16:48:15,7.8699937,-6.0753765,5.4436717,-1.5361578,-0.39564002,-1.5398211,11.334926642367158,2.210737686550732,walk
05/08/2020, 16:48:15,7.8699937,-6.0753765,5.4436717,-1.471439,-0.34435335,-1.4567856,11.334926642367158,2.09903219066224,walk
05/08/2020, 16:48:15,7.6977105,-5.9700923,5.5130634,-1.471439,-0.34435335,-1.4567856,11.19332915535858,2.09903219066224,walk
05/08/2020, 16:48:15,7.6977105,-5.9700923,5.5130634,-1.4042778,-0.28940335,-1.3664234,11.19332915535858,1.9806219387320945,walk
05/08/2020, 16:48:15,7.5110703,-5.8887367,5.491528,-1.4042778,-0.28940335,-1.3664234,11.011370336501958,1.9806219387320945,walk
05/08/2020, 16:48:15,7.5110703,-5.8887367,5.491528,-1.3200212,-0.26009667,-1.2650712,11.011370336501958,1.8467569261110428,walk
05/08/2020, 16:48:15,7.3172517,-5.871987,5.4699926,-1.3200212,-0.26009667,-1.2650712,10.860166729478397,1.8467569261110428,walk
05/08/2020, 16:48:15,7.3172517,-5.871987,5.4699926,-1.2247745,-0.2503278,-1.1588345,10.860166729478397,1.704591983879071,walk
05/08/2020, 16:48:15,7.173682,-5.8265233,5.505885,-1.2247745,-0.2503278,-1.1588345,10.757549037932096,1.704591983879071,walk
05/08/2020, 16:48:15,7.173682,-5.8265233,5.505885,-1.1246433,-0.23811668,-1.0355023,10.757549037932096,1.5471868690622572,walk
05/08/2020, 16:48:15,7.0731835,-5.6877394,5.6207404,-1.1246433,-0.23811668,-1.0355023,10.675815065180265,1.5471868690622572,walk
05/08/2020, 16:48:15,7.0731835,-5.6877394,5.6207404,-1.05504,-0.21613668,-0.9060645,10.675815065180265,1.407400925992275,walk
05/08/2020, 16:48:15,6.975078,-5.5226345,5.7547383,-1.05504,-0.21613668,-0.9060645,10.595669857521058,1.407400925992275,walk
05/08/2020, 16:48:15,6.975078,-5.5226345,5.7547383,-1.0086378,-0.17950334,-0.77906895,10.595669857521058,1.2870586835605393,walk
05/08/2020, 16:48:15,6.9344,-5.319245,5.9150577,-1.0086378,-0.17950334,-0.77906895,10.55311221872106,1.2870586835605393,walk
05/08/2020, 16:48:15,6.9344,-5.319245,5.9150577,-0.98055226,-0.13798556,-0.6520734,10.55311221872106,1.1856316621255474,walk
05/08/2020, 16:48:15,6.91765,-5.087141,6.1184473,-0.98055226,-0.13798556,-0.6520734,10.543637225546966,1.1856316621255474,walk
05/08/2020, 16:48:15,6.91765,-5.087141,6.1184473,-0.96712005,-0.085477784,-0.5336256,10.543637225546966,1.1078736070844317,walk
05/08/2020, 16:48:15,6.869794,-4.84068,6.309873,-0.96712005,-0.085477784,-0.5336256,10.509079443710927,1.1078736070844317,walk
05/08/2020, 16:48:16,4.955536,-1.9884356,2.8402805,-0.16240779,0.38465002,-0.123332225,6.048008406739568,0.4353650948066011,walk
05/08/2020, 16:48:16,4.955536,-1.9884356,2.8402805,-0.20636779,0.29306668,-0.25399113,6.048008406739568,0.43930312634782376,walk
05/08/2020, 16:48:16,4.9938207,-1.9357935,2.806781,-0.20636779,0.29306668,-0.25399113,6.04678106827344,0.43930312634782376,walk
05/08/2020, 16:48:16,4.9938207,-1.9357935,2.806781,-0.26986557,0.2075889,-0.3724389,6.04678106827344,0.5046100642216422,walk
05/08/2020, 16:48:16,5.022535,-1.8999012,2.8163524,-0.26986557,0.2075889,-0.3724389,6.063606297853624,0.5046100642216422,walk
05/08/2020, 16:48:16,5.022535,-1.8999012,2.8163524,-0.32725778,0.12211112,-0.48844448,6.063606297853624,0.6004887916624616,walk
05/08/2020, 16:48:16,5.0416775,-1.9525433,2.821138,-0.32725778,0.12211112,-0.48844448,6.098340431490503,0.6004887916624616,walk
05/08/2020, 16:48:16,5.0416775,-1.9525433,2.821138,-0.36389112,0.019537779,-0.6032289,6.098340431490503,0.7047578402565641,walk
05/08/2020, 16:48:16,5.0823555,-2.0171494,2.778067,-0.36389112,0.019537779,-0.6032289,6.1332606496625015,0.7047578402565641,walk
05/08/2020, 16:48:16,5.0823555,-2.0171494,2.778067,-0.38465002,-0.09036223,-0.71923447,6.1332606496625015,0.8206212216806159,walk
05/08/2020, 16:48:16,5.15414,-2.07697,2.7421749,-0.38465002,-0.09036223,-0.71923447,6.1966512630366095,0.8206212216806159,walk
05/08/2020, 16:48:16,5.15414,-2.07697,2.7421749,-0.39808223,-0.20148334,-0.82425004,6.1966512630366095,0.9372583034842551,walk
05/08/2020, 16:48:16,5.2426744,-2.132005,2.6775684,-0.39808223,-0.20148334,-0.82425004,6.261026456934463,0.9372583034842551,walk
05/08/2020, 16:48:16,5.2426744,-2.132005,2.6775684,-0.4273889,-0.31871,-0.91217005,6.261026456934463,1.0565469917515462,walk
05/08/2020, 16:48:16,5.345566,-2.0961127,2.5531418,-0.4273889,-0.31871,-0.91217005,6.283891745038695,1.0565469917515462,walk
05/08/2020, 16:48:16,5.345566,-2.0961127,2.5531418,-0.46158,-0.45059,-0.99886894,6.283891745038695,1.189044418419725,walk
05/08/2020, 16:48:16,5.491528,-2.0721843,2.4095724,-0.46158,-0.45059,-0.99886894,6.344829942267536,1.189044418419725,walk
05/08/2020, 16:48:16,5.491528,-2.0721843,2.4095724,-0.5104245,-0.56659555,-1.1002212,6.344829942267536,1.3386748229194527,walk
05/08/2020, 16:48:16,5.721239,-2.065006,2.3162522,-0.5104245,-0.56659555,-1.1002212,6.508598234490295,1.3386748229194527,walk
05/08/2020, 16:48:16,5.721239,-2.065006,2.3162522,-0.5885756,-0.6581789,-1.18692,6.508598234490295,1.4793241478034587,walk
05/08/2020, 16:48:17,5.8073807,-5.1182475,4.658826,0.3724389,1.8267823,2.7291834,9.034754363558244,3.3051908724029144,walk
05/08/2020, 16:48:17,5.8073807,-5.1182475,4.658826,0.39075556,1.74741,2.6180623,9.034754363558244,3.171810494107003,walk
05/08/2020, 16:48:17,5.2331033,-4.9579287,4.56072,0.39075556,1.74741,2.6180623,8.530333702704434,3.171810494107003,walk
05/08/2020, 16:48:17,5.2331033,-4.9579287,4.56072,0.40174556,1.6497211,2.504499,8.530333702704434,3.025804749997096,walk
05/08/2020, 16:48:17,4.752146,-4.8215375,4.4889355,0.40174556,1.6497211,2.504499,8.122847706579112,3.025804749997096,walk
05/08/2020, 16:48:17,4.752146,-4.8215375,4.4889355,0.3931978,1.5459267,2.3909357,8.122847706579112,2.874207224994854,walk
05/08/2020, 16:48:17,4.3836513,-4.666004,4.3405805,0.3931978,1.5459267,2.3909357,7.73489703323423,2.874207224994854,walk
05/08/2020, 16:48:17,4.3836513,-4.666004,4.3405805,0.3724389,1.4445745,2.2712667,7.73489703323423,2.717380829367418,walk
05/08/2020, 16:48:17,4.1204405,-4.508078,4.2185464,0.3724389,1.4445745,2.2712667,7.422730734988491,2.717380829367418,walk
05/08/2020, 16:48:17,4.1204405,-4.508078,4.2185464,0.3309211,1.3700867,2.1332812,7.422730734988491,2.5568603944437633,walk
05/08/2020, 16:48:17,3.8644085,-4.362116,4.15394,0.3309211,1.3700867,2.1332812,7.156600238164783,2.5568603944437633,walk
05/08/2020, 16:48:17,3.8644085,-4.362116,4.15394,0.2869611,1.3078101,1.9916323,7.156600238164783,2.3998569205502855,walk
05/08/2020, 16:48:17,3.6203406,-4.2759743,4.0295134,0.2869611,1.3078101,1.9916323,6.901289724148555,2.3998569205502855,walk
05/08/2020, 16:48:17,3.6203406,-4.2759743,4.0295134,0.23933779,1.2430911,1.8597523,6.901289724148555,2.249719245336823,walk
05/08/2020, 16:48:17,3.3212378,-4.168297,3.9026937,0.23933779,1.2430911,1.8597523,6.605780602205917,2.249719245336823,walk
05/08/2020, 16:48:17,3.3212378,-4.168297,3.9026937,0.20270446,1.16494,1.7315357,6.605780602205917,2.096757040731276,walk
05/08/2020, 16:48:17,3.0532417,-4.098905,3.8333018,0.20270446,1.16494,1.7315357,6.388858311547289,2.096757040731276,walk
05/08/2020, 16:48:17,3.0532417,-4.098905,3.8333018,0.18438779,1.0721356,1.61553,6.388858311547289,1.947668030784276,walk
05/08/2020, 16:48:17,2.8187451,-4.022335,3.6993039,0.18438779,1.0721356,1.61553,6.148931005182298,1.947668030784276,walk
05/08/2020, 16:48:17,2.8187451,-4.022335,3.6993039,0.17950334,0.96956223,1.4921979,6.148931005182298,1.7885544043584043,walk
05/08/2020, 16:48:18,7.3292155,-5.6590257,5.328816,-0.117226675,-0.25643334,-0.6996967,10.68355048892724,0.7543710291704586,walk
05/08/2020, 16:48:18,7.314859,-5.5920267,5.328816,-0.117226675,-0.25643334,-0.6996967,10.638336474524547,0.7543710291704586,walk
05/08/2020, 16:48:18,7.314859,-5.5920267,5.328816,-0.07204556,-0.18683001,-0.6068922,10.638336474524547,0.6390729168102983,walk
05/08/2020, 16:48:18,7.245467,-5.5106707,5.2953167,-0.07204556,-0.18683001,-0.6068922,10.53112837258893,0.6390729168102983,walk
05/08/2020, 16:48:18,7.245467,-5.5106707,5.2953167,-0.045181114,-0.12455334,-0.5140878,10.53112837258893,0.5308871153330125,walk
05/08/2020, 16:48:18,7.111469,-5.426922,5.178068,-0.045181114,-0.12455334,-0.5140878,10.336191705131945,0.5308871153330125,walk
05/08/2020, 16:48:18,7.111469,-5.426922,5.178068,-0.039075557,-0.081814446,-0.4261678,10.336191705131945,0.43570573165278803,walk
05/08/2020, 16:48:18,6.975078,-5.326423,5.0368915,-0.039075557,-0.081814446,-0.4261678,10.11893146208453,0.43570573165278803,walk
05/08/2020, 16:48:18,6.975078,-5.326423,5.0368915,-0.023201112,-0.025643334,-0.3260367,10.11893146208453,0.3278655158210322,walk
05/08/2020, 16:48:18,6.9344,-5.3144593,4.9028935,-0.023201112,-0.025643334,-0.3260367,10.018370500922709,0.3278655158210322,walk
05/08/2020, 16:48:18,6.9344,-5.3144593,4.9028935,0.008547778,0.0,-0.22346334,10.018370500922709,0.22362676393737993,walk
05/08/2020, 16:48:18,7.001399,-5.3336015,4.773681,0.008547778,0.0,-0.22346334,10.012738140264617,0.22362676393737993,walk
05/08/2020, 16:48:18,7.001399,-5.3336015,4.773681,0.048844445,0.02198,-0.12211112,10.012738140264617,0.1333417629585859,walk
05/08/2020, 16:48:18,7.1282187,-5.326423,4.733003,0.048844445,0.02198,-0.12211112,10.07886916369566,0.1333417629585859,walk
05/08/2020, 16:48:18,7.1282187,-5.326423,4.733003,0.08792,0.06349778,-0.029306669,10.07886916369566,0.11234222708836847,walk
05/08/2020, 16:48:18,7.245467,-5.2833524,4.735396,0.08792,0.06349778,-0.029306669,10.1407387043864,0.11234222708836847,walk
05/08/2020, 16:48:18,7.245467,-5.2833524,4.735396,0.10867889,0.12089001,0.070824444,10.1407387043864,0.1773177858654891,walk
05/08/2020, 16:48:18,7.3268228,-5.1828537,4.7545385,0.10867889,0.12089001,0.070824444,10.156275935425015,0.1773177858654891,walk
05/08/2020, 16:48:18,7.3268228,-5.1828537,4.7545385,0.11844778,0.17828223,0.16362889,10.156275935425015,0.2694231702370035,walk
05/08/2020, 16:48:18,7.3986077,-5.06082,4.709075,0.11844778,0.17828223,0.16362889,10.125546087908004,0.2694231702370035,walk
05/08/2020, 16:48:19,10.813166,-5.4149575,4.814359,-1.0623667,-2.1051955,-2.6998768,13.016311730407715,3.5846625920893533,walk
05/08/2020, 16:48:19,10.813166,-5.4149575,4.814359,-1.1112112,-2.0758889,-2.7536056,13.016311730407715,3.623044123511592,walk
05/08/2020, 16:48:19,11.004591,-5.6853466,5.003392,-1.1112112,-2.0758889,-2.7536056,13.358821898654869,3.623044123511592,walk
05/08/2020, 16:48:19,11.004591,-5.6853466,5.003392,-1.1160955,-2.041698,-2.7731435,13.358821898654869,3.6200172562605513,walk
05/08/2020, 16:48:19,11.224731,-6.068198,5.2019963,-1.1160955,-2.041698,-2.7731435,13.77963683277869,3.6200172562605513,walk
05/08/2020, 16:48:19,11.224731,-6.068198,5.2019963,-1.0953367,-2.00018,-2.7877967,13.77963683277869,3.601706974401948,walk
05/08/2020, 16:48:19,11.440085,-6.4438715,5.343173,-1.0953367,-2.00018,-2.7877967,14.175631629441327,3.601706974401948,walk
05/08/2020, 16:48:19,11.440085,-6.4438715,5.343173,-1.020849,-1.9586623,-2.789018,14.175631629441327,3.557683443952129,walk
05/08/2020, 16:48:19,11.619547,-6.704689,5.45085,-1.020849,-1.9586623,-2.789018,14.480279372280394,3.557683443952129,walk
05/08/2020, 16:48:19,11.619547,-6.704689,5.45085,-0.94391894,-1.9183656,-2.79146,14.480279372280394,3.516156805052037,walk
05/08/2020, 16:48:19,11.743974,-6.8219376,5.5226345,-0.94391894,-1.9183656,-2.79146,14.661488430367351,3.516156805052037,walk
05/08/2020, 16:48:19,11.743974,-6.8219376,5.5226345,-0.90362227,-1.8756268,-2.7768068,14.661488430367351,3.4706145402373454,walk
05/08/2020, 16:48:19,11.799008,-6.855437,5.5274205,-0.90362227,-1.8756268,-2.7768068,14.722974898464193,3.4706145402373454,walk
05/08/2020, 16:48:19,11.799008,-6.855437,5.5274205,-0.90240115,-1.8170134,-2.7389524,14.722974898464193,3.408478503385858,walk
05/08/2020, 16:48:19,11.832508,-6.8458657,5.4556355,-0.90240115,-1.8170134,-2.7389524,14.718630520744265,3.408478503385858,walk
05/08/2020, 16:48:19,11.832508,-6.8458657,5.4556355,-0.92316,-1.7522945,-2.70354,14.718630520744265,3.3514011358102045,walk
05/08/2020, 16:48:19,11.842079,-6.802795,5.386244,-0.92316,-1.7522945,-2.70354,14.680752034162321,3.3514011358102045,walk
05/08/2020, 16:48:19,11.842079,-6.802795,5.386244,-0.9500245,-1.691239,-2.6778967,14.680752034162321,3.3066549284537508,walk
05/08/2020, 16:48:19,11.844472,-6.7836523,5.304888,-0.9500245,-1.691239,-2.6778967,14.644155428283936,3.3066549284537508,walk
05/08/2020, 16:48:19,11.844472,-6.7836523,5.304888,-0.9952056,-1.636289,-2.6376002,14.644155428283936,3.259572145228929,walk
05/08/2020, 16:48:20,5.5298133,-3.7591243,3.507878,-0.10135223,0.6655056,0.79250115,7.550831668307399,1.0398211564623665,walk
05/08/2020, 16:48:20,5.5298133,-3.7591243,3.507878,-0.11356334,0.60811335,0.70580226,7.550831668307399,0.9385389223625715,walk
05/08/2020, 16:48:20,5.319245,-3.7686956,3.4887354,-0.11356334,0.60811335,0.70580226,7.3938290027296185,0.9385389223625715,walk
05/08/2020, 16:48:20,5.319245,-3.7686956,3.4887354,-0.11478445,0.5336256,0.62765115,7.3938290027296185,0.831791876647727,walk
05/08/2020, 16:48:20,5.1182475,-3.7304106,3.4528432,-0.11478445,0.5336256,0.62765115,7.2134975370778305,0.831791876647727,walk
05/08/2020, 16:48:20,5.1182475,-3.7304106,3.4528432,-0.10745778,0.44692668,0.5421733,7.2134975370778305,0.7108041572261851,walk
05/08/2020, 16:48:20,5.003392,-3.7591243,3.4600215,-0.10745778,0.44692668,0.5421733,7.150992784170075,0.7108041572261851,walk
05/08/2020, 16:48:20,5.003392,-3.7591243,3.4600215,-0.11844778,0.35900667,0.4689067,7.150992784170075,0.6023198169891513,walk
05/08/2020, 16:48:20,4.9674997,-3.8333018,3.4480574,-0.11844778,0.35900667,0.4689067,7.159563958626034,0.6023198169891513,walk
05/08/2020, 16:48:20,4.9674997,-3.8333018,3.4480574,-0.14897557,0.2820767,0.40907225,7.159563958626034,0.5187495370921877,walk
05/08/2020, 16:48:20,4.9986067,-3.9696927,3.4289148,-0.14897557,0.2820767,0.40907225,7.245825388008256,0.5187495370921877,walk
05/08/2020, 16:48:20,4.9986067,-3.9696927,3.4289148,-0.21003112,0.21491556,0.3602278,7.245825388008256,0.46911174867266214,walk
05/08/2020, 16:48:20,5.087141,-4.074977,3.4049866,-0.21003112,0.21491556,0.3602278,7.353800019009323,0.46911174867266214,walk
05/08/2020, 16:48:20,5.087141,-4.074977,3.4049866,-0.30649891,0.1526389,0.31871,7.353800019009323,0.46777802589169665,walk
05/08/2020, 16:48:20,5.1732826,-4.1371903,3.3667014,-0.30649891,0.1526389,0.31871,7.430603952829591,0.46777802589169665,walk
05/08/2020, 16:48:20,5.1732826,-4.1371903,3.3667014,-0.40663,0.102573335,0.2869611,7.430603952829591,0.5081495167799557,walk
05/08/2020, 16:48:20,5.261817,-4.101298,3.2709885,-0.40663,0.102573335,0.2869611,7.4301229833173785,0.5081495167799557,walk
05/08/2020, 16:48:20,5.261817,-4.101298,3.2709885,-0.5006556,0.054950003,0.24178001,7.4301229833173785,0.5586887314807154,walk
05/08/2020, 16:48:20,5.3096733,-4.017549,3.2135608,-0.5006556,0.054950003,0.24178001,7.393260719425788,0.5586887314807154,walk
05/08/2020, 16:48:20,5.3096733,-4.017549,3.2135608,-0.5873545,-0.0036633336,0.18805112,7.393260719425788,0.6167348945436242,walk
05/08/2020, 16:48:21,8.906086,-6.5491557,3.9026937,0.34069002,0.69481224,1.7083346,11.723515953236609,1.8754308092850343,walk
05/08/2020, 16:48:21,9.073584,-6.7022963,3.9553359,0.34069002,0.69481224,1.7083346,11.953885403727122,1.8754308092850343,walk
05/08/2020, 16:48:21,9.073584,-6.7022963,3.9553359,0.4249467,0.6618422,1.7669479,11.953885403727122,1.9340939963805548,walk
05/08/2020, 16:48:21,9.217153,-6.8219376,4.0271206,0.4249467,0.6618422,1.7669479,12.153700436651249,1.9340939963805548,walk
05/08/2020, 16:48:21,9.217153,-6.8219376,4.0271206,0.52019334,0.6386411,1.8316667,12.153700436651249,2.0083492020462295,walk
05/08/2020, 16:48:21,9.394221,-6.8602223,4.0869412,0.52019334,0.6386411,1.8316667,12.329522829766596,2.0083492020462295,walk
05/08/2020, 16:48:21,9.394221,-6.8602223,4.0869412,0.59468114,0.62154555,1.8878379,12.329522829766596,2.074583433929036,walk
05/08/2020, 16:48:21,9.561719,-6.862615,4.1084766,0.59468114,0.62154555,1.8878379,12.466015222211086,2.074583433929036,walk
05/08/2020, 16:48:21,9.561719,-6.862615,4.1084766,0.65451556,0.61788225,1.9403456,12.466015222211086,2.1389507528203833,walk
05/08/2020, 16:48:21,9.707682,-6.7812595,4.091727,0.65451556,0.61788225,1.9403456,12.528638875724388,2.1389507528203833,walk
05/08/2020, 16:48:21,9.707682,-6.7812595,4.091727,0.70336,0.6191034,1.9891901,12.528638875724388,2.1988364116143164,walk
05/08/2020, 16:48:21,9.8727865,-6.7166533,4.0295134,0.70336,0.6191034,1.9891901,12.602472924078626,2.1988364116143164,walk
05/08/2020, 16:48:21,9.8727865,-6.7166533,4.0295134,0.7387723,0.63009334,2.0307078,12.602472924078626,2.2509056842652444,walk
05/08/2020, 16:48:21,9.994821,-6.6831536,4.0031924,0.7387723,0.63009334,2.0307078,12.672274095229522,2.2509056842652444,walk
05/08/2020, 16:48:21,9.994821,-6.6831536,4.0031924,0.7534256,0.6447467,2.0710046,12.672274095229522,2.2961726067108197,walk
05/08/2020, 16:48:21,10.10489,-6.6281185,4.0103707,0.7534256,0.6447467,2.0710046,12.732785544826445,2.2961726067108197,walk
05/08/2020, 16:48:21,10.10489,-6.6281185,4.0103707,0.76441556,0.66306335,2.1003113,12.732785544826445,2.3313711897054032,walk
05/08/2020, 16:48:21,10.183853,-6.599405,4.1084766,0.76441556,0.66306335,2.1003113,12.811814435556572,2.3313711897054032,walk
05/08/2020, 16:48:21,10.183853,-6.599405,4.1084766,0.7986067,0.69237006,2.1174068,12.811814435556572,2.36655037869818,walk
05/08/2020, 16:48:21,10.24846,-6.6017976,4.328616,0.7986067,0.69237006,2.1174068,12.93644377731645,2.36655037869818,walk
05/08/2020, 16:48:22,8.743374,-6.6687965,4.3788652,0.49455002,-0.9597934,-1.7132189,11.836126677919518,2.025068434449223,walk
05/08/2020, 16:48:22,8.743374,-6.6687965,4.3788652,0.5092034,-0.9549089,-1.6533846,11.836126677919518,1.9760616442929966,walk
05/08/2020, 16:48:22,8.7673025,-6.448657,4.4985065,0.5092034,-0.9549089,-1.6533846,11.776558583343599,1.9760616442929966,walk
05/08/2020, 16:48:22,8.7673025,-6.448657,4.4985065,0.46035892,-0.92071784,-1.5874445,11.776558583343599,1.8919915024525906,walk
05/08/2020, 16:48:22,8.748159,-6.2261243,4.558327,0.46035892,-0.92071784,-1.5874445,11.665044514053951,1.8919915024525906,walk
05/08/2020, 16:48:22,8.748159,-6.2261243,4.558327,0.34557447,-0.8645467,-1.5312734,11.665044514053951,1.7921107265259022,walk
05/08/2020, 16:48:22,8.702696,-6.0346985,4.5631127,0.34557447,-0.8645467,-1.5312734,11.53154363724694,1.7921107265259022,walk
05/08/2020, 16:48:22,8.702696,-6.0346985,4.5631127,0.21003112,-0.7998278,-1.4702178,11.53154363724694,1.6868248440078715,walk
05/08/2020, 16:48:22,8.642876,-5.919843,4.517649,0.21003112,-0.7998278,-1.4702178,11.408461658064427,1.6868248440078715,walk
05/08/2020, 16:48:22,8.642876,-5.919843,4.517649,0.10013112,-0.7119078,-1.4152678,11.408461658064427,1.5873947142426281,walk
05/08/2020, 16:48:22,8.484949,-5.938986,4.45065,0.10013112,-0.7119078,-1.4152678,11.27271934337105,1.5873947142426281,walk
05/08/2020, 16:48:22,8.484949,-5.938986,4.45065,0.05617111,-0.6337567,-1.3627601,11.27271934337105,1.5039673351460723,walk
05/08/2020, 16:48:22,8.305488,-6.0897336,4.402794,0.05617111,-0.6337567,-1.3627601,11.20047204950285,1.5039673351460723,walk
05/08/2020, 16:48:22,8.305488,-6.0897336,4.402794,0.078151114,-0.5922389,-1.3017045,11.20047204950285,1.43223223948391,walk
05/08/2020, 16:48:22,8.142776,-6.2883377,4.359723,0.078151114,-0.5922389,-1.3017045,11.173861014797072,1.43223223948391,walk
05/08/2020, 16:48:22,8.142776,-6.2883377,4.359723,0.1526389,-0.5800278,-1.21989,11.173861014797072,1.359361067448773,walk
05/08/2020, 16:48:22,8.059027,-6.503692,4.371687,0.1526389,-0.5800278,-1.21989,11.240888305135528,1.359361067448773,walk
05/08/2020, 16:48:22,8.059027,-6.503692,4.371687,0.23689556,-0.5592689,-1.1270856,11.240888305135528,1.2803214731199741,walk
05/08/2020, 16:48:22,8.04467,-6.5754766,4.4554358,0.23689556,-0.5592689,-1.1270856,11.305066031366886,1.2803214731199741,walk
05/08/2020, 16:48:22,8.04467,-6.5754766,4.4554358,0.31016225,-0.52141446,-1.0342811,11.305066031366886,1.1990876207269832,walk
05/08/2020, 16:48:23,5.2833524,-4.479364,3.9984066,0.17217667,-0.74732006,-1.229659,7.99786028630182,1.4492043452221652,walk
05/08/2020, 16:48:23,5.2833524,-4.479364,3.9984066,0.25765446,-0.7949434,-1.3163579,7.99786028630182,1.559204543593471,walk
05/08/2020, 16:48:23,5.4556355,-4.5128636,4.058227,0.25765446,-0.7949434,-1.3163579,8.160827428301129,1.559204543593471,walk
05/08/2020, 16:48:23,5.4556355,-4.5128636,4.058227,0.3724389,-0.84623003,-1.4091623,8.160827428301129,1.6853944177425761,walk
05/08/2020, 16:48:23,5.6279187,-4.5152564,4.1204405,0.3724389,-0.84623003,-1.4091623,8.30897342023563,1.6853944177425761,walk
05/08/2020, 16:48:23,5.6279187,-4.5152564,4.1204405,0.49943447,-0.90240115,-1.515399,8.30897342023563,1.833083929143288,walk
05/08/2020, 16:48:23,5.797809,-4.493721,4.141976,0.49943447,-0.90240115,-1.515399,8.424018241104461,1.833083929143288,walk
05/08/2020, 16:48:23,5.797809,-4.493721,4.141976,0.59346,-0.9744467,-1.6167512,8.424018241104461,1.9787939814333833,walk
05/08/2020, 16:48:23,5.9581285,-4.438686,4.1180477,0.59346,-0.9744467,-1.6167512,8.494677398025603,1.9787939814333833,walk
05/08/2020, 16:48:23,5.9581285,-4.438686,4.1180477,0.5885756,-1.053819,-1.7119979,8.494677398025603,2.0947296471802126,walk
05/08/2020, 16:48:23,6.1160545,-4.4578285,4.0773697,0.5885756,-1.053819,-1.7119979,8.596702960531328,2.0947296471802126,walk
05/08/2020, 16:48:23,6.1160545,-4.4578285,4.0773697,0.42372558,-1.1148745,-1.7803801,8.596702960531328,2.142951674836134,walk
05/08/2020, 16:48:23,6.3625154,-4.5224347,4.0534415,0.42372558,-1.1148745,-1.7803801,8.795703880725059,2.142951674836134,walk
05/08/2020, 16:48:23,6.3625154,-4.5224347,4.0534415,0.17706113,-1.1405178,-1.8157923,8.795703880725059,2.15156531899597,walk
05/08/2020, 16:48:23,6.735796,-4.570291,4.022335,0.17706113,-1.1405178,-1.8157923,9.079520191027852,2.15156531899597,walk
05/08/2020, 16:48:23,6.735796,-4.570291,4.022335,-0.06227667,-1.1380756,-1.8646368,9.079520191027852,2.18539807570881,walk
05/08/2020, 16:48:23,7.140183,-4.465007,3.938586,-0.06227667,-1.1380756,-1.8646368,9.29682518404307,2.18539807570881,walk
05/08/2020, 16:48:23,7.140183,-4.465007,3.938586,-0.2820767,-1.1429601,-1.9427879,9.29682518404307,2.271640321664946,walk
05/08/2020, 16:48:23,7.513463,-4.395615,3.9098723,-0.2820767,-1.1429601,-1.9427879,9.54257093366158,2.271640321664946,walk
05/08/2020, 16:48:23,7.513463,-4.395615,3.9098723,-0.49821335,-1.1576134,-2.0111701,9.54257093366158,2.373413298732991,walk
05/08/2020, 16:48:24,9.255438,-4.1204405,4.240082,1.3615389,1.2101212,1.9733156,10.982688794139994,2.6855457162083067,walk
05/08/2020, 16:48:24,8.99462,-3.792624,4.2352962,1.3615389,1.2101212,1.9733156,10.640720175762763,2.6855457162083067,walk
05/08/2020, 16:48:24,8.99462,-3.792624,4.2352962,1.28583,1.2003523,1.9330189,10.640720175762763,2.6135735439107433,walk
05/08/2020, 16:48:24,8.738588,-3.5198421,4.2520456,1.28583,1.2003523,1.9330189,10.335961825254381,2.6135735439107433,walk
05/08/2020, 16:48:24,8.738588,-3.5198421,4.2520456,1.2076789,1.2089001,1.8829534,10.335961825254381,2.542723210196886,walk
05/08/2020, 16:48:24,8.518449,-3.3164523,4.220939,1.2076789,1.2089001,1.8829534,10.068721541252543,2.542723210196886,walk
05/08/2020, 16:48:24,8.518449,-3.3164523,4.220939,1.1612767,1.2064579,1.8255612,10.068721541252543,2.477252044407705,walk
05/08/2020, 16:48:24,8.2456665,-3.2542388,4.1922255,1.1612767,1.2064579,1.8255612,9.805908464942627,2.477252044407705,walk
05/08/2020, 16:48:24,8.2456665,-3.2542388,4.1922255,1.1490656,1.174709,1.7547368,9.805908464942627,2.4040370425909408,walk
05/08/2020, 16:48:24,7.946564,-3.199204,4.091727,1.1490656,1.174709,1.7547368,9.493419648180703,2.4040370425909408,walk
05/08/2020, 16:48:24,7.946564,-3.199204,4.091727,1.1673822,1.1160955,1.6778067,9.493419648180703,2.328837906767453,walk
05/08/2020, 16:48:24,7.652247,-3.103491,4.0414777,1.1673822,1.1160955,1.6778067,9.193589182866502,2.328837906767453,walk
05/08/2020, 16:48:24,7.652247,-3.103491,4.0414777,1.1881411,1.0513767,1.5935501,9.193589182866502,2.2486605200157794,walk
05/08/2020, 16:48:24,7.3986077,-2.9838498,3.9768713,1.1881411,1.0513767,1.5935501,8.91393632039357,2.2486605200157794,walk
05/08/2020, 16:48:24,7.3986077,-2.9838498,3.9768713,1.1844778,0.99032116,1.4983034,8.91393632039357,2.1514266871971275,walk
05/08/2020, 16:48:24,7.1186476,-2.8474588,3.9242291,1.1844778,0.99032116,1.4983034,8.612940237077723,2.1514266871971275,walk
05/08/2020, 16:48:24,7.1186476,-2.8474588,3.9242291,1.1234223,0.92438114,1.40672,8.612940237077723,2.0237142459028465,walk
05/08/2020, 16:48:24,6.8506513,-2.6368906,3.9433718,1.1234223,0.92438114,1.40672,8.33275440540431,2.0237142459028465,walk
05/08/2020, 16:48:24,6.8506513,-2.6368906,3.9433718,1.01108,0.8621045,1.3175789,8.33275440540431,1.8712351898380035,walk
05/08/2020, 16:48:24,6.5922265,-2.4358935,3.9720855,1.01108,0.8621045,1.3175789,8.07270033147421,1.8712351898380035,walk
05/08/2020, 16:48:25,7.3579297,-4.0558343,5.2809596,-0.31260446,-0.12211112,-0.20881,9.923580792441918,0.3952648338277326,walk
05/08/2020, 16:48:25,7.3579297,-4.0558343,5.2809596,-0.22712667,-0.07204556,-0.14164889,9.923580792441918,0.2772029860532598,walk
05/08/2020, 16:48:25,7.338787,-4.058227,5.3072805,-0.22712667,-0.07204556,-0.14164889,9.924425898388034,0.2772029860532598,walk
05/08/2020, 16:48:25,7.338787,-4.058227,5.3072805,-0.13554333,-0.02198,-0.064718895,9.924425898388034,0.15180135200401446,walk
05/08/2020, 16:48:25,7.32443,-4.0558343,5.2905307,-0.13554333,-0.02198,-0.064718895,9.903877087788647,0.15180135200401446,walk
05/08/2020, 16:48:25,7.32443,-4.0558343,5.2905307,-0.05250778,0.036633335,0.012211111,9.903877087788647,0.06517805988516447,walk
05/08/2020, 16:48:25,7.350751,-4.0845485,5.359923,-0.05250778,0.036633335,0.012211111,9.972253943228715,0.06517805988516447,walk
05/08/2020, 16:48:25,7.350751,-4.0845485,5.359923,0.029306669,0.08792,0.09402556,9.972253943228715,0.1320212618514485,walk
05/08/2020, 16:48:25,7.391429,-4.132405,5.395815,0.029306669,0.08792,0.09402556,10.04115579697404,0.1320212618514485,walk
05/08/2020, 16:48:25,7.391429,-4.132405,5.395815,0.11356334,0.13676445,0.18316667,10.04115579697404,0.2552472818159512,walk
05/08/2020, 16:48:25,7.4584284,-4.199404,5.4221363,0.11356334,0.13676445,0.18316667,10.132260756353073,0.2552472818159512,walk
05/08/2020, 16:48:25,7.4584284,-4.199404,5.4221363,0.19782001,0.19171445,0.27475002,10.132260756353073,0.3890690964754625,walk
05/08/2020, 16:48:25,7.597212,-4.208975,5.4843497,0.19782001,0.19171445,0.27475002,10.271863941465144,0.3890690964754625,walk
05/08/2020, 16:48:25,7.597212,-4.208975,5.4843497,0.2955089,0.24544334,0.36999667,10.271863941465144,0.533353047762526,walk
05/08/2020, 16:48:25,7.7551384,-4.223332,5.5250273,0.2955089,0.24544334,0.36999667,10.416555598019295,0.533353047762526,walk
05/08/2020, 16:48:25,7.7551384,-4.223332,5.5250273,0.37854445,0.29795113,0.4689067,10.416555598019295,0.6722680056736211,walk
05/08/2020, 16:48:25,7.91785,-4.208975,5.532206,0.37854445,0.29795113,0.4689067,10.536276475263271,0.6722680056736211,walk
05/08/2020, 16:48:25,7.91785,-4.208975,5.532206,0.43349445,0.36755446,0.5653745,10.536276475263271,0.8016620442275217,walk
05/08/2020, 16:48:25,8.111669,-4.1228333,5.5298133,0.43349445,0.36755446,0.5653745,10.64780523406928,0.8016620442275217,walk
05/08/2020, 16:48:25,8.111669,-4.1228333,5.5298133,0.4481478,0.45181113,0.6581789,10.64780523406928,0.9155158400357005,walk
05/08/2020, 16:48:26,10.406385,-3.8907297,4.9459643,-0.13920668,-1.8292245,-2.2175379,12.161134737143623,2.8780053682684446,walk
05/08/2020, 16:48:26,10.406385,-3.8907297,4.9459643,-0.27963445,-1.7974756,-2.2175379,12.161134737143623,2.8682029426245395,walk
05/08/2020, 16:48:26,10.506885,-3.7686956,4.883751,-0.27963445,-1.7974756,-2.2175379,12.183953091947354,2.8682029426245395,walk
05/08/2020, 16:48:26,10.506885,-3.7686956,4.883751,-0.4359367,-1.7547368,-2.2260857,12.183953091947354,2.867856228347416,walk
05/08/2020, 16:48:26,10.621739,-3.6729827,4.883751,-0.4359367,-1.7547368,-2.2260857,12.254108391970101,2.867856228347416,walk
05/08/2020, 16:48:26,10.621739,-3.6729827,4.883751,-0.6007867,-1.7046711,-2.2346334,12.254108391970101,2.874097247774891,walk
05/08/2020, 16:48:26,10.738988,-3.739982,4.8861437,-0.6007867,-1.7046711,-2.2346334,12.376902934222477,2.874097247774891,walk
05/08/2020, 16:48:26,10.738988,-3.739982,4.8861437,-0.7680789,-1.6594901,-2.2468445,12.376902934222477,2.8969230219225066,walk
05/08/2020, 16:48:26,10.827522,-3.8261235,4.912465,-0.7680789,-1.6594901,-2.2468445,12.490267124664205,2.8969230219225066,walk
05/08/2020, 16:48:26,10.827522,-3.8261235,4.912465,-0.9304867,-1.6069822,-2.251729,12.490267124664205,2.9186436734434444,walk
05/08/2020, 16:48:26,10.939985,-3.8907297,5.005785,-0.9304867,-1.6069822,-2.251729,12.644324359380077,2.9186436734434444,walk
05/08/2020, 16:48:26,10.939985,-3.8907297,5.005785,-1.0623667,-1.5483689,-2.2468445,12.644324359380077,2.928204184252961,walk
05/08/2020, 16:48:26,11.023734,-3.9768713,5.103891,-1.0623667,-1.5483689,-2.2468445,12.782328449033248,2.928204184252961,walk
05/08/2020, 16:48:26,11.023734,-3.9768713,5.103891,-1.1551712,-1.4873134,-2.2566135,12.782328449033248,2.9391879789390525,walk
05/08/2020, 16:48:26,11.083554,-4.0941195,5.194818,-1.1551712,-1.4873134,-2.2566135,12.907095891349655,2.9391879789390525,walk
05/08/2020, 16:48:26,11.083554,-4.0941195,5.194818,-1.2150056,-1.4323634,-2.2456234,12.907095891349655,2.927580538669991,walk
05/08/2020, 16:48:26,11.107483,-4.240082,5.2139606,-1.2150056,-1.4323634,-2.2456234,12.98229008285264,2.927580538669991,walk
05/08/2020, 16:48:26,11.107483,-4.240082,5.2139606,-1.2504178,-1.3810767,-2.2273068,12.98229008285264,2.903758487100274,walk
05/08/2020, 16:48:26,11.0811615,-4.359723,5.2019963,-1.2504178,-1.3810767,-2.2273068,12.994617785032977,2.903758487100274,walk
05/08/2020, 16:48:26,11.0811615,-4.359723,5.2019963,-1.2626289,-1.3200212,-2.2041056,12.994617785032977,2.862650726089903,walk
05/08/2020, 16:48:27,5.2833524,-2.2612174,4.0295134,0.06594,-0.7766267,-0.6007867,7.018824271878374,0.9840943889112022,walk
05/08/2020, 16:48:27,5.2833524,-2.2612174,4.0295134,0.06227667,-0.86088336,-0.7082445,7.018824271878374,1.1165163724842029,walk
05/08/2020, 16:48:27,5.4628143,-2.4933212,4.141976,0.06227667,-0.86088336,-0.7082445,7.294858128276928,1.1165163724842029,walk
05/08/2020, 16:48:27,5.4628143,-2.4933212,4.141976,0.07570889,-0.95735115,-0.7986067,7.294858128276928,1.2490098910378111,walk
05/08/2020, 16:48:27,5.709275,-2.7086751,4.2257247,0.07570889,-0.95735115,-0.7986067,7.601939795137689,1.2490098910378111,walk
05/08/2020, 16:48:27,5.709275,-2.7086751,4.2257247,0.11600556,-1.0623667,-0.8816423,7.601939795137689,1.3854145445284851,walk
05/08/2020, 16:48:27,5.9676995,-2.87378,4.362116,0.11600556,-1.0623667,-0.8816423,7.930958579355449,1.3854145445284851,walk
05/08/2020, 16:48:27,5.9676995,-2.87378,4.362116,0.16729222,-1.1661612,-0.9597934,7.930958579355449,1.5195795252664022,walk
05/08/2020, 16:48:27,6.2955165,-2.8881369,4.486542,0.16729222,-1.1661612,-0.9597934,8.252510137335788,1.5195795252664022,walk
05/08/2020, 16:48:27,6.2955165,-2.8881369,4.486542,0.1856089,-1.2467545,-1.0330601,8.252510137335788,1.6297425037128366,walk
05/08/2020, 16:48:27,6.63769,-2.8522446,4.5631127,0.1856089,-1.2467545,-1.0330601,8.544953283402238,1.6297425037128366,walk
05/08/2020, 16:48:27,6.63769,-2.8522446,4.5631127,0.15019667,-1.3078101,-1.0977789,8.544953283402238,1.7140725666176313,walk
05/08/2020, 16:48:27,6.908079,-2.8115666,4.6061835,0.15019667,-1.3078101,-1.0977789,8.766036213986018,1.7140725666176313,walk
05/08/2020, 16:48:27,6.908079,-2.8115666,4.6061835,0.07570889,-1.3578756,-1.1502867,8.766036213986018,1.7812123329838616,walk
05/08/2020, 16:48:27,7.1880393,-2.6991038,4.615755,0.07570889,-1.3578756,-1.1502867,8.95869775612607,1.7812123329838616,walk
05/08/2020, 16:48:27,7.1880393,-2.6991038,4.615755,-0.035412222,-1.4006145,-1.2137845,8.95869775612607,1.853711873365811,walk
05/08/2020, 16:48:27,7.475178,-2.5603201,4.5415773,-0.035412222,-1.4006145,-1.2137845,9.113695548911286,1.853711873365811,walk
05/08/2020, 16:48:27,7.475178,-2.5603201,4.5415773,-0.19049335,-1.4372479,-1.2650712,9.113695548911286,1.9241554471883473,walk
05/08/2020, 16:48:27,7.7312098,-2.4646072,4.4889355,-0.19049335,-1.4372479,-1.2650712,9.273426269474236,1.9241554471883473,walk
05/08/2020, 16:48:27,7.7312098,-2.4646072,4.4889355,-0.38709223,-1.4592278,-1.3175789,9.273426269474236,2.0037964863631323,walk
05/08/2020, 16:48:28,10.810773,-4.8215375,4.517649,1.8194556,0.7973856,2.1674724,12.670011384139091,2.940098461152876,walk
05/08/2020, 16:48:28,10.899307,-4.816752,4.421936,1.8194556,0.7973856,2.1674724,12.710213069216662,2.940098461152876,walk
05/08/2020, 16:48:28,10.899307,-4.816752,4.421936,1.8805112,0.7998278,2.1955578,12.710213069216662,2.999420105528886,walk
05/08/2020, 16:48:28,10.944771,-4.718646,4.371687,1.8805112,0.7998278,2.1955578,12.695088631067584,2.999420105528886,walk
05/08/2020, 16:48:28,10.944771,-4.718646,4.371687,1.8780689,0.80593336,2.2273068,12.695088631067584,3.0228409203730395,walk
05/08/2020, 16:48:28,11.002198,-4.570291,4.2999024,1.8780689,0.80593336,2.2273068,12.665902528215806,3.0228409203730395,walk
05/08/2020, 16:48:28,11.002198,-4.570291,4.2999024,1.8402145,0.8327978,2.2505078,12.665902528215806,3.0240249817655473,walk
05/08/2020, 16:48:28,11.13859,-4.465007,4.302295,1.8402145,0.8327978,2.2505078,12.748106293902472,3.0240249817655473,walk
05/08/2020, 16:48:28,11.13859,-4.465007,4.302295,1.8267823,0.8975167,2.2773724,12.748106293902472,3.0543567051031904,walk
05/08/2020, 16:48:28,11.255837,-4.5008993,4.3669014,1.8267823,0.8975167,2.2773724,12.884944662152101,3.0543567051031904,walk
05/08/2020, 16:48:28,11.255837,-4.5008993,4.3669014,1.8805112,0.94880337,2.3042367,12.884944662152101,3.1218674872035157,walk
05/08/2020, 16:48:28,11.277373,-4.6636114,4.2759743,1.8805112,0.94880337,2.3042367,12.931062456462135,3.1218674872035157,walk
05/08/2020, 16:48:28,11.277373,-4.6636114,4.2759743,1.9830846,0.9646778,2.31889,12.931062456462135,3.2000748303518307,walk
05/08/2020, 16:48:28,11.203196,-4.7377887,4.1371903,1.9830846,0.9646778,2.31889,12.848135136964379,3.2000748303518307,walk
05/08/2020, 16:48:28,11.203196,-4.7377887,4.1371903,2.0490246,0.9426978,2.32988,12.848135136964379,3.2427645201796906,walk
05/08/2020, 16:48:28,11.093125,-4.5918264,3.9960139,2.0490246,0.9426978,2.32988,12.653474892496845,3.2427645201796906,walk
05/08/2020, 16:48:28,11.093125,-4.5918264,3.9960139,2.0343711,0.93537116,2.3335435,12.653474892496845,3.2340393600132655,walk
05/08/2020, 16:48:28,11.006984,-4.2855453,3.900301,2.0343711,0.93537116,2.3335435,12.439129314314343,3.2340393600132655,walk
05/08/2020, 16:48:28,11.006984,-4.2855453,3.900301,1.9366823,0.9597934,2.3262167,12.439129314314343,3.175409575700681,walk
05/08/2020, 16:48:28,10.939985,-3.993621,3.7974095,1.9366823,0.9597934,2.3262167,12.249596179997633,3.175409575700681,walk
05/08/2020, 16:48:29,8.13799,-3.7998023,5.2737813,0.07326667,0.058613338,0.31382558,10.415284342998953,0.3275515553041434,walk
05/08/2020, 16:48:29,8.195417,-3.8356948,5.355137,0.07326667,0.058613338,0.31382558,10.514509587259699,0.3275515553041434,walk
05/08/2020, 16:48:29,8.195417,-3.8356948,5.355137,0.123332225,0.11234222,0.35900667,10.514509587259699,0.3958754907618052,walk
05/08/2020, 16:48:29,8.185846,-3.8572302,5.424529,0.123332225,0.11234222,0.35900667,10.550441721620064,0.3958754907618052,walk
05/08/2020, 16:48:29,8.185846,-3.8572302,5.424529,0.17217667,0.14897557,0.41151446,10.550441721620064,0.47030062512382365,walk
05/08/2020, 16:48:29,8.228917,-3.8213377,5.460421,0.17217667,0.14897557,0.41151446,10.589329404873034,0.47030062512382365,walk
05/08/2020, 16:48:29,8.228917,-3.8213377,5.460421,0.22712667,0.18194556,0.4566956,10.589329404873034,0.5415363070618522,walk
05/08/2020, 16:48:29,8.303095,-3.8380876,5.465207,0.22712667,0.18194556,0.4566956,10.65555203038974,0.5415363070618522,walk
05/08/2020, 16:48:29,8.303095,-3.8380876,5.465207,0.28940335,0.23689556,0.5006556,10.65555203038974,0.6249238567367132,walk
05/08/2020, 16:48:29,8.348558,-3.8572302,5.4341,0.28940335,0.23689556,0.5006556,10.682045541648392,0.6249238567367132,walk
05/08/2020, 16:48:29,8.348558,-3.8572302,5.4341,0.3504589,0.30039334,0.54950005,10.682045541648392,0.7176405069045384,walk
05/08/2020, 16:48:29,8.3174515,-3.842873,5.4173503,0.3504589,0.30039334,0.54950005,10.644029166490446,0.7176405069045384,walk
05/08/2020, 16:48:29,8.3174515,-3.842873,5.4173503,0.4041878,0.35412225,0.5971234,10.644029166490446,0.8033222775388109,walk
05/08/2020, 16:48:29,8.219346,-3.8333018,5.4125648,0.4041878,0.35412225,0.5971234,10.561614895900496,0.8033222775388109,walk
05/08/2020, 16:48:29,8.219346,-3.8333018,5.4125648,0.46035892,0.3944189,0.6471889,10.561614895900496,0.8867638201844648,walk
05/08/2020, 16:48:29,8.159525,-3.778267,5.4460645,0.46035892,0.3944189,0.6471889,10.512505216877324,0.8867638201844648,walk
05/08/2020, 16:48:29,8.159525,-3.778267,5.4460645,0.5128667,0.41884112,0.69481224,10.512505216877324,0.959804230236081,walk
05/08/2020, 16:48:29,8.257631,-3.6658044,5.532206,0.5128667,0.41884112,0.69481224,10.593955842316419,0.959804230236081,walk
05/08/2020, 16:48:29,8.257631,-3.6658044,5.532206,0.53973114,0.44082114,0.72534,10.593955842316419,1.0058583972954476,walk
05/08/2020, 16:48:29,8.551949,-3.6131623,5.5393844,0.53973114,0.44082114,0.72534,10.810899350016276,1.0058583972954476,walk
05/08/2020, 16:48:30,10.636097,-2.804388,3.0604203,-0.8718734,-1.5386001,-1.4189311,11.417413148094449,2.267337416183329,walk
05/08/2020, 16:48:30,10.621739,-2.8474588,3.103491,-0.8718734,-1.5386001,-1.4189311,11.426330393737517,2.267337416183329,walk
05/08/2020, 16:48:30,10.621739,-2.8474588,3.103491,-0.9426978,-1.5105145,-1.4799867,11.426330393737517,2.3153172071844303,walk
05/08/2020, 16:48:30,10.578669,-2.9503503,3.1369905,-0.9426978,-1.5105145,-1.4799867,11.421624478335117,2.3153172071844303,walk
05/08/2020, 16:48:30,10.578669,-2.9503503,3.1369905,-0.98910004,-1.4958612,-1.5398211,11.421624478335117,2.3636769454935647,walk
05/08/2020, 16:48:30,10.559526,-3.089134,3.1872396,-0.98910004,-1.4958612,-1.5398211,11.454468298912168,2.3636769454935647,walk
05/08/2020, 16:48:30,10.559526,-3.089134,3.1872396,-1.0086378,-1.4873134,-1.5837811,11.454468298912168,2.395373446597425,walk
05/08/2020, 16:48:30,10.578669,-3.2303107,3.2973096,-1.0086378,-1.4873134,-1.5837811,11.541897034349853,2.395373446597425,walk
05/08/2020, 16:48:30,10.578669,-3.2303107,3.2973096,-1.0184067,-1.46167,-1.6240778,11.541897034349853,2.4106555758647135,walk
05/08/2020, 16:48:30,10.648061,-3.35713,3.4887354,-1.0184067,-1.46167,-1.6240778,11.697127677374594,2.4106555758647135,walk
05/08/2020, 16:48:30,10.648061,-3.35713,3.4887354,-1.0257334,-1.4335845,-1.6582689,11.697127677374594,2.420154773606713,walk
05/08/2020, 16:48:30,10.707881,-3.5294135,3.6275191,-1.0257334,-1.4335845,-1.6582689,11.8437481135229,2.420154773606713,walk
05/08/2020, 16:48:30,10.707881,-3.5294135,3.6275191,-1.0367234,-1.40672,-1.6778067,11.8437481135229,2.422538353522008,walk
05/08/2020, 16:48:30,10.7844515,-3.739982,3.723232,-1.0367234,-1.40672,-1.6778067,12.006428074851188,2.422538353522008,walk
05/08/2020, 16:48:30,10.7844515,-3.739982,3.723232,-1.0306178,-1.3590968,-1.6887968,12.006428074851188,2.4002815726609374,walk
05/08/2020, 16:48:30,10.834701,-3.888337,3.830909,-1.0306178,-1.3590968,-1.6887968,12.132014031035084,2.4002815726609374,walk
05/08/2020, 16:48:30,10.834701,-3.888337,3.830909,-1.0171856,-1.3004833,-1.6863545,12.132014031035084,2.360024358930492,walk
05/08/2020, 16:48:30,10.762917,-3.938586,3.8691943,-1.0171856,-1.3004833,-1.6863545,12.09642496481421,2.360024358930492,walk
05/08/2020, 16:48:30,10.762917,-3.938586,3.8691943,-1.0074167,-1.2491968,-1.6765857,12.09642496481421,2.3208447914605586,walk
05/08/2020, 16:48:30,10.636097,-3.9553359,3.9170506,-1.0074167,-1.2491968,-1.6765857,12.004770949721872,2.3208447914605586,walk
05/08/2020, 16:48:31,6.745367,-4.302295,4.005585,-0.05006556,0.85599893,1.119759,8.94731431445078,1.4103548739604153,walk
05/08/2020, 16:48:31,6.745367,-4.302295,4.005585,-0.08792,0.8095967,1.0416079,8.94731431445078,1.322166290171058,walk
05/08/2020, 16:48:31,6.599405,-4.23051,3.9577286,-0.08792,0.8095967,1.0416079,8.78139946601708,1.322166290171058,walk
05/08/2020, 16:48:31,6.599405,-4.23051,3.9577286,-0.11844778,0.75098336,0.95735115,8.78139946601708,1.222508527859947,walk
05/08/2020, 16:48:31,6.4965134,-4.141976,3.8955152,-0.11844778,0.75098336,0.95735115,8.633405400650155,1.222508527859947,walk
05/08/2020, 16:48:31,6.4965134,-4.141976,3.8955152,-0.15386,0.6935911,0.8718734,8.633405400650155,1.1246798334638084,walk
05/08/2020, 16:48:31,6.4127645,-4.0677986,3.8285162,-0.15386,0.6935911,0.8718734,8.504591193567396,1.1246798334638084,walk
05/08/2020, 16:48:31,6.4127645,-4.0677986,3.8285162,-0.17828223,0.63619894,0.78029,8.504591193567396,1.0224412640568277,walk
05/08/2020, 16:48:31,6.317052,-4.017549,3.751946,-0.17828223,0.63619894,0.78029,8.373944315664463,1.0224412640568277,walk
05/08/2020, 16:48:31,6.317052,-4.017549,3.751946,-0.18805112,0.5788067,0.6887067,8.373944315664463,0.9190741704069831,walk
05/08/2020, 16:48:31,6.192625,-3.952943,3.696911,-0.18805112,0.5788067,0.6887067,8.22444622206444,0.9190741704069831,walk
05/08/2020, 16:48:31,6.192625,-3.952943,3.696911,-0.18927222,0.5238567,0.5885756,8.22444622206444,0.8103524267061479,walk
05/08/2020, 16:48:31,6.096912,-3.9242291,3.6323047,-0.18927222,0.5238567,0.5885756,8.10959594500504,0.8103524267061479,walk
05/08/2020, 16:48:31,6.096912,-3.9242291,3.6323047,-0.16851334,0.46158,0.4921078,8.10959594500504,0.6954300439217377,walk
05/08/2020, 16:48:31,6.0011992,-3.9290147,3.5988052,-0.16851334,0.46158,0.4921078,8.025144705883694,0.6954300439217377,walk
05/08/2020, 16:48:31,6.0011992,-3.9290147,3.5988052,-0.12455334,0.3944189,0.4041878,8.025144705883694,0.5783144259940395,walk
05/08/2020, 16:48:31,5.9150577,-3.9768713,3.5988052,-0.12455334,0.3944189,0.4041878,7.9846609731314455,0.5783144259940395,walk
05/08/2020, 16:48:31,5.9150577,-3.9768713,3.5988052,-0.064718895,0.3162678,0.31016225,7.9846609731314455,0.4476767453159548,walk
05/08/2020, 16:48:31,5.852844,-3.9840498,3.5270207,-0.064718895,0.3162678,0.31016225,7.9100134911793125,0.4476767453159548,walk
05/08/2020, 16:48:31,5.852844,-3.9840498,3.5270207,0.0024422223,0.22712667,0.21003112,7.9100134911793125,0.3093631558084612,walk
05/08/2020, 16:48:32,9.513863,-3.885944,5.089534,0.6423045,1.0245123,1.2772822,11.46810777911834,1.7588719097676329,walk
05/08/2020, 16:48:32,9.513863,-3.885944,5.089534,0.6447467,1.053819,1.3163579,11.46810777911834,1.8052785620480678,walk
05/08/2020, 16:48:32,9.5665045,-3.9242291,5.056034,0.6447467,1.053819,1.3163579,11.510041833961019,1.8052785620480678,walk
05/08/2020, 16:48:32,9.5665045,-3.9242291,5.056034,0.64841,1.0831256,1.3481067,11.510041833961019,1.8468861337444096,walk
05/08/2020, 16:48:32,9.662218,-4.031906,5.0368915,0.64841,1.0831256,1.3481067,11.618304570892631,1.8468861337444096,walk
05/08/2020, 16:48:32,9.662218,-4.031906,5.0368915,0.65940005,1.1136534,1.3932878,11.618304570892631,1.9016527536707208,walk
05/08/2020, 16:48:32,9.753145,-4.0797625,5.020142,0.65940005,1.1136534,1.3932878,11.703423851545368,1.9016527536707208,walk
05/08/2020, 16:48:32,9.753145,-4.0797625,5.020142,0.66428447,1.1331911,1.4372479,11.703423851545368,1.9470689226246403,walk
05/08/2020, 16:48:32,9.8321085,-4.125226,5.0129633,0.66428447,1.1331911,1.4372479,11.78209014685436,1.9470689226246403,walk
05/08/2020, 16:48:32,9.8321085,-4.125226,5.0129633,0.6801589,1.1441811,1.4738811,11.78209014685436,1.9859738625231527,walk
05/08/2020, 16:48:32,9.937392,-4.168297,5.046463,0.6801589,1.1441811,1.4738811,11.899296268944617,1.9859738625231527,walk
05/08/2020, 16:48:32,9.937392,-4.168297,5.046463,0.69481224,1.1515079,1.5178412,11.899296268944617,2.0279488046042755,walk
05/08/2020, 16:48:32,10.076176,-4.2424746,5.127819,0.69481224,1.1515079,1.5178412,12.07569605500701,2.0279488046042755,walk
05/08/2020, 16:48:32,10.076176,-4.2424746,5.127819,0.7167922,1.1686034,1.5581379,12.07569605500701,2.0753839993048286,walk
05/08/2020, 16:48:32,10.205389,-4.3262234,5.2235317,0.7167922,1.1686034,1.5581379,12.253630378191133,2.0753839993048286,walk
05/08/2020, 16:48:32,10.205389,-4.3262234,5.2235317,0.7448778,1.1893623,1.6033189,12.253630378191133,2.1307409980731844,walk
05/08/2020, 16:48:32,10.327422,-4.369294,5.35753,0.7448778,1.1893623,1.6033189,12.427771665450788,2.1307409980731844,walk
05/08/2020, 16:48:32,10.327422,-4.369294,5.35753,0.76075226,1.2150056,1.6423945,12.427771665450788,2.1800097550339883,walk
05/08/2020, 16:48:32,10.437492,-4.3262234,5.395815,0.76075226,1.2150056,1.6423945,12.520873533863936,2.1800097550339883,walk
05/08/2020, 16:48:32,10.437492,-4.3262234,5.395815,0.73755115,1.2491968,1.67048,12.520873533863936,2.212459658623157,walk
05/08/2020, 16:48:33,9.276974,-4.8239303,4.479364,-0.61299783,-0.5470578,-1.3884034,11.37529101968244,1.61328938161701,walk
05/08/2020, 16:48:33,9.212367,-4.9603214,4.4554358,-0.61299783,-0.5470578,-1.3884034,11.372044812112899,1.61328938161701,walk
05/08/2020, 16:48:33,9.212367,-4.9603214,4.4554358,-0.54339445,-0.5018767,-1.3163579,11.372044812112899,1.5099522344120595,walk
05/08/2020, 16:48:33,9.06162,-4.996214,4.453043,-0.54339445,-0.5018767,-1.3163579,11.265198530477903,1.5099522344120595,walk
05/08/2020, 16:48:33,9.06162,-4.996214,4.453043,-0.48966557,-0.44082114,-1.2321012,11.265198530477903,1.3972004218135776,walk
05/08/2020, 16:48:33,8.915657,-4.9603214,4.4434714,-0.48966557,-0.44082114,-1.2321012,11.128259861015314,1.3972004218135776,walk
05/08/2020, 16:48:33,8.915657,-4.9603214,4.4434714,-0.45181113,-0.37976557,-1.1454023,11.128259861015314,1.2885269290155699,walk
05/08/2020, 16:48:33,8.752945,-4.8861437,4.409972,-0.45181113,-0.37976557,-1.1454023,10.951543273044933,1.2885269290155699,walk
05/08/2020, 16:48:33,8.752945,-4.8861437,4.409972,-0.42372558,-0.3260367,-1.0525978,10.951543273044933,1.18059533040961,walk
05/08/2020, 16:48:33,8.571091,-4.8215375,4.388437,-0.42372558,-0.3260367,-1.0525978,10.768899529074444,1.18059533040961,walk
05/08/2020, 16:48:33,8.571091,-4.8215375,4.388437,-0.40174556,-0.27475002,-0.9536878,10.768899529074444,1.0707041907603765,walk
05/08/2020, 16:48:33,8.346166,-4.7976093,4.3740797,-0.40174556,-0.27475002,-0.9536878,10.573935393698049,1.0707041907603765,walk
05/08/2020, 16:48:33,8.346166,-4.7976093,4.3740797,-0.3858711,-0.2295689,-0.8535567,10.573935393698049,0.964446692184938,walk
05/08/2020, 16:48:33,8.128419,-4.7425747,4.4004006,-0.3858711,-0.2295689,-0.8535567,10.388779267338606,0.964446692184938,walk
05/08/2020, 16:48:33,8.128419,-4.7425747,4.4004006,-0.36633334,-0.19049335,-0.7570889,10.388779267338606,0.8623638613164599,walk
05/08/2020, 16:48:33,7.9393854,-4.7210393,4.4578285,-0.36633334,-0.19049335,-0.7570889,10.256426663800777,0.8623638613164599,walk
05/08/2020, 16:48:33,7.9393854,-4.7210393,4.4578285,-0.3260367,-0.15386,-0.64841,10.256426663800777,0.741895128522892,walk
05/08/2020, 16:48:33,7.826923,-4.7018967,4.5128636,-0.3260367,-0.15386,-0.64841,10.18501312959978,0.741895128522892,walk
05/08/2020, 16:48:33,7.826923,-4.7018967,4.5128636,-0.27475002,-0.11600556,-0.5507211,10.18501312959978,0.6262895544449996,walk
05/08/2020, 16:48:33,7.728817,-4.7282176,4.5487556,-0.27475002,-0.11600556,-0.5507211,10.138137482737456,0.6262895544449996,walk
05/08/2020, 16:48:34,8.738588,-3.8955152,4.2520456,0.8083756,-1.3737501,-1.3920667,10.469854669860883,2.1162490784964225,walk
05/08/2020, 16:48:34,8.733803,-4.0869412,4.206582,0.8083756,-1.3737501,-1.3920667,10.520348506253438,2.1162490784964225,walk
05/08/2020, 16:48:34,8.733803,-4.0869412,4.206582,1.0440501,-1.5288311,-1.3761923,10.520348506253438,2.3067879281441024,walk
05/08/2020, 16:48:34,8.721839,-4.1108694,4.173083,1.0440501,-1.5288311,-1.3761923,10.506395303318884,2.3067879281441024,walk
05/08/2020, 16:48:34,8.721839,-4.1108694,4.173083,1.1991311,-1.6631534,-1.3725289,10.506395303318884,2.467352902471581,walk
05/08/2020, 16:48:34,8.800801,-3.991228,4.199404,1.1991311,-1.6631534,-1.3725289,10.536555265289723,2.467352902471581,walk
05/08/2020, 16:48:34,8.800801,-3.991228,4.199404,1.240649,-1.7522945,-1.3884034,10.536555265289723,2.55683595577849,walk
05/08/2020, 16:48:34,9.01137,-3.6586258,4.24726,1.240649,-1.7522945,-1.3884034,10.612706785392005,2.55683595577849,walk
05/08/2020, 16:48:34,9.01137,-3.6586258,4.24726,1.1918045,-1.8035812,-1.3981723,10.612706785392005,2.574526943266594,walk
05/08/2020, 16:48:34,9.212367,-3.2015967,4.28076,1.1918045,-1.8035812,-1.3981723,10.650954559866115,2.574526943266594,walk
05/08/2020, 16:48:34,9.212367,-3.2015967,4.28076,1.05504,-1.8353301,-1.3981723,10.650954559866115,2.5370123676302994,walk
05/08/2020, 16:48:34,9.396614,-2.684747,4.395615,1.05504,-1.8353301,-1.3981723,10.715673312214085,2.5370123676302994,walk
05/08/2020, 16:48:34,9.396614,-2.684747,4.395615,0.8498934,-1.8548678,-1.405499,10.715673312214085,2.4775554036078518,walk
05/08/2020, 16:48:34,9.60479,-2.2827528,4.508078,0.8498934,-1.8548678,-1.405499,10.852912701237107,2.4775554036078518,walk
05/08/2020, 16:48:34,9.60479,-2.2827528,4.508078,0.59468114,-1.8683001,-1.4006145,10.852912701237107,2.409545980165071,walk
05/08/2020, 16:48:34,9.84168,-1.995614,4.6899323,0.59468114,-1.8683001,-1.4006145,11.083167312454906,2.409545980165071,walk
05/08/2020, 16:48:34,9.84168,-1.995614,4.6899323,0.29673,-1.8512045,-1.3932878,11.083167312454906,2.335863370664034,walk
05/08/2020, 16:48:34,10.102497,-1.7994026,4.8909297,0.29673,-1.8512045,-1.3932878,11.367475123774213,2.335863370664034,walk
05/08/2020, 16:48:34,10.102497,-1.7994026,4.8909297,-0.01099,-1.8060234,-1.3859612,11.367475123774213,2.2765609003384766,walk
05/08/2020, 16:48:34,10.339387,-1.6941184,5.0416775,-0.01099,-1.8060234,-1.3859612,11.627186725260541,2.2765609003384766,walk
05/08/2020, 16:48:35,10.34178,-3.3523445,5.6207404,-0.10501556,2.0148335,1.4897556,12.23860057677703,2.507978057948842,walk
05/08/2020, 16:48:35,10.34178,-3.3523445,5.6207404,-0.20514667,2.0258234,1.4995245,12.23860057677703,2.528758404720054,walk
05/08/2020, 16:48:35,10.315458,-3.4313076,5.56092,-0.20514667,2.0258234,1.4995245,12.210912333630533,2.528758404720054,walk
05/08/2020, 16:48:35,10.315458,-3.4313076,5.56092,-0.2845189,2.0355923,1.5117356,12.210912333630533,2.551456737887624,walk
05/08/2020, 16:48:35,10.212567,-3.5365918,5.477171,-0.2845189,2.0355923,1.5117356,12.11624588497463,2.551456737887624,walk
05/08/2020, 16:48:35,10.212567,-3.5365918,5.477171,-0.3504589,2.0307078,1.5190623,12.11624588497463,2.560106630989038,walk
05/08/2020, 16:48:35,10.057034,-3.6346977,5.4149575,-0.3504589,2.0307078,1.5190623,11.986522255197011,2.560106630989038,walk
05/08/2020, 16:48:35,10.057034,-3.6346977,5.4149575,-0.4041878,2.0184968,1.5276101,11.986522255197011,2.5634526365220807,walk
05/08/2020, 16:48:35,9.805787,-3.7328033,5.3216376,-0.4041878,2.0184968,1.5276101,11.764655042366075,2.5634526365220807,walk
05/08/2020, 16:48:35,9.805787,-3.7328033,5.3216376,-0.42861003,1.9867479,1.5349368,11.764655042366075,2.546940233695707,walk
05/08/2020, 16:48:35,9.542577,-3.8404803,5.235496,-0.42861003,1.9867479,1.5349368,11.542117646490688,2.546940233695707,walk
05/08/2020, 16:48:35,9.542577,-3.8404803,5.235496,-0.43105224,1.954999,1.5471479,11.542117646490688,2.530117296952171,walk
05/08/2020, 16:48:35,9.288938,-3.9984066,5.2307105,-0.43105224,1.954999,1.5471479,11.385602719424945,2.530117296952171,walk
05/08/2020, 16:48:35,9.288938,-3.9984066,5.2307105,-0.4151778,1.9159234,1.5691278,11.385602719424945,2.511035036767273,walk
05/08/2020, 16:48:35,9.047262,-4.132405,5.1756754,-0.4151778,1.9159234,1.5691278,11.2123743425562,2.511035036767273,walk
05/08/2020, 16:48:35,9.047262,-4.132405,5.1756754,-0.38953447,1.8609734,1.5862234,11.2123743425562,2.4760984442968392,walk
05/08/2020, 16:48:35,8.793623,-4.199404,5.1349974,-0.38953447,1.8609734,1.5862234,11.01503494682669,2.4760984442968392,walk
05/08/2020, 16:48:35,8.793623,-4.199404,5.1349974,-0.37732336,1.7986968,1.5923289,11.01503494682669,2.431706043883356,walk
05/08/2020, 16:48:35,8.551949,-4.180261,5.111069,-0.37732336,1.7986968,1.5923289,10.804324851944491,2.431706043883356,walk
05/08/2020, 16:48:35,8.551949,-4.180261,5.111069,-0.3724389,1.7388623,1.5850023,10.804324851944491,2.3821387566602774,walk
05/08/2020, 16:48:36,7.925029,-4.302295,5.1732826,-0.34801668,0.18927222,-0.3382478,10.396089584701725,0.5209137762942001,walk
05/08/2020, 16:48:36,7.8867435,-4.319045,5.063213,-0.34801668,0.18927222,-0.3382478,10.31944759301475,0.5209137762942001,walk
05/08/2020, 16:48:36,7.8867435,-4.319045,5.063213,-0.37732336,0.25643334,-0.2613178,10.31944759301475,0.5257546589184824,walk
05/08/2020, 16:48:36,7.8077803,-4.26401,5.005785,-0.37732336,0.25643334,-0.2613178,10.207893852537396,0.5257546589184824,walk
05/08/2020, 16:48:36,7.8077803,-4.26401,5.005785,-0.41273558,0.3309211,-0.1965989,10.207893852537396,0.5643674086171683,walk
05/08/2020, 16:48:36,7.728817,-4.2185464,4.9340005,-0.41273558,0.3309211,-0.1965989,10.093319895330087,0.5643674086171683,walk
05/08/2020, 16:48:36,7.728817,-4.2185464,4.9340005,-0.4383789,0.3944189,-0.12943779,10.093319895330087,0.6037354275254397,walk
05/08/2020, 16:48:36,7.652247,-4.240082,4.907679,-0.4383789,0.3944189,-0.12943779,10.030976569525206,0.6037354275254397,walk
05/08/2020, 16:48:36,7.652247,-4.240082,4.907679,-0.4493689,0.44448447,-0.054950003,10.030976569525206,0.6344433401509199,walk
05/08/2020, 16:48:36,7.580462,-4.359723,4.8526444,-0.4493689,0.44448447,-0.054950003,10.000937323080077,0.6344433401509199,walk
05/08/2020, 16:48:36,7.580462,-4.359723,4.8526444,-0.42861003,0.4823389,0.018316668,10.000937323080077,0.6455175249466478,walk
05/08/2020, 16:48:36,7.4656067,-4.426722,4.8239303,-0.42861003,0.4823389,0.018316668,9.92982651078663,0.6455175249466478,walk
05/08/2020, 16:48:36,7.4656067,-4.426722,4.8239303,-0.3944189,0.5030978,0.08792,9.92982651078663,0.6452933910892007,walk
05/08/2020, 16:48:36,7.389036,-4.5008993,4.74736,-0.3944189,0.5030978,0.08792,9.868808410327453,0.6452933910892007,walk
05/08/2020, 16:48:36,7.389036,-4.5008993,4.74736,-0.34557447,0.5140878,0.15019667,9.868808410327453,0.6373907871399798,walk
05/08/2020, 16:48:36,7.2670026,-4.5320063,4.7210393,-0.34557447,0.5140878,0.15019667,9.779397698022777,0.6373907871399798,walk
05/08/2020, 16:48:36,7.2670026,-4.5320063,4.7210393,-0.2820767,0.5189722,0.22346334,9.779397698022777,0.6315340729248446,walk
05/08/2020, 16:48:36,7.2358956,-4.551149,4.6707897,-0.2820767,0.5189722,0.22346334,9.741017321077932,0.6315340729248446,walk
05/08/2020, 16:48:36,7.2358956,-4.551149,4.6707897,-0.21125223,0.50676113,0.29062447,9.741017321077932,0.6212060306167284,walk
05/08/2020, 16:48:36,7.216753,-4.5942197,4.644469,-0.21125223,0.50676113,0.29062447,9.734447531747906,0.6212060306167284,walk
05/08/2020, 16:48:37,7.8173513,-4.0534415,4.3070807,-0.2613178,-1.5373789,-1.5520322,9.802668755754498,2.2001420275751777,walk
05/08/2020, 16:48:37,7.8173513,-4.0534415,4.3070807,-0.3284789,-1.5788968,-1.6020979,9.802668755754498,2.2732203924704795,walk
05/08/2020, 16:48:37,8.008778,-4.0271206,4.331009,-0.3284789,-1.5788968,-1.6020979,9.955694720988637,2.2732203924704795,walk
05/08/2020, 16:48:37,8.008778,-4.0271206,4.331009,-0.4163989,-1.6094245,-1.6558267,9.955694720988637,2.3463582857591634,walk
05/08/2020, 16:48:37,8.250452,-4.1491547,4.316652,-0.4163989,-1.6094245,-1.6558267,10.194063284789774,2.3463582857591634,walk
05/08/2020, 16:48:37,8.250452,-4.1491547,4.316652,-0.5018767,-1.6277412,-1.6936811,10.194063284789774,2.4020777349223397,walk
05/08/2020, 16:48:37,8.559127,-4.3094735,4.314259,-0.5018767,-1.6277412,-1.6936811,10.50918862922842,2.4020777349223397,walk
05/08/2020, 16:48:37,8.559127,-4.3094735,4.314259,-0.58124894,-1.636289,-1.7229879,10.50918862922842,2.446217343624991,walk
05/08/2020, 16:48:37,8.839087,-4.362116,4.2975097,-0.58124894,-1.636289,-1.7229879,10.752957494222509,2.446217343624991,walk
05/08/2020, 16:48:37,8.839087,-4.362116,4.2975097,-0.6557367,-1.6485001,-1.7693901,10.752957494222509,2.5056505098583792,walk
05/08/2020, 16:48:37,9.025727,-4.3070807,4.261617,-0.6557367,-1.6485001,-1.7693901,10.870882133450284,2.5056505098583792,walk
05/08/2020, 16:48:37,9.025727,-4.3070807,4.261617,-0.7436567,-1.6594901,-1.8096868,10.870882133450284,2.56552118323918,walk
05/08/2020, 16:48:37,9.145369,-4.2257247,4.2975097,-0.7436567,-1.6594901,-1.8096868,10.952767000787865,2.56552118323918,walk
05/08/2020, 16:48:37,9.145369,-4.2257247,4.2975097,-0.8425667,-1.6655957,-1.8426567,10.952767000787865,2.622882268459983,walk
05/08/2020, 16:48:37,9.262616,-4.249653,4.4674,-0.8425667,-1.6655957,-1.8426567,11.127141185190313,2.622882268459983,walk
05/08/2020, 16:48:37,9.262616,-4.249653,4.4674,-0.9170545,-1.6631534,-1.8756268,11.127141185190313,2.6692778191928377,walk
05/08/2020, 16:48:37,9.377472,-4.2855453,4.706682,-0.9170545,-1.6631534,-1.8756268,11.33383147935006,2.6692778191928377,walk
05/08/2020, 16:48:37,9.377472,-4.2855453,4.706682,-0.9683412,-1.6729223,-1.9024912,11.33383147935006,2.712162661573241,walk
05/08/2020, 16:48:37,9.516255,-4.2281175,4.9196434,-0.9683412,-1.6729223,-1.9024912,11.516899971041013,2.712162661573241,walk
05/08/2020, 16:48:37,9.516255,-4.2281175,4.9196434,-1.0135223,-1.6924601,-1.9623257,11.516899971041013,2.7825115567908525,walk
05/08/2020, 16:48:38,7.7647095,-4.883751,4.1347976,0.59590226,0.05250778,0.94758224,10.06172386671884,1.1206108540399122,walk
05/08/2020, 16:48:38,7.795816,-4.8526444,4.1491547,0.59590226,0.05250778,0.94758224,10.076625861693573,1.1206108540399122,walk
05/08/2020, 16:48:38,7.795816,-4.8526444,4.1491547,0.6752745,0.036633335,1.0379444,10.076625861693573,1.2388164885191193,walk
05/08/2020, 16:48:38,7.8317084,-4.8502517,4.15394,0.6752745,0.036633335,1.0379444,10.105237129892185,1.2388164885191193,walk
05/08/2020, 16:48:38,7.8317084,-4.8502517,4.15394,0.7546467,0.02198,1.1246433,10.105237129892185,1.3545469354932427,walk
05/08/2020, 16:48:38,7.8556366,-4.855037,4.211368,0.7546467,0.02198,1.1246433,10.149779988312732,1.3545469354932427,walk
05/08/2020, 16:48:38,7.8556366,-4.855037,4.211368,0.83401895,0.009768889,1.2101212,10.149779988312732,1.4697197835753983,walk
05/08/2020, 16:48:38,7.8987074,-4.8885365,4.316652,0.83401895,0.009768889,1.2101212,10.243087914775783,1.4697197835753983,walk
05/08/2020, 16:48:38,7.8987074,-4.8885365,4.316652,0.92560226,-0.009768889,1.295599,10.243087914775783,1.5922976155729744,walk
05/08/2020, 16:48:38,7.948957,-4.9770713,4.4243293,0.92560226,-0.009768889,1.295599,10.369756266062153,1.5922976155729744,walk
05/08/2020, 16:48:38,7.948957,-4.9770713,4.4243293,1.0489345,-0.026864445,1.3688656,10.369756266062153,1.724754549227043,walk
05/08/2020, 16:48:38,8.066205,-5.070391,4.4674,1.0489345,-0.026864445,1.3688656,10.522841518396854,1.724754549227043,walk
05/08/2020, 16:48:38,8.066205,-5.070391,4.4674,1.1979101,-0.04151778,1.4396901,10.522841518396854,1.8733445717403288,walk
05/08/2020, 16:48:38,8.281559,-5.123033,4.56072,1.1979101,-0.04151778,1.4396901,10.753132265854457,1.8733445717403288,walk
05/08/2020, 16:48:38,8.281559,-5.123033,4.56072,1.3542123,-0.048844445,1.5031879,10.753132265854457,2.023820776987919,walk
05/08/2020, 16:48:38,8.535198,-5.1493545,4.666004,1.3542123,-0.048844445,1.5031879,11.006228003334282,2.023820776987919,walk
05/08/2020, 16:48:38,8.535198,-5.1493545,4.666004,1.4824289,-0.042738892,1.5569167,11.006228003334282,2.150212020860069,walk
05/08/2020, 16:48:38,8.7673025,-5.103891,4.807181,1.4824289,-0.042738892,1.5569167,11.22605378843077,2.150212020860069,walk
05/08/2020, 16:48:38,8.7673025,-5.103891,4.807181,1.5630223,-0.008547778,1.6033189,11.22605378843077,2.239138947718337,walk
05/08/2020, 16:48:38,8.980264,-5.072784,4.9028935,1.5630223,-0.008547778,1.6033189,11.4200104365436,2.239138947718337,walk
05/08/2020, 16:48:39,4.6325045,-3.641876,3.7950168,-0.07570889,0.014653334,0.07204556,7.008959303849128,0.10553254623474276,walk
05/08/2020, 16:48:39,4.6803613,-3.7064822,3.7998023,-0.07570889,0.014653334,0.07204556,7.07688414924961,0.10553254623474276,walk
05/08/2020, 16:48:39,4.6803613,-3.7064822,3.7998023,-0.06227667,-0.04396,-0.03052778,7.07688414924961,0.08211461830973729,walk
05/08/2020, 16:48:39,4.725825,-3.8069808,3.859623,-0.06227667,-0.04396,-0.03052778,7.19188521099133,0.08211461830973729,walk
05/08/2020, 16:48:39,4.725825,-3.8069808,3.859623,-0.017095556,-0.10013112,-0.13188,7.19188521099133,0.16646571138282257,walk
05/08/2020, 16:48:39,4.7712884,-3.9146578,3.845266,-0.017095556,-0.10013112,-0.13188,7.271575502701863,0.16646571138282257,walk
05/08/2020, 16:48:39,4.7712884,-3.9146578,3.845266,0.046402223,-0.17339778,-0.23079,7.271575502701863,0.29237643931886304,walk
05/08/2020, 16:48:39,4.8239303,-3.9864426,3.8811584,0.046402223,-0.17339778,-0.23079,7.363790985027277,0.29237643931886304,walk
05/08/2020, 16:48:39,4.8239303,-3.9864426,3.8811584,0.102573335,-0.24788557,-0.33336335,7.363790985027277,0.42790147323319755,walk
05/08/2020, 16:48:39,4.831109,-3.9696927,3.8907297,0.102573335,-0.24788557,-0.33336335,7.3644994496491165,0.42790147323319755,walk
05/08/2020, 16:48:39,4.831109,-3.9696927,3.8907297,0.1306589,-0.3162678,-0.4273889,7.3644994496491165,0.5475019069843594,walk
05/08/2020, 16:48:39,4.843073,-3.8955152,3.9338005,0.1306589,-0.3162678,-0.4273889,7.355622324510446,0.5475019069843594,walk
05/08/2020, 16:48:39,4.843073,-3.8955152,3.9338005,0.11844778,-0.37366003,-0.51164556,7.355622324510446,0.6445408192666122,walk
05/08/2020, 16:48:39,4.8933225,-3.7663028,3.9888353,0.11844778,-0.37366003,-0.51164556,7.351220923364438,0.6445408192666122,walk
05/08/2020, 16:48:39,4.8933225,-3.7663028,3.9888353,0.07448778,-0.4249467,-0.60445005,7.351220923364438,0.7426223691950626,walk
05/08/2020, 16:48:39,4.9316072,-3.6634114,4.0271206,0.07448778,-0.4249467,-0.60445005,7.34568126259177,0.7426223691950626,walk
05/08/2020, 16:48:39,4.9316072,-3.6634114,4.0271206,0.009768889,-0.47745445,-0.6874856,7.34568126259177,0.8370750284919445,walk
05/08/2020, 16:48:39,4.9435716,-3.6131623,4.005585,0.009768889,-0.47745445,-0.6874856,7.317004458255132,0.8370750284919445,walk
05/08/2020, 16:48:39,4.9435716,-3.6131623,4.005585,-0.068382226,-0.52752,-0.77418447,7.317004458255132,0.9393162761758425,walk
05/08/2020, 16:48:39,5.003392,-3.5676985,3.991228,-0.068382226,-0.52752,-0.77418447,7.327503525264563,0.9393162761758425,walk
05/08/2020, 16:48:40,10.770095,-5.575277,4.74736,1.01108,0.77906895,2.4324534,13.023674007848802,2.747009420777914,walk
05/08/2020, 16:48:40,10.770095,-5.575277,4.74736,1.0061955,0.8034911,2.4532123,13.023674007848802,2.770609652490794,walk
05/08/2020, 16:48:40,10.77488,-5.4891353,4.749753,1.0061955,0.8034911,2.4532123,12.991874666117534,2.770609652490794,walk
05/08/2020, 16:48:40,10.77488,-5.4891353,4.749753,0.9720045,0.8413456,2.481298,12.991874666117534,2.794547323531643,walk
05/08/2020, 16:48:40,10.767702,-5.453243,4.776074,0.9720045,0.8413456,2.481298,12.980452518539757,2.794547323531643,walk
05/08/2020, 16:48:40,10.767702,-5.453243,4.776074,0.92071784,0.89263225,2.504499,12.980452518539757,2.8137215023290634,walk
05/08/2020, 16:48:40,10.679168,-5.4388857,4.7210393,0.92071784,0.89263225,2.504499,12.880773010251234,2.8137215023290634,walk
05/08/2020, 16:48:40,10.679168,-5.4388857,4.7210393,0.86943114,0.93415004,2.5325844,12.880773010251234,2.8359355934573633,walk
05/08/2020, 16:48:40,10.614561,-5.3742795,4.6779685,0.86943114,0.93415004,2.5325844,12.78417679715527,2.8359355934573633,walk
05/08/2020, 16:48:40,10.614561,-5.3742795,4.6779685,0.8095967,0.98055226,2.5411322,12.78417679715527,2.841528196055329,walk
05/08/2020, 16:48:40,10.480563,-5.3240304,4.6731825,0.8095967,0.98055226,2.5411322,12.650143812770656,2.841528196055329,walk
05/08/2020, 16:48:40,10.480563,-5.3240304,4.6731825,0.7436567,1.0184067,2.548459,12.650143812770656,2.843381988199309,walk
05/08/2020, 16:48:40,10.313066,-5.3359947,4.6301117,0.7436567,1.0184067,2.548459,12.500803756621075,2.843381988199309,walk
05/08/2020, 16:48:40,10.313066,-5.3359947,4.6301117,0.6667267,1.0355023,2.559449,12.500803756621075,2.8403465480363814,walk
05/08/2020, 16:48:40,10.212567,-5.328816,4.615755,0.6667267,1.0355023,2.559449,12.409593293817096,2.8403465480363814,walk
05/08/2020, 16:48:40,10.212567,-5.328816,4.615755,0.59590226,1.0513767,2.559449,12.409593293817096,2.8304189513718994,walk
05/08/2020, 16:48:40,10.150353,-5.3383875,4.5678983,0.59590226,1.0513767,2.559449,12.344786365560392,2.8304189513718994,walk
05/08/2020, 16:48:40,10.150353,-5.3383875,4.5678983,0.5092034,1.0782411,2.548459,12.344786365560392,2.813633862547055,walk
05/08/2020, 16:48:40,10.061819,-5.316852,4.4745784,0.5092034,1.0782411,2.548459,12.228285692977845,2.813633862547055,walk
05/08/2020, 16:48:40,10.061819,-5.316852,4.4745784,0.4359367,1.1063267,2.5301423,12.228285692977845,2.79564297751505,walk
05/08/2020, 16:48:41,8.980264,-5.642276,5.4723854,0.42861003,0.9634567,1.3285689,11.934295733623593,1.6961871256748953,walk
05/08/2020, 16:48:41,9.119047,-5.7403817,5.393422,0.42861003,0.9634567,1.3285689,12.049813513005482,1.6961871256748953,walk
05/08/2020, 16:48:41,9.119047,-5.7403817,5.393422,0.46402225,0.9915423,1.3810767,12.049813513005482,1.7623409356448871,walk
05/08/2020, 16:48:41,9.241081,-5.797809,5.3742795,0.46402225,0.9915423,1.3810767,12.161211009422393,1.7623409356448871,walk
05/08/2020, 16:48:41,9.241081,-5.797809,5.3742795,0.49821335,1.0257334,1.4567856,12.161211009422393,1.8500188157179485,walk
05/08/2020, 16:48:41,9.355937,-5.864808,5.3886366,0.49821335,1.0257334,1.4567856,12.28686027261816,1.8500188157179485,walk
05/08/2020, 16:48:41,9.355937,-5.864808,5.3886366,0.52019334,1.053819,1.5434844,12.28686027261816,1.939968998583086,walk
05/08/2020, 16:48:41,9.45165,-5.9342003,5.453243,0.52019334,1.053819,1.5434844,12.42120248826814,1.939968998583086,walk
05/08/2020, 16:48:41,9.45165,-5.9342003,5.453243,0.5372889,1.075799,1.62652,12.42120248826814,2.0227679705701433,walk
05/08/2020, 16:48:41,9.5760765,-6.0107703,5.4867425,0.5372889,1.075799,1.62652,12.567217048818618,2.0227679705701433,walk
05/08/2020, 16:48:41,9.5760765,-6.0107703,5.4867425,0.5519422,1.0916734,1.6985656,12.567217048818618,2.093207129183079,walk
05/08/2020, 16:48:41,9.738789,-6.0370917,5.493921,0.5519422,1.0916734,1.6985656,12.707228095026649,2.093207129183079,walk
05/08/2020, 16:48:41,9.738789,-6.0370917,5.493921,0.5592689,1.1185378,1.7681689,12.707228095026649,2.1657169294385685,walk
05/08/2020, 16:48:41,9.925428,-6.017949,5.453243,0.5592689,1.1185378,1.7681689,12.824495972994466,2.1657169294385685,walk
05/08/2020, 16:48:41,9.925428,-6.017949,5.453243,0.53118336,1.1661612,1.8267823,12.824495972994466,2.231416904025051,walk
05/08/2020, 16:48:41,10.100104,-6.013163,5.4628143,0.53118336,1.1661612,1.8267823,12.96196660527322,2.231416904025051,walk
05/08/2020, 16:48:41,10.100104,-6.013163,5.4628143,0.49455002,1.2394278,1.8829534,12.96196660527322,2.307872295491808,walk
05/08/2020, 16:48:41,10.224531,-6.0323057,5.4125648,0.49455002,1.2394278,1.8829534,13.04705358357174,2.307872295491808,walk
05/08/2020, 16:48:41,10.224531,-6.0323057,5.4125648,0.44082114,1.2980411,1.9317979,13.04705358357174,2.368771193923202,walk
05/08/2020, 16:48:41,10.253245,-6.0323057,5.424529,0.44082114,1.2980411,1.9317979,13.074527457786742,2.368771193923202,walk
05/08/2020, 16:48:42,7.496713,-6.3290157,3.8524444,-0.47867557,0.7815111,0.60933447,10.540326194833357,1.1005355256564442,walk
05/08/2020, 16:48:42,7.496713,-6.3290157,3.8524444,-0.50554,0.81326,0.6972545,10.540326194833357,1.1845363530389617,walk
05/08/2020, 16:48:42,7.4943204,-6.431907,3.830909,-0.50554,0.81326,0.6972545,10.592928393596521,1.1845363530389617,walk
05/08/2020, 16:48:42,7.4943204,-6.431907,3.830909,-0.49699223,0.8315767,0.79128003,10.592928393596521,1.250857778142428,walk
05/08/2020, 16:48:42,7.570891,-6.4965134,3.7950168,-0.49699223,0.8315767,0.79128003,10.673576122702903,1.250857778142428,walk
05/08/2020, 16:48:42,7.570891,-6.4965134,3.7950168,-0.45303226,0.8523356,0.8730945,10.673576122702903,1.3015406856166416,walk
05/08/2020, 16:48:42,7.7072816,-6.5108705,3.804588,-0.45303226,0.8523356,0.8730945,10.782787861130952,1.3015406856166416,walk
05/08/2020, 16:48:42,7.7072816,-6.5108705,3.804588,-0.3858711,0.88896894,0.9536878,10.782787861130952,1.3596627136525117,walk
05/08/2020, 16:48:42,7.8556366,-6.5922265,3.8739798,-0.3858711,0.88896894,0.9536878,10.962490418708356,1.3596627136525117,walk
05/08/2020, 16:48:42,7.8556366,-6.5922265,3.8739798,-0.33214223,0.9194967,1.020849,10.962490418708356,1.4134798660979468,walk
05/08/2020, 16:48:42,7.999206,-6.6017976,3.9098723,-0.33214223,0.9194967,1.020849,11.084138682662081,1.4134798660979468,walk
05/08/2020, 16:48:42,7.999206,-6.6017976,3.9098723,-0.28574002,0.94880337,1.0965579,11.084138682662081,1.4779425950924303,walk
05/08/2020, 16:48:42,8.092526,-6.6257257,3.8787656,-0.28574002,0.94880337,1.0965579,11.155001041075046,1.4779425950924303,walk
05/08/2020, 16:48:42,8.092526,-6.6257257,3.8787656,-0.26009667,0.9646778,1.1673822,11.155001041075046,1.5365659278669357,walk
05/08/2020, 16:48:42,8.178668,-6.6329045,3.7663028,-0.26009667,0.9646778,1.1673822,11.183517786334841,1.5365659278669357,walk
05/08/2020, 16:48:42,8.178668,-6.6329045,3.7663028,-0.24422224,0.9610145,1.2357645,11.183517786334841,1.5843949308204934,walk
05/08/2020, 16:48:42,8.348558,-6.640083,3.603591,-0.24422224,0.9610145,1.2357645,11.259440292778892,1.5843949308204934,walk
05/08/2020, 16:48:42,8.348558,-6.640083,3.603591,-0.24055889,0.9549089,1.2870512,11.259440292778892,1.6205617531786032,walk
05/08/2020, 16:48:42,8.580662,-6.6568327,3.4791641,-0.24055889,0.9549089,1.2870512,11.403760827119008,1.6205617531786032,walk
05/08/2020, 16:48:42,8.580662,-6.6568327,3.4791641,-0.2283478,0.9524667,1.3420012,11.403760827119008,1.6614159020063965,walk
05/08/2020, 16:48:43,10.746166,-4.883751,2.5722845,-0.91583335,-1.1270856,-1.8194556,12.08088403118958,2.3279801057780096,walk
05/08/2020, 16:48:43,10.729417,-4.9435716,2.589034,-0.91583335,-1.1270856,-1.8194556,12.093898593710975,2.3279801057780096,walk
05/08/2020, 16:48:43,10.729417,-4.9435716,2.589034,-1.0037534,-1.0733567,-1.8072445,12.093898593710975,2.3293236073882424,walk
05/08/2020, 16:48:43,10.813166,-5.063213,2.536392,-1.0037534,-1.0733567,-1.8072445,12.206308226385122,2.3293236073882424,walk
05/08/2020, 16:48:43,10.813166,-5.063213,2.536392,-1.0977789,-1.0159645,-1.790149,12.206308226385122,2.3327957000197572,walk
05/08/2020, 16:48:43,10.956735,-5.180461,2.4741786,-1.0977789,-1.0159645,-1.790149,12.36967134997552,2.3327957000197572,walk
05/08/2020, 16:48:43,10.956735,-5.180461,2.4741786,-1.2150056,-0.93903446,-1.7889278,12.36967134997552,2.357601973866329,walk
05/08/2020, 16:48:43,11.119447,-5.2666025,2.5411777,-1.2150056,-0.93903446,-1.7889278,12.563310970591308,2.357601973866329,walk
05/08/2020, 16:48:43,11.119447,-5.2666025,2.5411777,-1.34078,-0.8437878,-1.7632846,12.563310970591308,2.370409531819422,walk
05/08/2020, 16:48:43,11.167303,-5.261817,2.6632116,-1.34078,-0.8437878,-1.7632846,12.6288586996588,2.370409531819422,walk
05/08/2020, 16:48:43,11.167303,-5.261817,2.6632116,-1.4787656,-0.75098336,-1.7315357,12.6288586996588,2.3976946241315504,walk
05/08/2020, 16:48:43,11.114661,-5.237889,2.766103,-1.4787656,-0.75098336,-1.7315357,12.594542435070494,2.3976946241315504,walk
05/08/2020, 16:48:43,11.114661,-5.237889,2.766103,-1.6033189,-0.6691689,-1.6961234,12.594542435070494,2.4280142196192243,walk
05/08/2020, 16:48:43,11.002198,-5.259424,2.885744,-1.6033189,-0.6691689,-1.6961234,12.531457523136641,2.4280142196192243,walk
05/08/2020, 16:48:43,11.002198,-5.259424,2.885744,-1.6887968,-0.58613336,-1.6387311,12.531457523136641,2.4250827818892353,walk
05/08/2020, 16:48:43,10.762917,-5.345566,2.9359934,-1.6887968,-0.58613336,-1.6387311,12.370751961816252,2.4250827818892353,walk
05/08/2020, 16:48:43,10.762917,-5.345566,2.9359934,-1.735199,-0.5128667,-1.5788968,12.370751961816252,2.4014293015608947,walk
05/08/2020, 16:48:43,10.447063,-5.4317074,3.0077782,-1.735199,-0.5128667,-1.5788968,12.15283132598318,2.4014293015608947,walk
05/08/2020, 16:48:43,10.447063,-5.4317074,3.0077782,-1.7339778,-0.4701278,-1.51662,12.15283132598318,2.351134934006081,walk
05/08/2020, 16:48:43,10.162318,-5.4819565,3.0293136,-1.7339778,-0.4701278,-1.51662,11.937390809630879,2.351134934006081,walk
05/08/2020, 16:48:44,3.8787656,-4.843073,2.9671001,-0.051286668,0.5006556,1.5227256,6.877780218874348,1.6037392375356176,walk
05/08/2020, 16:48:44,3.8787656,-4.843073,2.9671001,0.037854444,0.41029334,1.4152678,6.877780218874348,1.4740273407219753,walk
05/08/2020, 16:48:44,3.711268,-4.7784667,2.9048867,0.037854444,0.41029334,1.4152678,6.711603435194865,1.4740273407219753,walk
05/08/2020, 16:48:44,3.711268,-4.7784667,2.9048867,0.13188,0.31993112,1.29682,6.711603435194865,1.3421961420239592,walk
05/08/2020, 16:48:44,3.6394832,-4.6803613,2.8809586,0.13188,0.31993112,1.29682,6.591778356018768,1.3421961420239592,walk
05/08/2020, 16:48:44,3.6394832,-4.6803613,2.8809586,0.21613668,0.24666445,1.16494,6.591778356018768,1.2102246144156343,walk
05/08/2020, 16:48:44,3.5940197,-4.5822554,2.8881369,0.21613668,0.24666445,1.16494,6.5004135264037135,1.2102246144156343,walk
05/08/2020, 16:48:44,3.5940197,-4.5822554,2.8881369,0.2613178,0.1965989,1.0281756,6.5004135264037135,1.078926857759214,walk
05/08/2020, 16:48:44,3.5413775,-4.5008993,2.8594232,0.2613178,0.1965989,1.0281756,6.40123037905993,1.078926857759214,walk
05/08/2020, 16:48:44,3.5413775,-4.5008993,2.8594232,0.27841336,0.15752333,0.90240115,6.40123037905993,0.9574212403166007,walk
05/08/2020, 16:48:44,3.4791641,-4.35733,2.8426733,0.27841336,0.15752333,0.90240115,6.258729733782685,0.9574212403166007,walk
05/08/2020, 16:48:44,3.4791641,-4.35733,2.8426733,0.27719223,0.12821667,0.77052116,6.258729733782685,0.8288413077426805,walk
05/08/2020, 16:48:44,3.414558,-4.314259,2.8235307,0.27719223,0.12821667,0.77052116,6.184202658418266,0.8288413077426805,walk
05/08/2020, 16:48:44,3.414558,-4.314259,2.8235307,0.2515489,0.089141116,0.63009334,6.184202658418266,0.6842810773969461,walk
05/08/2020, 16:48:44,3.318845,-4.2687955,2.804388,0.2515489,0.089141116,0.63009334,6.091136150923914,0.6842810773969461,walk
05/08/2020, 16:48:44,3.318845,-4.2687955,2.804388,0.22346334,0.036633335,0.49577114,6.091136150923914,0.5450384292796702,walk
05/08/2020, 16:48:44,3.2350962,-4.2520456,2.778067,0.22346334,0.036633335,0.49577114,6.0219097019358045,0.5450384292796702,walk
05/08/2020, 16:48:44,3.2350962,-4.2520456,2.778067,0.19415668,-0.012211111,0.36511225,6.0219097019358045,0.4137062699451587,walk
05/08/2020, 16:48:44,3.2087753,-4.2831526,2.7637103,0.19415668,-0.012211111,0.36511225,6.023265662326541,0.4137062699451587,walk
05/08/2020, 16:48:44,3.2087753,-4.2831526,2.7637103,0.17828223,-0.059834447,0.23567446,6.023265662326541,0.3015081492112855,walk
05/08/2020, 16:48:45,10.061819,-5.7834525,4.182654,1.1344123,0.30283555,2.2175379,12.336252257244764,2.509198051640863,walk
05/08/2020, 16:48:45,10.217353,-5.771488,4.2041893,1.1344123,0.30283555,2.2175379,12.465134704845477,2.509198051640863,walk
05/08/2020, 16:48:45,10.217353,-5.771488,4.2041893,1.12098,0.32725778,2.2798145,12.465134704845477,2.561493303156985,walk
05/08/2020, 16:48:45,10.363315,-5.697311,4.2592244,1.12098,0.32725778,2.2798145,12.569750772310138,2.561493303156985,walk
05/08/2020, 16:48:45,10.363315,-5.697311,4.2592244,1.1112112,0.36999667,2.317669,12.569750772310138,2.5967820509649213,walk
05/08/2020, 16:48:45,10.537991,-5.6949177,4.3836513,1.1112112,0.36999667,2.317669,12.755302072576944,2.5967820509649213,walk
05/08/2020, 16:48:45,10.537991,-5.6949177,4.3836513,1.1026634,0.42006224,2.3555233,12.755302072576944,2.6345415350482515,walk
05/08/2020, 16:48:45,10.671989,-5.6997037,4.520042,1.1026634,0.42006224,2.3555233,12.915446565347168,2.6345415350482515,walk
05/08/2020, 16:48:45,10.671989,-5.6997037,4.520042,1.0684723,0.46524334,2.394599,12.915446565347168,2.6631163196616554,walk
05/08/2020, 16:48:45,10.782059,-5.642276,4.6061835,1.0684723,0.46524334,2.394599,13.011725218899544,2.6631163196616554,walk
05/08/2020, 16:48:45,10.782059,-5.642276,4.6061835,1.0135223,0.52019334,2.4129157,13.011725218899544,2.6683310707313894,walk
05/08/2020, 16:48:45,10.84188,-5.639883,4.615755,1.0135223,0.52019334,2.4129157,13.06368379348031,2.6683310707313894,walk
05/08/2020, 16:48:45,10.84188,-5.639883,4.615755,0.9329289,0.5788067,2.4361167,13.06368379348031,2.6720849756386333,walk
05/08/2020, 16:48:45,10.884951,-5.639883,4.5320063,0.9329289,0.5788067,2.4361167,13.070176428904922,2.6720849756386333,walk
05/08/2020, 16:48:45,10.884951,-5.639883,4.5320063,0.8498934,0.63742,2.46176,13.070176428904922,2.681209716840691,walk
05/08/2020, 16:48:45,10.875379,-5.6781683,4.4339004,0.8498934,0.63742,2.46176,13.045111247479804,2.681209716840691,walk
05/08/2020, 16:48:45,10.875379,-5.6781683,4.4339004,0.7815111,0.7009178,2.4886246,13.045111247479804,2.7009808666671855,walk
05/08/2020, 16:48:45,10.832308,-5.65424,4.371687,0.7815111,0.7009178,2.4886246,12.977710535202851,2.7009808666671855,walk
05/08/2020, 16:48:45,10.832308,-5.65424,4.371687,0.7119078,0.7448778,2.5081623,12.977710535202851,2.711555569009615,walk
05/08/2020, 16:48:45,10.719846,-5.666204,4.302295,0.7119078,0.7448778,2.5081623,12.865873655586787,2.711555569009615,walk
05/08/2020, 16:48:46,8.597412,-5.111069,3.8668015,-0.7167922,-0.34679556,-1.1185378,10.723370608780902,1.37302040338308,walk
05/08/2020, 16:48:46,8.477771,-5.072784,3.8907297,-0.7167922,-0.34679556,-1.1185378,10.618074784679202,1.37302040338308,walk
05/08/2020, 16:48:46,8.477771,-5.072784,3.8907297,-0.68504333,-0.3394689,-1.0306178,10.618074784679202,1.2832367748669904,walk
05/08/2020, 16:48:46,8.4012,-5.0392847,3.9338005,-0.68504333,-0.3394689,-1.0306178,10.55695707995509,1.2832367748669904,walk
05/08/2020, 16:48:46,8.4012,-5.0392847,3.9338005,-0.6667267,-0.3162678,-0.9524667,10.55695707995509,1.2048828500773607,walk
05/08/2020, 16:48:46,8.379665,-5.005785,3.9290147,-0.6667267,-0.3162678,-0.9524667,10.522064033279154,1.2048828500773607,walk
05/08/2020, 16:48:46,8.379665,-5.005785,3.9290147,-0.66062117,-0.27841336,-0.87065226,10.522064033279154,1.127816331127514,walk
05/08/2020, 16:48:46,8.295917,-4.9698925,3.9194436,-0.66062117,-0.27841336,-0.87065226,10.434754486650975,1.127816331127514,walk
05/08/2020, 16:48:46,8.295917,-4.9698925,3.9194436,-0.6471889,-0.23689556,-0.7888378,10.434754486650975,1.0474913084951745,walk
05/08/2020, 16:48:46,8.183454,-4.9268217,3.912265,-0.6471889,-0.23689556,-0.7888378,10.322223705854094,1.0474913084951745,walk
05/08/2020, 16:48:46,8.183454,-4.9268217,3.912265,-0.6435256,-0.1856089,-0.7106867,10.322223705854094,0.9765507780617272,walk
05/08/2020, 16:48:46,8.039884,-4.8909297,3.8931224,-0.6435256,-0.1856089,-0.7106867,10.184170272090897,0.9765507780617272,walk
05/08/2020, 16:48:46,8.039884,-4.8909297,3.8931224,-0.6349778,-0.14653334,-0.6325356,10.184170272090897,0.9081685441041591,walk
05/08/2020, 16:48:46,7.874779,-4.843073,3.9218364,-0.6349778,-0.14653334,-0.6325356,10.042325598406093,0.9081685441041591,walk
05/08/2020, 16:48:46,7.874779,-4.843073,3.9218364,-0.61788225,-0.11234222,-0.5482789,10.042325598406093,0.8336720187664208,walk
05/08/2020, 16:48:46,7.7551384,-4.8095737,4.017549,-0.61788225,-0.11234222,-0.5482789,9.970700603790274,0.8336720187664208,walk
05/08/2020, 16:48:46,7.7551384,-4.8095737,4.017549,-0.5873545,-0.07326667,-0.47501224,9.970700603790274,0.7589399991846627,walk
05/08/2020, 16:48:46,7.661818,-4.8095737,4.046263,-0.5873545,-0.07326667,-0.47501224,9.909979829114043,0.7589399991846627,walk
05/08/2020, 16:48:46,7.661818,-4.8095737,4.046263,-0.53484666,-0.05250778,-0.39686114,9.909979829114043,0.6680694437539944,walk
05/08/2020, 16:48:46,7.5996046,-4.7976093,4.0510488,-0.53484666,-0.05250778,-0.39686114,9.858095225425675,0.6680694437539944,walk
05/08/2020, 16:48:47,7.075577,-4.7210393,3.062813,0.3809867,-1.0672512,-1.3273479,9.040620695946995,1.7452874760886259,walk
05/08/2020, 16:48:47,7.075577,-4.7210393,3.062813,0.35168,-1.1112112,-1.3884034,9.040620695946995,1.8127694730938302,walk
05/08/2020, 16:48:47,7.183254,-4.6779685,3.0747771,0.35168,-1.1112112,-1.3884034,9.10696317860831,1.8127694730938302,walk
05/08/2020, 16:48:47,7.183254,-4.6779685,3.0747771,0.32237336,-1.1478444,-1.4433534,9.10696317860831,1.8720952184421655,walk
05/08/2020, 16:48:47,7.322037,-4.749753,3.1322048,0.32237336,-1.1478444,-1.4433534,9.272706688134535,1.8720952184421655,walk
05/08/2020, 16:48:47,7.322037,-4.749753,3.1322048,0.31504667,-1.1905833,-1.4983034,9.272706688134535,1.9394989638611388,walk
05/08/2020, 16:48:47,7.513463,-4.8598228,3.2063823,0.31504667,-1.1905833,-1.4983034,9.50530857001186,1.9394989638611388,walk
05/08/2020, 16:48:47,7.513463,-4.8598228,3.2063823,0.31504667,-1.240649,-1.5434844,9.50530857001186,2.0051953900568424,walk
05/08/2020, 16:48:47,7.6833534,-5.058427,3.3260236,0.31504667,-1.240649,-1.5434844,9.781821658181162,2.0051953900568424,walk
05/08/2020, 16:48:47,7.6833534,-5.058427,3.3260236,0.30405667,-1.2870512,-1.5776756,9.781821658181162,2.0586431195374884,walk
05/08/2020, 16:48:47,7.877172,-5.261817,3.4408789,0.30405667,-1.2870512,-1.5776756,10.078502066827273,2.0586431195374884,walk
05/08/2020, 16:48:47,7.877172,-5.261817,3.4408789,0.28085557,-1.3310112,-1.5886656,10.078502066827273,2.0914896612798697,walk
05/08/2020, 16:48:47,8.087741,-5.3886366,3.5174494,0.28085557,-1.3310112,-1.5886656,10.335444221598372,2.0914896612798697,walk
05/08/2020, 16:48:47,8.087741,-5.3886366,3.5174494,0.25643334,-1.3737501,-1.5959923,10.335444221598372,2.121353076511043,walk
05/08/2020, 16:48:47,8.310273,-5.35753,3.5557344,0.25643334,-1.3737501,-1.5959923,10.507474302492993,2.121353076511043,walk
05/08/2020, 16:48:47,8.310273,-5.35753,3.5557344,0.22102112,-1.4140468,-1.6094245,10.507474302492993,2.1537469015793866,walk
05/08/2020, 16:48:47,8.532805,-5.300102,3.591627,0.22102112,-1.4140468,-1.6094245,10.667691225282912,2.1537469015793866,walk
05/08/2020, 16:48:47,8.532805,-5.300102,3.591627,0.16240779,-1.4311423,-1.6191934,10.667691225282912,2.167102221186068,walk
05/08/2020, 16:48:47,8.712267,-5.1828537,3.603591,0.16240779,-1.4311423,-1.6191934,10.758784096149116,2.167102221186068,walk
05/08/2020, 16:48:47,8.712267,-5.1828537,3.603591,0.078151114,-1.4213734,-1.6314045,10.758784096149116,2.1651537014353552,walk
05/08/2020, 16:48:48,7.6737823,-6.991828,4.4171505,-0.035412222,0.9048434,2.4422224,11.282012778769126,2.604696839541555,walk
05/08/2020, 16:48:48,7.6737823,-6.991828,4.4171505,-0.046402223,0.9097278,2.4141366,11.282012778769126,2.5802739416582368,walk
05/08/2020, 16:48:48,7.436893,-6.927222,4.319045,-0.046402223,0.9097278,2.4141366,11.043003626721152,2.5802739416582368,walk
05/08/2020, 16:48:48,7.436893,-6.927222,4.319045,-0.047623336,0.9085067,2.3811667,11.043003626721152,2.5490404522748045,walk
05/08/2020, 16:48:48,7.173682,-6.91765,4.213761,-0.047623336,0.9085067,2.3811667,10.819952939827326,2.5490404522748045,walk
05/08/2020, 16:48:48,7.173682,-6.91765,4.213761,-0.03174889,0.8987378,2.349418,10.819952939827326,2.5156514444102287,walk
05/08/2020, 16:48:48,6.910472,-6.946364,4.1491547,-0.03174889,0.8987378,2.349418,10.640586370792452,2.5156514444102287,walk
05/08/2020, 16:48:48,6.910472,-6.946364,4.1491547,0.0048844446,0.88408446,2.31889,10.640586370792452,2.4817091826584505,walk
05/08/2020, 16:48:48,6.6855464,-6.9415784,4.0965123,0.0048844446,0.88408446,2.31889,10.472032005796619,2.4817091826584505,walk
05/08/2020, 16:48:48,6.6855464,-6.9415784,4.0965123,0.04396,0.86088336,2.2859201,10.472032005796619,2.4430480006807254,walk
05/08/2020, 16:48:48,6.503692,-6.95115,4.1443686,0.04396,0.86088336,2.2859201,10.382306515104183,2.4430480006807254,walk
05/08/2020, 16:48:48,6.503692,-6.95115,4.1443686,0.07570889,0.8425667,2.239518,10.382306515104183,2.393969731228559,walk
05/08/2020, 16:48:48,6.3601227,-6.8745794,4.1108694,0.07570889,0.8425667,2.239518,10.227915238900092,2.393969731228559,walk
05/08/2020, 16:48:48,6.3601227,-6.8745794,4.1108694,0.09768889,0.8303556,2.1882312,10.227915238900092,2.342517754752193,walk
05/08/2020, 16:48:48,6.233303,-6.6759753,3.993621,0.09768889,0.8303556,2.1882312,9.968536665453477,2.342517754752193,walk
05/08/2020, 16:48:48,6.233303,-6.6759753,3.993621,0.11234222,0.8303556,2.1210701,9.968536665453477,2.280581009025868,walk
05/08/2020, 16:48:48,6.0251274,-6.4031935,3.8404803,0.11234222,0.8303556,2.1210701,9.594390867965044,2.280581009025868,walk
05/08/2020, 16:48:48,6.0251274,-6.4031935,3.8404803,0.09524667,0.8364611,2.041698,9.594390867965044,2.20845416131872,walk
05/08/2020, 16:48:48,5.838487,-6.0897336,3.6490545,0.09524667,0.8364611,2.041698,9.191756439889366,2.20845416131872,walk
05/08/2020, 16:48:48,5.838487,-6.0897336,3.6490545,0.06594,0.8523356,1.9415667,9.191756439889366,2.1214394368029965,walk
05/08/2020, 16:48:49,7.60439,-4.6468616,4.627719,0.24910668,-0.18683001,-0.21980001,10.0417057423131,0.38114516183201774,walk
05/08/2020, 16:48:49,7.60439,-4.6468616,4.627719,0.2075889,-0.11478445,-0.15996556,10.0417057423131,0.2861076719559029,walk
05/08/2020, 16:48:49,7.554141,-4.551149,4.570291,0.2075889,-0.11478445,-0.15996556,9.93305408047708,0.2861076719559029,walk
05/08/2020, 16:48:49,7.554141,-4.551149,4.570291,0.15019667,-0.04151778,-0.10379445,9.93305408047708,0.1872326188714818,walk
05/08/2020, 16:48:49,7.4943204,-4.520042,4.551149,0.15019667,-0.04151778,-0.10379445,9.864510811086273,0.1872326188714818,walk
05/08/2020, 16:48:49,7.4943204,-4.520042,4.551149,0.09402556,0.037854444,-0.05006556,9.864510811086273,0.11305009937171699,walk
05/08/2020, 16:48:49,7.472785,-4.5391846,4.558327,0.09402556,0.037854444,-0.05006556,9.860276821904225,0.11305009937171699,walk
05/08/2020, 16:48:49,7.472785,-4.5391846,4.558327,0.035412222,0.10867889,0.0061055557,9.860276821904225,0.1144657368358441,walk
05/08/2020, 16:48:49,7.4847493,-4.5535417,4.57747,0.035412222,0.10867889,0.0061055557,9.884808748713118,0.1144657368358441,walk
05/08/2020, 16:48:49,7.4847493,-4.5535417,4.57747,-0.017095556,0.18194556,0.06349778,9.884808748713118,0.1934642447651271,walk
05/08/2020, 16:48:49,7.470392,-4.5894337,4.5966125,-0.017095556,0.18194556,0.06349778,9.899419553026709,0.1934642447651271,walk
05/08/2020, 16:48:49,7.470392,-4.5894337,4.5966125,-0.05372889,0.25643334,0.11966889,9.899419553026709,0.2880373143557408,walk
05/08/2020, 16:48:49,7.5493555,-4.692325,4.599005,-0.05372889,0.25643334,0.11966889,10.008073370595376,0.2880373143557408,walk
05/08/2020, 16:48:49,7.5493555,-4.692325,4.599005,-0.06716111,0.31382558,0.19049335,10.008073370595376,0.3732088192725355,walk
05/08/2020, 16:48:49,7.661818,-4.8358946,4.615755,-0.06716111,0.31382558,0.19049335,10.168309932814786,0.3732088192725355,walk
05/08/2020, 16:48:49,7.661818,-4.8358946,4.615755,-0.06105556,0.37488112,0.26620224,10.168309932814786,0.46381814066646326,walk
05/08/2020, 16:48:49,7.776674,-4.9340005,4.601398,-0.06105556,0.37488112,0.26620224,10.295332904977128,0.46381814066646326,walk
05/08/2020, 16:48:49,7.776674,-4.9340005,4.601398,-0.045181114,0.42983112,0.3309211,10.295332904977128,0.5443389623341478,walk
