DATE,TIME,ax,ay,az,gx,gy,gz,ma,mg,label
09/07/2020, 21:56:36,3.6466618,0.39720857,9.123833,-0.051286668,0.19049335,0.15630223,9.833628008790425,0.2516911272105912,walk
09/07/2020, 21:56:36,3.6753755,0.4235296,9.119047,-0.051286668,0.19049335,0.15630223,9.84097471277666,0.2516911272105912,walk
09/07/2020, 21:56:36,3.6753755,0.4235296,9.119047,-0.04029667,0.20392556,0.15508112,9.84097471277666,0.2593445823166185,walk
09/07/2020, 21:56:36,3.6586258,0.41635114,9.090333,-0.04029667,0.20392556,0.15508112,9.807805314833011,0.2593445823166185,walk
09/07/2020, 21:56:36,3.6586258,0.41635114,9.090333,-0.02198,0.21003112,0.16607112,9.807805314833011,0.26865555736134755,walk
09/07/2020, 21:56:36,3.6586258,0.38763726,9.099904,-0.02198,0.21003112,0.16607112,9.815500985520245,0.26865555736134755,walk
09/07/2020, 21:56:36,3.6586258,0.38763726,9.099904,-0.01099,0.21735778,0.16118668,9.815500985520245,0.2708252803328364,walk
09/07/2020, 21:56:36,3.7280176,0.42592242,9.114262,-0.01099,0.21735778,0.16118668,9.856433934828027,0.2708252803328364,walk
09/07/2020, 21:56:36,3.7280176,0.42592242,9.114262,0.0,0.21613668,0.15019667,9.856433934828027,0.26319974194067075,walk
09/07/2020, 21:56:36,3.7854455,0.4881358,9.114262,0.0,0.21613668,0.15019667,9.88117598520708,0.26319974194067075,walk
09/07/2020, 21:56:36,3.7854455,0.4881358,9.114262,-0.009768889,0.21980001,0.15141778,9.88117598520708,0.2670857894202351,walk
09/07/2020, 21:56:36,3.8261235,0.53599226,9.140582,-0.009768889,0.21980001,0.15141778,9.923545203606174,0.2670857894202351,walk
09/07/2020, 21:56:36,3.8261235,0.53599226,9.140582,-0.036633335,0.24055889,0.14653334,9.923545203606174,0.28404683027138644,walk
09/07/2020, 21:56:36,3.8739798,0.5838487,9.162118,-0.036633335,0.24055889,0.14653334,9.964587514977412,0.28404683027138644,walk
09/07/2020, 21:56:36,3.8739798,0.5838487,9.162118,-0.06105556,0.25887558,0.12943779,9.964587514977412,0.2958014332072611,walk
09/07/2020, 21:56:36,3.9146578,0.526421,9.142975,-0.06105556,0.25887558,0.12943779,9.959701510970186,0.2958014332072611,walk
09/07/2020, 21:56:36,3.9146578,0.526421,9.142975,-0.039075557,0.2613178,0.12577444,9.959701510970186,0.29263133265814195,walk
09/07/2020, 21:56:36,3.9577286,0.45942193,9.128618,-0.039075557,0.2613178,0.12577444,9.960238719747762,0.29263133265814195,walk
09/07/2020, 21:56:36,3.9577286,0.45942193,9.128618,0.008547778,0.2613178,0.11112112,9.960238719747762,0.284091454520195,walk
09/07/2020, 21:56:36,3.9361932,0.37567315,9.042477,0.008547778,0.2613178,0.11112112,9.869201157000047,0.284091454520195,walk
09/07/2020, 21:56:37,7.786245,0.782453,5.5130634,-2.129618,-1.5654645,-2.7218568,9.572445364355882,3.794002666350695,walk
09/07/2020, 21:56:37,7.786245,0.782453,5.5130634,-2.3909357,-1.5447056,-2.79146,9.572445364355882,3.9868456137946207,walk
09/07/2020, 21:56:37,8.085348,0.6987042,5.4867425,-2.3909357,-1.5447056,-2.79146,9.796192379175084,3.9868456137946207,walk
09/07/2020, 21:56:37,8.085348,0.6987042,5.4867425,-2.64859,-1.4751023,-2.8574002,9.796192379175084,4.166016328284857,walk
09/07/2020, 21:56:37,8.4012,0.61016977,5.359923,-2.64859,-1.4751023,-2.8574002,9.984049623131051,4.166016328284857,walk
09/07/2020, 21:56:37,8.4012,0.61016977,5.359923,-2.889149,-1.39573,-2.9270034,9.984049623131051,4.3431086506445284,walk
09/07/2020, 21:56:37,8.729017,0.46181476,5.359923,-2.889149,-1.39573,-2.9270034,10.253671952106858,4.3431086506445284,walk
09/07/2020, 21:56:37,8.729017,0.46181476,5.359923,-3.0955167,-1.3102523,-3.0002701,10.253671952106858,4.505619322780093,walk
09/07/2020, 21:56:37,9.004191,0.2656033,5.345566,-3.0955167,-1.3102523,-3.0002701,10.47478312598023,4.505619322780093,walk
09/07/2020, 21:56:37,9.004191,0.2656033,5.345566,-3.2652512,-1.2333223,-3.064989,10.47478312598023,4.645116474444078,walk
09/07/2020, 21:56:37,9.18126,-0.038285162,5.288138,-3.2652512,-1.2333223,-3.064989,10.595348296591016,4.645116474444078,walk
09/07/2020, 21:56:37,9.18126,-0.038285162,5.288138,-3.4423125,-1.1563922,-3.107728,10.595348296591016,4.779616251509337,walk
09/07/2020, 21:56:37,9.29133,-0.3589234,5.288138,-3.4423125,-1.1563922,-3.107728,10.696824203295964,4.779616251509337,walk
09/07/2020, 21:56:37,9.29133,-0.3589234,5.288138,-3.6181524,-1.05504,-3.1297078,10.696824203295964,4.898898554447503,walk
09/07/2020, 21:56:37,9.41815,-0.701097,5.2235317,-3.6181524,-1.05504,-3.1297078,10.792514495071293,4.898898554447503,walk
09/07/2020, 21:56:37,9.41815,-0.701097,5.2235317,-3.7634647,-0.9549089,-3.1480246,10.792514495071293,4.998557403183881,walk
09/07/2020, 21:56:37,9.556933,-1.0839486,5.1254263,-3.7634647,-0.9549089,-3.1480246,10.898619882471802,4.998557403183881,walk
09/07/2020, 21:56:37,9.556933,-1.0839486,5.1254263,-3.8733647,-0.8547778,-3.162678,10.898619882471802,5.073079070977298,walk
09/07/2020, 21:56:37,9.65504,-1.4380864,4.981857,-3.8733647,-0.8547778,-3.162678,10.959324028665124,5.073079070977298,walk
09/07/2020, 21:56:37,9.65504,-1.4380864,4.981857,-3.9405258,-0.7534256,-3.1687834,10.959324028665124,5.1123949260740265,walk
09/07/2020, 21:56:38,8.752945,-3.7328033,4.601398,-0.091583334,0.46768558,1.5630223,10.569802718897277,1.6340611620921988,walk
09/07/2020, 21:56:38,8.752945,-3.7328033,4.601398,-0.10135223,0.4493689,1.7217667,10.569802718897277,1.782325806940483,walk
09/07/2020, 21:56:38,8.286345,-3.6634114,4.254439,-0.10135223,0.4493689,1.7217667,10.009212692804258,1.782325806940483,walk
09/07/2020, 21:56:38,8.286345,-3.6634114,4.254439,-0.068382226,0.4041878,1.8731846,10.009212692804258,1.9175151388140441,walk
09/07/2020, 21:56:38,8.054241,-3.644269,3.9649072,-0.068382226,0.4041878,1.8731846,9.688755664282306,1.9175151388140441,walk
09/07/2020, 21:56:38,8.054241,-3.644269,3.9649072,0.0061055557,0.3504589,1.9965167,9.688755664282306,2.027051470267753,walk
09/07/2020, 21:56:38,8.051848,-3.67059,3.8165522,0.0061055557,0.3504589,1.9965167,9.636989345145219,2.027051470267753,walk
09/07/2020, 21:56:38,8.051848,-3.67059,3.8165522,0.12943779,0.31382558,2.0893211,9.636989345145219,2.1167199733822786,walk
09/07/2020, 21:56:38,8.26481,-3.737589,3.818945,0.12943779,0.31382558,2.0893211,9.841798052414607,2.1167199733822786,walk
09/07/2020, 21:56:38,8.26481,-3.737589,3.818945,0.2845189,0.31016225,2.1442711,9.841798052414607,2.185188853131152,walk
09/07/2020, 21:56:38,8.590233,-3.7567315,3.912265,0.2845189,0.31016225,2.1442711,10.159279007858315,2.185188853131152,walk
09/07/2020, 21:56:38,8.590233,-3.7567315,3.912265,0.44570556,0.33214223,2.1601458,10.159279007858315,2.230515997451227,walk
09/07/2020, 21:56:38,8.896515,-3.737589,4.007978,0.44570556,0.33214223,2.1601458,10.448992067940678,2.230515997451227,walk
09/07/2020, 21:56:38,8.896515,-3.737589,4.007978,0.6032289,0.36511225,2.1454923,10.448992067940678,2.2583908794639007,walk
09/07/2020, 21:56:38,9.183653,-3.7160535,4.058227,0.6032289,0.36511225,2.1454923,10.705967521830594,2.2583908794639007,walk
09/07/2020, 21:56:38,9.183653,-3.7160535,4.058227,0.7387723,0.40907225,2.1051955,10.705967521830594,2.2682532408043388,walk
09/07/2020, 21:56:38,9.425328,-3.67059,4.1084766,0.7387723,0.40907225,2.1051955,10.917400028829611,2.2682532408043388,walk
09/07/2020, 21:56:38,9.425328,-3.67059,4.1084766,0.8401245,0.46158,2.0502455,10.917400028829611,2.263265774406864,walk
09/07/2020, 21:56:38,9.678967,-3.6323047,4.1204405,0.8401245,0.46158,2.0502455,11.128974722693231,2.263265774406864,walk
09/07/2020, 21:56:38,9.678967,-3.6323047,4.1204405,0.89385337,0.5153089,1.9745368,11.128974722693231,2.227849322102961,walk
09/07/2020, 21:56:39,9.133404,-4.0869412,6.613762,-0.19171445,-0.5006556,0.12821667,11.994331985782013,0.5512258757550051,walk
09/07/2020, 21:56:39,9.078369,-3.9984066,6.7501526,-0.19171445,-0.5006556,0.12821667,11.998691676225134,0.5512258757550051,walk
09/07/2020, 21:56:39,9.078369,-3.9984066,6.7501526,-0.15386,-0.4273889,0.23689556,11.998691676225134,0.5123023372523714,walk
09/07/2020, 21:56:39,8.997013,-3.897908,6.71426,-0.15386,-0.4273889,0.23689556,11.883653472199203,0.5123023372523714,walk
09/07/2020, 21:56:39,8.997013,-3.897908,6.71426,-0.1306589,-0.34679556,0.3309211,11.883653472199203,0.49683768962486324,walk
09/07/2020, 21:56:39,8.889337,-3.7974095,6.6305118,-0.1306589,-0.34679556,0.3309211,11.721958467784836,0.49683768962486324,walk
09/07/2020, 21:56:39,8.889337,-3.7974095,6.6305118,-0.09646778,-0.26498112,0.41395667,11.721958467784836,0.5008803777920656,walk
09/07/2020, 21:56:39,8.822337,-3.6753755,6.5347986,-0.09646778,-0.26498112,0.41395667,11.577806813631655,0.5008803777920656,walk
09/07/2020, 21:56:39,8.822337,-3.6753755,6.5347986,-0.064718895,-0.18683001,0.49943447,11.577806813631655,0.5371487507264638,walk
09/07/2020, 21:56:39,8.724232,-3.5940197,6.4438715,-0.064718895,-0.18683001,0.49943447,11.425965002686338,0.5371487507264638,walk
09/07/2020, 21:56:39,8.724232,-3.5940197,6.4438715,-0.02075889,-0.117226675,0.57514334,11.425965002686338,0.5873354094963383,walk
09/07/2020, 21:56:39,8.676374,-3.5126636,6.3625154,-0.02075889,-0.117226675,0.57514334,11.318121830752805,0.5873354094963383,walk
09/07/2020, 21:56:39,8.676374,-3.5126636,6.3625154,0.04029667,-0.035412222,0.6459678,11.318121830752805,0.6481915009370228,walk
09/07/2020, 21:56:39,8.666803,-3.4983068,6.285945,0.04029667,-0.035412222,0.6459678,11.26342462923086,0.6481915009370228,walk
09/07/2020, 21:56:39,8.666803,-3.4983068,6.285945,0.109900005,0.04151778,0.7119078,11.26342462923086,0.7215361796475965,walk
09/07/2020, 21:56:39,8.69791,-3.5557344,6.204589,0.109900005,0.04151778,0.7119078,11.260275934904982,0.7215361796475965,walk
09/07/2020, 21:56:39,8.69791,-3.5557344,6.204589,0.21613668,0.10745778,0.7778478,11.260275934904982,0.8144381373287843,walk
09/07/2020, 21:56:39,8.831908,-3.629912,6.209375,0.21613668,0.10745778,0.7778478,11.390136084244807,0.8144381373287843,walk
09/07/2020, 21:56:39,8.831908,-3.629912,6.209375,0.3370267,0.18316667,0.8266923,11.390136084244807,0.9113490801820507,walk
09/07/2020, 21:56:39,9.0544405,-3.7064822,6.2141604,0.3370267,0.18316667,0.8266923,11.590370694371213,0.9113490801820507,walk
09/07/2020, 21:56:40,11.624332,-3.6490545,2.3449662,-0.9317078,-1.6741434,-1.8963857,12.407238600613606,2.69575857004492,walk
09/07/2020, 21:56:40,11.789437,-3.6179478,2.2660031,-0.9317078,-1.6741434,-1.8963857,12.538546499031575,2.69575857004492,walk
09/07/2020, 21:56:40,11.789437,-3.6179478,2.2660031,-1.0953367,-1.581339,-1.9476722,12.538546499031575,2.737484731711869,walk
09/07/2020, 21:56:40,11.877972,-3.546163,2.1798615,-1.0953367,-1.581339,-1.9476722,12.586233728217442,2.737484731711869,walk
09/07/2020, 21:56:40,11.877972,-3.546163,2.1798615,-1.2675134,-1.4848711,-2.0075068,12.586233728217442,2.800270750565965,walk
09/07/2020, 21:56:40,11.988042,-3.5030923,2.1296122,-1.2675134,-1.4848711,-2.0075068,12.66965081608861,2.800270750565965,walk
09/07/2020, 21:56:40,11.988042,-3.5030923,2.1296122,-1.4409112,-1.4030567,-2.0563512,12.66965081608861,2.8763472363482823,walk
09/07/2020, 21:56:40,12.009577,-3.507878,2.158326,-1.4409112,-1.4030567,-2.0563512,12.69620077466497,2.8763472363482823,walk
09/07/2020, 21:56:40,12.009577,-3.507878,2.158326,-1.5996556,-1.3261267,-2.1027534,12.69620077466497,2.9561938373140775,walk
09/07/2020, 21:56:40,12.000006,-3.591627,2.3425734,-1.5996556,-1.3261267,-2.1027534,12.743138198544461,2.9561938373140775,walk
09/07/2020, 21:56:40,12.000006,-3.591627,2.3425734,-1.7303145,-1.2491968,-2.1283967,12.743138198544461,3.014059311505495,walk
09/07/2020, 21:56:40,11.952149,-3.739982,2.5531418,-1.7303145,-1.2491968,-2.1283967,12.781231271693729,3.014059311505495,walk
09/07/2020, 21:56:40,11.952149,-3.739982,2.5531418,-1.8267823,-1.1698245,-2.1381657,12.781231271693729,3.045878472410232,walk
09/07/2020, 21:56:40,11.844472,-3.9290147,2.9910283,-1.8267823,-1.1698245,-2.1381657,12.832572698292331,3.045878472410232,walk
09/07/2020, 21:56:40,11.844472,-3.9290147,2.9910283,-1.8988279,-1.0990001,-2.1393867,12.832572698292331,3.0643635391386415,walk
09/07/2020, 21:56:40,11.724831,-4.132405,3.493521,-1.8988279,-1.0990001,-2.1393867,12.913292047799544,3.0643635391386415,walk
09/07/2020, 21:56:40,11.724831,-4.132405,3.493521,-1.95622,-1.0367234,-2.122291,12.913292047799544,3.066873265791307,walk
09/07/2020, 21:56:40,11.552547,-4.2927237,4.0007997,-1.95622,-1.0367234,-2.122291,12.957439058979496,3.066873265791307,walk
09/07/2020, 21:56:40,11.552547,-4.2927237,4.0007997,-2.0075068,-0.9854367,-2.0832157,12.957439058979496,3.0562979071871372,walk
09/07/2020, 21:56:40,11.306087,-4.4578285,4.386044,-2.0075068,-0.9854367,-2.0832157,12.92041834373259,3.0562979071871372,walk
09/07/2020, 21:56:41,10.99502,-1.942972,1.8640088,0.68504333,-1.7022289,-1.2711767,11.319899805534662,2.232209175595137,walk
09/07/2020, 21:56:41,11.380264,-1.9884356,2.1463618,0.68504333,-1.7022289,-1.2711767,11.750368524784228,2.232209175595137,walk
09/07/2020, 21:56:41,11.380264,-1.9884356,2.1463618,0.65451556,-1.5642434,-1.4018356,11.750368524784228,2.200088882351384,walk
09/07/2020, 21:56:41,10.920842,-1.8951155,2.507678,0.65451556,-1.5642434,-1.4018356,11.364185213547602,2.200088882351384,walk
09/07/2020, 21:56:41,10.920842,-1.8951155,2.507678,0.54950005,-1.5007457,-1.4824289,11.364185213547602,2.1798585480606323,walk
09/07/2020, 21:56:41,9.822537,-1.7730815,2.8546374,0.54950005,-1.5007457,-1.4824289,10.381474565680952,2.1798585480606323,walk
09/07/2020, 21:56:41,9.822537,-1.7730815,2.8546374,0.40052447,-1.6033189,-1.4934189,10.381474565680952,2.227409155371954,walk
09/07/2020, 21:56:41,8.640483,-1.7228323,3.0460632,0.40052447,-1.6033189,-1.4934189,9.322263508634572,2.227409155371954,walk
09/07/2020, 21:56:41,8.640483,-1.7228323,3.0460632,0.25521225,-1.7925912,-1.4421322,9.322263508634572,2.314791985116452,walk
09/07/2020, 21:56:41,7.8053875,-1.8113668,3.225525,0.25521225,-1.7925912,-1.4421322,8.637657931673077,2.314791985116452,walk
09/07/2020, 21:56:41,7.8053875,-1.8113668,3.225525,0.1746189,-1.9696523,-1.3420012,8.637657931673077,2.3897675920209407,walk
09/07/2020, 21:56:41,7.4943204,-2.0338993,3.330809,0.1746189,-1.9696523,-1.3420012,8.449607914498525,2.3897675920209407,walk
09/07/2020, 21:56:41,7.4943204,-2.0338993,3.330809,0.19537778,-2.1039746,-1.2369856,8.449607914498525,2.448471931698742,walk
09/07/2020, 21:56:41,7.7096744,-2.2444677,3.3116665,0.19537778,-2.1039746,-1.2369856,8.685841873927167,2.448471931698742,walk
09/07/2020, 21:56:41,7.7096744,-2.2444677,3.3116665,0.30283555,-2.1918945,-1.1832567,8.685841873927167,2.5092244886038215,walk
09/07/2020, 21:56:41,8.16431,-2.4047868,3.1513474,0.30283555,-2.1918945,-1.1832567,9.07578951458783,2.5092244886038215,walk
09/07/2020, 21:56:41,8.16431,-2.4047868,3.1513474,0.45059,-2.2541711,-1.1905833,9.07578951458783,2.588784959658476,walk
09/07/2020, 21:56:41,8.702696,-2.4502504,2.9359934,0.45059,-2.2541711,-1.1905833,9.505824498497534,2.588784959658476,walk
09/07/2020, 21:56:41,8.702696,-2.4502504,2.9359934,0.59956557,-2.3091211,-1.2101212,9.505824498497534,2.675053733753452,walk
09/07/2020, 21:56:41,9.233903,-2.5028925,2.7397819,0.59956557,-2.3091211,-1.2101212,9.951675175668196,2.675053733753452,walk
09/07/2020, 21:56:42,7.133004,-2.5459633,2.4789643,-1.7095556,1.0318389,1.3981723,7.969124290506483,2.4376541198058446,walk
09/07/2020, 21:56:42,7.133004,-2.5459633,2.4789643,-1.5532534,0.9549089,1.2687345,7.969124290506483,2.2212911339339256,walk
09/07/2020, 21:56:42,6.8075805,-2.4071796,2.5172493,-1.5532534,0.9549089,1.2687345,7.646843122260204,2.2212911339339256,walk
09/07/2020, 21:56:42,6.8075805,-2.4071796,2.5172493,-1.3590968,0.8718734,1.1283067,7.646843122260204,1.9698688587771627,walk
09/07/2020, 21:56:42,6.448657,-2.359323,2.7278178,-1.3590968,0.8718734,1.1283067,7.388678671319135,1.9698688587771627,walk
09/07/2020, 21:56:42,6.448657,-2.359323,2.7278178,-1.10999,0.74976224,0.9854367,7.388678671319135,1.662921122622277,walk
09/07/2020, 21:56:42,6.175875,-2.4119651,3.0317063,-1.10999,0.74976224,0.9854367,7.290422032486555,1.662921122622277,walk
09/07/2020, 21:56:42,6.175875,-2.4119651,3.0317063,-0.8364611,0.60445005,0.8535567,7.290422032486555,1.3392483352520184,walk
09/07/2020, 21:56:42,6.0370917,-2.4837499,3.2829528,-0.8364611,0.60445005,0.8535567,7.307069793831376,1.3392483352520184,walk
09/07/2020, 21:56:42,6.0370917,-2.4837499,3.2829528,-0.5678167,0.46524334,0.71923447,7.307069793831376,1.027699060494049,walk
09/07/2020, 21:56:42,5.989235,-2.4670002,3.4360933,-0.5678167,0.46524334,0.71923447,7.33237768856438,1.027699060494049,walk
09/07/2020, 21:56:42,5.989235,-2.4670002,3.4360933,-0.31504667,0.3504589,0.56293225,7.33237768856438,0.7341447800727219,walk
09/07/2020, 21:56:42,6.0394845,-2.3545375,3.3906298,-0.31504667,0.3504589,0.56293225,7.315435054761095,0.7341447800727219,walk
09/07/2020, 21:56:42,6.0394845,-2.3545375,3.3906298,-0.10867889,0.25643334,0.3834289,7.315435054761095,0.4739059831621585,walk
09/07/2020, 21:56:42,6.206982,-2.184647,3.2997024,-0.10867889,0.25643334,0.3834289,7.361205477365338,0.4739059831621585,walk
09/07/2020, 21:56:42,6.206982,-2.184647,3.2997024,0.042738892,0.19171445,0.19171445,7.361205477365338,0.2744730845248853,walk
09/07/2020, 21:56:42,6.424729,-2.0793629,3.1896327,0.042738892,0.19171445,0.19171445,7.468242595737663,0.2744730845248853,walk
09/07/2020, 21:56:42,6.424729,-2.0793629,3.1896327,0.15630223,0.11966889,0.012211111,7.468242595737663,0.1972311891468886,walk
09/07/2020, 21:56:42,6.721439,-1.9980069,3.1202407,0.15630223,0.11966889,0.012211111,7.675003216034649,0.1972311891468886,walk
09/07/2020, 21:56:42,6.721439,-1.9980069,3.1202407,0.24788557,0.04151778,-0.14775445,7.675003216034649,0.29155163862974476,walk
09/07/2020, 21:56:43,9.552148,-3.3427732,1.4620147,-1.0123012,1.2455333,2.207769,10.225221191313688,2.7295330448475172,walk
09/07/2020, 21:56:43,9.552148,-3.3427732,1.4620147,-0.9976478,1.2150056,2.2248645,10.225221191313688,2.7242543639980217,walk
09/07/2020, 21:56:43,9.437292,-3.3499517,1.3806586,-0.9976478,1.2150056,2.2248645,10.108950345736984,2.7242543639980217,walk
09/07/2020, 21:56:43,9.437292,-3.3499517,1.3806586,-0.9549089,1.1710457,2.2382967,10.108950345736984,2.700587212089375,walk
09/07/2020, 21:56:43,9.336794,-3.37388,1.3040884,-0.9549089,1.1710457,2.2382967,10.01296321782787,2.700587212089375,walk
09/07/2020, 21:56:43,9.336794,-3.37388,1.3040884,-0.8865267,1.1295278,2.2431812,10.01296321782787,2.663385944327816,walk
09/07/2020, 21:56:43,9.221938,-3.4049866,1.227518,-0.8865267,1.1295278,2.2431812,9.906809635977009,2.663385944327816,walk
09/07/2020, 21:56:43,9.221938,-3.4049866,1.227518,-0.7949434,1.0904523,2.2236435,9.906809635977009,2.6010789768286497,walk
09/07/2020, 21:56:43,9.116654,-3.4049866,1.227518,-0.7949434,1.0904523,2.2236435,9.80887973253487,2.6010789768286497,walk
09/07/2020, 21:56:43,9.116654,-3.4049866,1.227518,-0.6984756,1.0672512,2.1906734,9.80887973253487,2.534944384077713,walk
09/07/2020, 21:56:43,8.956335,-3.3284163,1.2251252,-0.6984756,1.0672512,2.1906734,9.633027819336135,2.534944384077713,walk
09/07/2020, 21:56:43,8.956335,-3.3284163,1.2251252,-0.63131446,1.0489345,2.151598,9.633027819336135,2.47551919744717,walk
09/07/2020, 21:56:43,8.762517,-3.266203,1.2634103,-0.63131446,1.0489345,2.151598,9.43641833343983,2.47551919744717,walk
09/07/2020, 21:56:43,8.762517,-3.266203,1.2634103,-0.6007867,1.0293967,2.1113012,9.43641833343983,2.4244988760300776,walk
09/07/2020, 21:56:43,8.537591,-3.1848469,1.282553,-0.6007867,1.0293967,2.1113012,9.202100383952612,2.4244988760300776,walk
09/07/2020, 21:56:43,8.537591,-3.1848469,1.282553,-0.6117767,1.0123012,2.0600145,9.202100383952612,2.3754334676087576,walk
09/07/2020, 21:56:43,8.274381,-3.0604203,1.3423735,-0.6117767,1.0123012,2.0600145,8.923761233226488,2.3754334676087576,walk
09/07/2020, 21:56:43,8.274381,-3.0604203,1.3423735,-0.65085226,0.96956223,2.012391,8.923761233226488,2.326666605165194,walk
09/07/2020, 21:56:43,8.114061,-2.885744,1.3184453,-0.65085226,0.96956223,2.012391,8.71227919306945,2.326666605165194,walk
09/07/2020, 21:56:43,8.114061,-2.885744,1.3184453,-0.7070234,0.8975167,1.9488934,8.71227919306945,2.259115741195963,walk
09/07/2020, 21:56:44,12.760923,-4.7114677,2.507678,-1.1881411,1.4738811,1.9977379,13.832119976996385,2.752264798067683,walk
09/07/2020, 21:56:44,12.760923,-4.7114677,2.507678,-1.05504,1.3639811,2.1174068,13.832119976996385,2.730744526684604,walk
09/07/2020, 21:56:44,12.725031,-4.8215375,2.629712,-1.05504,1.3639811,2.1174068,13.85961835507194,2.730744526684604,walk
09/07/2020, 21:56:44,12.725031,-4.8215375,2.629712,-0.8633256,1.2369856,2.2309701,13.85961835507194,2.6930822778389127,walk
09/07/2020, 21:56:44,12.492927,-4.924429,2.6679974,-0.8633256,1.2369856,2.2309701,13.690924923847318,2.6930822778389127,walk
09/07/2020, 21:56:44,12.492927,-4.924429,2.6679974,-0.6471889,1.0953367,2.3335435,13.690924923847318,2.657826434585964,walk
09/07/2020, 21:56:44,12.172289,-4.9292145,2.7206392,-0.6471889,1.0953367,2.3335435,13.411325442098551,2.657826434585964,walk
09/07/2020, 21:56:44,12.172289,-4.9292145,2.7206392,-0.41151446,0.9280445,2.426348,13.411325442098551,2.6301663860002846,walk
09/07/2020, 21:56:44,11.933006,-4.938786,2.7206392,-0.41151446,0.9280445,2.426348,13.19811063365661,2.6301663860002846,walk
09/07/2020, 21:56:44,11.933006,-4.938786,2.7206392,-0.18805112,0.7766267,2.5020568,13.19811063365661,2.6265568107652864,walk
09/07/2020, 21:56:44,11.779866,-4.8789654,2.7158537,-0.18805112,0.7766267,2.5020568,13.0363113094405,2.6265568107652864,walk
09/07/2020, 21:56:44,11.779866,-4.8789654,2.7158537,-0.028085556,0.68260115,2.5509012,13.0363113094405,2.640801002723189,walk
09/07/2020, 21:56:44,11.66501,-4.761717,2.6871397,-0.028085556,0.68260115,2.5509012,12.882823299830585,2.640801002723189,walk
09/07/2020, 21:56:44,11.66501,-4.761717,2.6871397,0.06594,0.6337567,2.5765445,12.882823299830585,2.6541622623846526,walk
09/07/2020, 21:56:44,11.531013,-4.6468616,2.5914268,0.06594,0.6337567,2.5765445,12.699333269690548,2.6541622623846526,walk
09/07/2020, 21:56:44,11.531013,-4.6468616,2.5914268,0.10135223,0.61299783,2.6009667,12.699333269690548,2.67414777951577,walk
09/07/2020, 21:56:44,11.313266,-4.5152564,2.4239295,0.10135223,0.61299783,2.6009667,12.41986141092641,2.67414777951577,walk
09/07/2020, 21:56:44,11.313266,-4.5152564,2.4239295,0.10501556,0.59590226,2.614399,12.41986141092641,2.6835069739291724,walk
09/07/2020, 21:56:44,11.014163,-4.371687,2.2492533,0.10501556,0.59590226,2.614399,12.061615725870826,2.6835069739291724,walk
09/07/2020, 21:56:44,11.014163,-4.371687,2.2492533,0.08669889,0.57270116,2.62661,12.061615725870826,2.68971812973863,walk
09/07/2020, 21:56:45,9.611969,-5.1852465,5.300102,0.5592689,0.5519422,0.8266923,12.139514511035017,1.1405446281606393,walk
09/07/2020, 21:56:45,9.611969,-5.1852465,5.300102,0.6288723,0.6105556,0.8413456,12.139514511035017,1.2149571592054362,walk
09/07/2020, 21:56:45,10.320244,-5.326423,5.276174,0.6288723,0.6105556,0.8413456,12.75602717895629,1.2149571592054362,walk
09/07/2020, 21:56:45,10.320244,-5.326423,5.276174,0.7119078,0.67283225,0.83401895,12.75602717895629,1.2865082823794614,walk
09/07/2020, 21:56:45,11.129018,-5.5537415,5.2953167,0.7119078,0.67283225,0.83401895,13.518116027046057,1.2865082823794614,walk
09/07/2020, 21:56:45,11.129018,-5.5537415,5.2953167,0.8095967,0.74976224,0.8083756,13.518116027046057,1.3678674507132478,walk
09/07/2020, 21:56:45,12.038291,-5.814559,5.393422,0.8095967,0.74976224,0.8083756,14.415913015171558,1.3678674507132478,walk
09/07/2020, 21:56:45,12.038291,-5.814559,5.393422,0.92438114,0.87065226,0.77052116,14.415913015171558,1.48533454325155,walk
09/07/2020, 21:56:45,12.918849,-6.0658054,5.4891353,0.92438114,0.87065226,0.77052116,15.291215151230556,1.48533454325155,walk
09/07/2020, 21:56:45,12.918849,-6.0658054,5.4891353,1.0379444,1.0318389,0.7326667,15.291215151230556,1.6367103001201042,walk
09/07/2020, 21:56:45,13.677374,-6.2524457,5.5776696,1.0379444,1.0318389,0.7326667,16.039764088656252,1.6367103001201042,walk
09/07/2020, 21:56:45,13.677374,-6.2524457,5.5776696,1.1124322,1.2174479,0.70580226,16.039764088656252,1.7938343450943917,walk
09/07/2020, 21:56:45,14.19901,-6.302695,5.6374903,1.1124322,1.2174479,0.70580226,16.52625608814478,1.7938343450943917,walk
09/07/2020, 21:56:45,14.19901,-6.302695,5.6374903,1.1173167,1.4445745,0.69603336,16.52625608814478,1.9543936425671993,walk
09/07/2020, 21:56:45,14.301901,-6.1184473,5.6709895,1.1173167,1.4445745,0.69603336,16.557170283103805,1.9543936425671993,walk
09/07/2020, 21:56:45,14.301901,-6.1184473,5.6709895,1.0318389,1.6863545,0.72778225,16.557170283103805,2.1066917348596506,walk
09/07/2020, 21:56:45,13.887942,-5.771488,5.3982077,1.0318389,1.6863545,0.72778225,15.978913093007044,2.1066917348596506,walk
09/07/2020, 21:56:45,13.887942,-5.771488,5.3982077,0.8450089,1.8646368,0.8120389,15.978913093007044,2.2023436487234385,walk
09/07/2020, 21:56:45,13.115061,-5.2570314,4.9028935,0.8450089,1.8646368,0.8120389,14.955920721156824,2.2023436487234385,walk
09/07/2020, 21:56:45,13.115061,-5.2570314,4.9028935,0.56049,1.9379034,0.9317078,14.955920721156824,2.2220931756830793,walk
09/07/2020, 21:56:46,7.798209,-5.163711,5.4341,0.11234222,-0.29184556,-1.1600556,10.816904504221114,1.2014673062098713,walk
09/07/2020, 21:56:46,7.743174,-4.9938207,5.359923,0.11234222,-0.29184556,-1.1600556,10.659444777850412,1.2014673062098713,walk
09/07/2020, 21:56:46,7.743174,-4.9938207,5.359923,0.05006556,-0.25887558,-1.0330601,10.659444777850412,1.0661783347750342,walk
09/07/2020, 21:56:46,7.759924,-4.85743,5.3312087,0.05006556,-0.25887558,-1.0330601,10.593999800097015,1.0661783347750342,walk
09/07/2020, 21:56:46,7.759924,-4.85743,5.3312087,-0.039075557,-0.2283478,-0.8999589,10.593999800097015,0.9292984724660992,walk
09/07/2020, 21:56:46,7.826923,-4.749753,5.3312087,-0.039075557,-0.2283478,-0.8999589,10.59446373312087,0.9292984724660992,walk
09/07/2020, 21:56:46,7.826923,-4.749753,5.3312087,-0.117226675,-0.19049335,-0.7717422,10.59446373312087,0.8035022522249196,walk
09/07/2020, 21:56:46,7.9704924,-4.706682,5.3766723,-0.117226675,-0.19049335,-0.7717422,10.704681712482703,0.8035022522249196,walk
09/07/2020, 21:56:46,7.9704924,-4.706682,5.3766723,-0.17828223,-0.13798556,-0.6569578,10.704681712482703,0.6945632625671381,walk
09/07/2020, 21:56:46,8.130812,-4.735396,5.4221363,-0.17828223,-0.13798556,-0.6569578,10.859725378530975,0.6945632625671381,walk
09/07/2020, 21:56:46,8.130812,-4.735396,5.4221363,-0.22346334,-0.07693,-0.54339445,10.859725378530975,0.5925635953189106,walk
09/07/2020, 21:56:46,8.195417,-4.7784667,5.505885,-0.22346334,-0.07693,-0.54339445,10.968745664251077,0.5925635953189106,walk
09/07/2020, 21:56:46,8.195417,-4.7784667,5.505885,-0.23811668,-0.019537779,-0.42861003,10.968745664251077,0.4907013694100045,walk
09/07/2020, 21:56:46,8.142776,-4.9052863,5.575277,-0.23811668,-0.019537779,-0.42861003,11.020450952624142,0.4907013694100045,walk
09/07/2020, 21:56:46,8.142776,-4.9052863,5.575277,-0.2185789,0.013432222,-0.29917222,11.020450952624142,0.37075757717948976,walk
09/07/2020, 21:56:46,7.9800634,-5.056034,5.5776696,-0.2185789,0.013432222,-0.29917222,10.970655931945037,0.37075757717948976,walk
09/07/2020, 21:56:46,7.9800634,-5.056034,5.5776696,-0.16973445,0.035412222,-0.16607112,10.970655931945037,0.240090450159435,walk
09/07/2020, 21:56:46,7.8053875,-5.1900325,5.6350975,-0.16973445,0.035412222,-0.16607112,10.936856724810749,0.240090450159435,walk
09/07/2020, 21:56:46,7.8053875,-5.1900325,5.6350975,-0.08425667,0.046402223,-0.035412222,10.936856724810749,0.10250062675325755,walk
09/07/2020, 21:56:46,7.63789,-5.285745,5.6781683,-0.08425667,0.046402223,-0.035412222,10.886599950309153,0.10250062675325755,walk
09/07/2020, 21:56:47,11.0811615,-3.5820556,4.6085763,-0.60811335,-0.5104245,-2.9367723,12.524465567717213,3.042197696499278,walk
09/07/2020, 21:56:47,11.0811615,-3.5820556,4.6085763,-0.7265611,-0.49821335,-2.9062445,12.524465567717213,3.036834668885308,walk
09/07/2020, 21:56:47,10.932807,-3.804588,4.7880383,-0.7265611,-0.49821335,-2.9062445,12.527029535713039,3.036834668885308,walk
09/07/2020, 21:56:47,10.932807,-3.804588,4.7880383,-0.76930004,-0.4798967,-2.8647268,12.527029535713039,3.0047933255041284,walk
09/07/2020, 21:56:47,10.758131,-4.1108694,4.8789654,-0.76930004,-0.4798967,-2.8647268,12.507635014002416,3.0047933255041284,walk
09/07/2020, 21:56:47,10.758131,-4.1108694,4.8789654,-0.72900337,-0.48356003,-2.8158824,12.507635014002416,2.948638694756629,walk
09/07/2020, 21:56:47,10.549955,-4.4339004,4.924429,-0.72900337,-0.48356003,-2.8158824,12.458371924956365,2.948638694756629,walk
09/07/2020, 21:56:47,10.549955,-4.4339004,4.924429,-0.6386411,-0.50798225,-2.757269,12.458371924956365,2.8754895700205103,walk
09/07/2020, 21:56:47,10.363315,-4.692325,4.9052863,-0.6386411,-0.50798225,-2.757269,12.388625383062385,2.8754895700205103,walk
09/07/2020, 21:56:47,10.363315,-4.692325,4.9052863,-0.5140878,-0.5421733,-2.6864445,12.388625383062385,2.7884085679469557,walk
09/07/2020, 21:56:47,10.195817,-4.8382874,4.8933225,-0.5140878,-0.5421733,-2.6864445,12.300744427001105,2.7884085679469557,walk
09/07/2020, 21:56:47,10.195817,-4.8382874,4.8933225,-0.38220778,-0.5690378,-2.6082935,12.300744427001105,2.696865209111483,walk
09/07/2020, 21:56:47,10.064212,-4.9579287,4.8885365,-0.38220778,-0.5690378,-2.6082935,12.237941219704739,2.696865209111483,walk
09/07/2020, 21:56:47,10.064212,-4.9579287,4.8885365,-0.24910668,-0.59468114,-2.5215945,12.237941219704739,2.6027175689781763,walk
09/07/2020, 21:56:47,9.937392,-4.9770713,4.883751,-0.24910668,-0.59468114,-2.5215945,12.139770426645653,2.6027175689781763,walk
09/07/2020, 21:56:47,9.937392,-4.9770713,4.883751,-0.13798556,-0.6068922,-2.4422224,12.139770426645653,2.5202793953496836,walk
09/07/2020, 21:56:47,9.8632145,-4.948357,4.9603214,-0.13798556,-0.6068922,-2.4422224,12.098513413853212,2.5202793953496836,walk
09/07/2020, 21:56:47,9.8632145,-4.948357,4.9603214,-0.048844445,-0.59468114,-2.3604078,12.098513413853212,2.434657381059758,walk
09/07/2020, 21:56:47,9.793823,-4.8909297,5.032106,-0.048844445,-0.59468114,-2.3604078,12.048330051774292,2.434657381059758,walk
09/07/2020, 21:56:47,9.793823,-4.8909297,5.032106,0.008547778,-0.57514334,-2.2700458,12.048330051774292,2.341787920180387,walk
09/07/2020, 21:56:48,10.880164,-2.2372892,3.397808,-0.5128667,-0.4713489,-2.5667756,11.615874245545116,2.6596125283497627,walk
09/07/2020, 21:56:48,10.880164,-2.2372892,3.397808,-0.46646446,-0.5336256,-2.6522534,11.615874245545116,2.7453220972393213,walk
09/07/2020, 21:56:48,10.033105,-2.5268207,3.723232,-0.46646446,-0.5336256,-2.6522534,10.995929850028125,2.7453220972393213,walk
09/07/2020, 21:56:48,10.033105,-2.5268207,3.723232,-0.29917222,-0.6557367,-2.7047613,10.995929850028125,2.799147750380694,walk
09/07/2020, 21:56:48,9.410972,-2.8426733,4.1204405,-0.29917222,-0.6557367,-2.7047613,10.659512583264465,2.799147750380694,walk
09/07/2020, 21:56:48,9.410972,-2.8426733,4.1204405,-0.06960334,-0.78029,-2.7120879,10.659512583264465,2.8229625809413625,walk
09/07/2020, 21:56:48,9.083155,-3.1082766,4.4817567,-0.06960334,-0.78029,-2.7120879,10.594867878866433,2.8229625809413625,walk
09/07/2020, 21:56:48,9.083155,-3.1082766,4.4817567,0.14287001,-0.8730945,-2.6998768,10.594867878866433,2.8411336644936416,walk
09/07/2020, 21:56:48,8.985049,-3.158526,4.6971107,0.14287001,-0.8730945,-2.6998768,10.619333529347887,2.8411336644936416,walk
09/07/2020, 21:56:48,8.985049,-3.158526,4.6971107,0.29673,-0.9304867,-2.688887,10.619333529347887,2.860763327841742,walk
09/07/2020, 21:56:48,9.008977,-3.0173492,4.74736,0.29673,-0.9304867,-2.688887,10.620898786981208,2.860763327841742,walk
09/07/2020, 21:56:48,9.008977,-3.0173492,4.74736,0.3724389,-0.97078335,-2.6766756,10.620898786981208,2.871536714263546,walk
09/07/2020, 21:56:48,9.097511,-2.737389,4.7042894,0.3724389,-0.97078335,-2.6766756,10.601337171189181,2.871536714263546,walk
09/07/2020, 21:56:48,9.097511,-2.737389,4.7042894,0.37976557,-0.9829945,-2.6778967,10.601337171189181,2.877782307391637,walk
09/07/2020, 21:56:48,9.327223,-2.5459633,4.5942197,0.37976557,-0.9829945,-2.6778967,10.704478930862338,2.877782307391637,walk
09/07/2020, 21:56:48,9.327223,-2.5459633,4.5942197,0.34557447,-0.9817734,-2.6852233,10.704478930862338,2.8798828217333665,walk
09/07/2020, 21:56:48,9.702896,-2.4622145,4.462614,0.34557447,-0.9817734,-2.6852233,10.960092035165621,2.8798828217333665,walk
09/07/2020, 21:56:48,9.702896,-2.4622145,4.462614,0.3174889,-0.97811,-2.688887,10.960092035165621,2.8788211246169766,walk
09/07/2020, 21:56:48,10.171889,-2.4933212,4.2999024,0.3174889,-0.97811,-2.688887,11.32135784832305,2.8788211246169766,walk
09/07/2020, 21:56:48,10.171889,-2.4933212,4.2999024,0.28818223,-0.96589893,-2.688887,11.32135784832305,2.871606240433392,walk
09/07/2020, 21:56:49,6.9942207,-1.7682959,1.3040884,-1.5618012,0.7949434,1.3249056,7.3312100256425925,2.1969371654395693,walk
09/07/2020, 21:56:49,6.9942207,-1.7682959,1.3040884,-1.4970822,0.6764956,1.1295278,7.3312100256425925,1.9936736426940398,walk
09/07/2020, 21:56:49,6.721439,-1.8783658,1.3591232,-1.4970822,0.6764956,1.1295278,7.110078378285527,1.9936736426940398,walk
09/07/2020, 21:56:49,6.721439,-1.8783658,1.3591232,-1.4006145,0.5568267,0.9170545,7.110078378285527,1.7643032257582225,walk
09/07/2020, 21:56:49,6.4701924,-2.0219352,1.4668003,-1.4006145,0.5568267,0.9170545,6.9356409493787154,1.7643032257582225,walk
09/07/2020, 21:56:49,6.4701924,-2.0219352,1.4668003,-1.2821667,0.44204223,0.69114894,6.9356409493787154,1.5221825395404602,walk
09/07/2020, 21:56:49,6.209375,-2.172683,1.5529419,-1.2821667,0.44204223,0.69114894,6.759328127045125,1.5221825395404602,walk
09/07/2020, 21:56:49,6.209375,-2.172683,1.5529419,-1.1441811,0.33214223,0.45791668,6.759328127045125,1.2763841937787421,walk
09/07/2020, 21:56:49,5.922236,-2.3042881,1.6701902,-1.1441811,0.33214223,0.45791668,6.570552340670599,1.2763841937787421,walk
09/07/2020, 21:56:49,5.922236,-2.3042881,1.6701902,-0.97933114,0.23201112,0.22224224,6.570552340670599,1.0306843585018028,walk
09/07/2020, 21:56:49,5.608776,-2.4095724,1.8281165,-0.97933114,0.23201112,0.22224224,6.3723165566290545,1.0306843585018028,walk
09/07/2020, 21:56:49,5.608776,-2.4095724,1.8281165,-0.7949434,0.123332225,-0.013432222,6.3723165566290545,0.8045658824448887,walk
09/07/2020, 21:56:49,5.3886366,-2.481357,1.98365,-0.7949434,0.123332225,-0.013432222,6.255350072913856,0.8045658824448887,walk
09/07/2020, 21:56:49,5.3886366,-2.481357,1.98365,-0.6020078,0.0048844446,-0.2515489,6.255350072913856,0.6524676994651046,walk
09/07/2020, 21:56:49,5.2019963,-2.57707,2.0602202,-0.6020078,0.0048844446,-0.2515489,6.160078164888659,0.6524676994651046,walk
09/07/2020, 21:56:49,5.2019963,-2.57707,2.0602202,-0.4249467,-0.12211112,-0.4908867,6.160078164888659,0.6606516178898048,walk
09/07/2020, 21:56:49,5.113462,-2.605784,2.1631117,-0.4249467,-0.12211112,-0.4908867,6.133241837687321,0.6606516178898048,walk
09/07/2020, 21:56:49,5.113462,-2.605784,2.1631117,-0.26864445,-0.27230778,-0.7302245,6.133241837687321,0.8243477279404046,walk
09/07/2020, 21:56:49,5.2163534,-2.589034,2.1296122,-0.26864445,-0.27230778,-0.7302245,6.200700653088712,0.8243477279404046,walk
09/07/2020, 21:56:49,5.2163534,-2.589034,2.1296122,-0.13554333,-0.44326335,-0.96589893,6.200700653088712,1.071361348390987,walk
09/07/2020, 21:56:50,8.872586,-1.457229,2.3282163,0.16851334,1.4885345,1.7803801,9.287997329180707,2.326775658230821,walk
09/07/2020, 21:56:50,8.872586,-1.457229,2.3282163,-0.018316668,1.4909767,1.7693901,9.287997329180707,2.3138903046754087,walk
09/07/2020, 21:56:50,8.762517,-1.3495519,2.201397,-0.018316668,1.4909767,1.7693901,9.135050225115899,2.3138903046754087,walk
09/07/2020, 21:56:50,8.762517,-1.3495519,2.201397,-0.19171445,1.5019667,1.7535156,9.135050225115899,2.3167812599947957,walk
09/07/2020, 21:56:50,8.736196,-1.3663018,2.062613,-0.19171445,1.5019667,1.7535156,9.079772348918176,2.3167812599947957,walk
09/07/2020, 21:56:50,8.736196,-1.3663018,2.062613,-0.34679556,1.504409,1.7303145,9.079772348918176,2.318944093895098,walk
09/07/2020, 21:56:50,8.690732,-1.4524434,1.9908284,-0.34679556,1.504409,1.7303145,9.033372136179787,2.318944093895098,walk
09/07/2020, 21:56:50,8.690732,-1.4524434,1.9908284,-0.47867557,1.5007457,1.7010078,9.033372136179787,2.3183605210431626,walk
09/07/2020, 21:56:50,8.642876,-1.5457634,1.9190438,-0.47867557,1.5007457,1.7010078,8.987291766971113,2.3183605210431626,walk
09/07/2020, 21:56:50,8.642876,-1.5457634,1.9190438,-0.59956557,1.4958612,1.6533846,8.987291766971113,2.308843875072296,walk
09/07/2020, 21:56:50,8.58784,-1.6103697,1.9142581,-0.59956557,1.4958612,1.6533846,8.94475667177114,2.308843875072296,walk
09/07/2020, 21:56:50,8.58784,-1.6103697,1.9142581,-0.6996967,1.4873134,1.6057612,8.94475667177114,2.297856730786502,walk
09/07/2020, 21:56:50,8.5112705,-1.6701902,1.9381863,-0.6996967,1.4873134,1.6057612,8.887509626328393,2.297856730786502,walk
09/07/2020, 21:56:50,8.5112705,-1.6701902,1.9381863,-0.80104893,1.4641123,1.559359,8.887509626328393,2.2840544034401757,walk
09/07/2020, 21:56:50,8.437093,-1.7036897,1.9669002,-0.80104893,1.4641123,1.559359,8.829257595278207,2.2840544034401757,walk
09/07/2020, 21:56:50,8.437093,-1.7036897,1.9669002,-0.8853056,1.4445745,1.504409,8.829257595278207,2.265790744177776,walk
09/07/2020, 21:56:50,8.34138,-1.7778672,1.9669002,-0.8853056,1.4445745,1.504409,8.752607073401949,2.265790744177776,walk
09/07/2020, 21:56:50,8.34138,-1.7778672,1.9669002,-0.9524667,1.4128256,1.4409112,8.752607073401949,2.231477987237011,walk
09/07/2020, 21:56:50,8.195417,-1.7970098,1.9381863,-0.9524667,1.4128256,1.4409112,8.61107872620282,2.231477987237011,walk
09/07/2020, 21:56:50,8.195417,-1.7970098,1.9381863,-0.9964267,1.3725289,1.3676445,8.61107872620282,2.1787963174422194,walk
09/07/2020, 21:56:51,10.741381,-2.6225336,5.2235317,-0.098910004,1.1283067,1.2711767,12.228664076424392,1.702571436103489,walk
09/07/2020, 21:56:51,10.741381,-2.6225336,5.2235317,-0.26009667,1.1979101,1.4348056,12.228664076424392,1.8871422878835373,walk
09/07/2020, 21:56:51,9.839287,-2.589034,4.7306104,-0.26009667,1.1979101,1.4348056,11.220219996242315,1.8871422878835373,walk
09/07/2020, 21:56:51,9.839287,-2.589034,4.7306104,-0.35290113,1.2162267,1.61553,11.220219996242315,2.0527259468513197,walk
09/07/2020, 21:56:51,9.116654,-2.5842485,4.28076,-0.35290113,1.2162267,1.61553,10.397914813603089,2.0527259468513197,walk
09/07/2020, 21:56:51,9.116654,-2.5842485,4.28076,-0.3834289,1.2027946,1.790149,10.397914813603089,2.190517245677611,walk
09/07/2020, 21:56:51,8.580662,-2.5507488,3.9026937,-0.3834289,1.2027946,1.790149,9.765505339577306,2.190517245677611,walk
09/07/2020, 21:56:51,8.580662,-2.5507488,3.9026937,-0.36389112,1.1417389,1.9488934,9.765505339577306,2.2878308592117875,walk
09/07/2020, 21:56:51,8.298309,-2.5052853,3.6179478,-0.36389112,1.1417389,1.9488934,9.392972816291179,2.2878308592117875,walk
09/07/2020, 21:56:51,8.298309,-2.5052853,3.6179478,-0.32970002,1.05504,2.0929844,9.392972816291179,2.3669379730228632,walk
09/07/2020, 21:56:51,8.243274,-2.4191437,3.3906298,-0.32970002,1.05504,2.0929844,9.235810101223954,2.3669379730228632,walk
09/07/2020, 21:56:51,8.243274,-2.4191437,3.3906298,-0.27108666,0.9634567,2.2150958,9.235810101223954,2.4307171764763247,walk
09/07/2020, 21:56:51,8.394022,-2.3856442,3.2207394,-0.27108666,0.9634567,2.2150958,9.301831294177157,2.4307171764763247,walk
09/07/2020, 21:56:51,8.394022,-2.3856442,3.2207394,-0.19049335,0.8730945,2.3091211,9.301831294177157,2.476009313540628,walk
09/07/2020, 21:56:51,8.772088,-2.3928227,3.1130621,-0.19049335,0.8730945,2.3091211,9.610738023522563,2.476009313540628,walk
09/07/2020, 21:56:51,8.772088,-2.3928227,3.1130621,-0.07204556,0.7900589,2.3652923,9.610738023522563,2.494792849125327,walk
09/07/2020, 21:56:51,9.29133,-2.4622145,3.103491,-0.07204556,0.7900589,2.3652923,10.100642372903046,2.494792849125327,walk
09/07/2020, 21:56:51,9.29133,-2.4622145,3.103491,0.078151114,0.72534,2.3872724,10.100642372903046,2.4962562039831275,walk
09/07/2020, 21:56:51,9.920643,-2.603391,3.318845,0.078151114,0.72534,2.3872724,10.780145236270492,2.4962562039831275,walk
09/07/2020, 21:56:51,9.920643,-2.603391,3.318845,0.26498112,0.6618422,2.3811667,10.780145236270492,2.4855995181367687,walk
09/07/2020, 21:56:52,8.178668,-3.438486,6.257231,1.1612767,-0.42250445,-0.2625389,10.856644970058223,1.2633290399440475,walk
09/07/2020, 21:56:52,8.178668,-3.438486,6.257231,1.2333223,-0.35534334,-0.23201112,10.856644970058223,1.3042936234982576,walk
09/07/2020, 21:56:52,8.439486,-3.495914,6.2979093,1.2333223,-0.35534334,-0.23201112,11.095494219020978,1.3042936234982576,walk
09/07/2020, 21:56:52,8.439486,-3.495914,6.2979093,1.3017045,-0.27230778,-0.19904111,11.095494219020978,1.3446945997216,walk
09/07/2020, 21:56:52,8.784052,-3.5700915,6.34098,1.3017045,-0.27230778,-0.19904111,11.40671508133134,1.3446945997216,walk
09/07/2020, 21:56:52,8.784052,-3.5700915,6.34098,1.3554333,-0.20148334,-0.14775445,11.40671508133134,1.3782693729623505,walk
09/07/2020, 21:56:52,9.253045,-3.682554,6.3744793,1.3554333,-0.20148334,-0.14775445,11.824298438806693,1.3782693729623505,walk
09/07/2020, 21:56:52,9.253045,-3.682554,6.3744793,1.4140468,-0.12089001,-0.085477784,11.824298438806693,1.4217767395388217,walk
09/07/2020, 21:56:52,9.810573,-3.7615173,6.4438715,1.4140468,-0.12089001,-0.085477784,12.325576148565917,1.4217767395388217,walk
09/07/2020, 21:56:52,9.810573,-3.7615173,6.4438715,1.4848711,-0.04396,-0.025643334,12.325576148565917,1.4857430435994066,walk
09/07/2020, 21:56:52,10.573883,-3.859623,6.498906,1.4848711,-0.04396,-0.025643334,12.997671838124308,1.4857430435994066,walk
09/07/2020, 21:56:52,10.573883,-3.859623,6.498906,1.5679067,0.037854444,0.035412222,12.997671838124308,1.5687633732921529,walk
09/07/2020, 21:56:52,11.485549,-3.952943,6.5754766,1.5679067,0.037854444,0.035412222,13.812330990345103,1.5687633732921529,walk
09/07/2020, 21:56:52,11.485549,-3.952943,6.5754766,1.6423945,0.15019667,0.09646778,13.812330990345103,1.6520668588788274,walk
09/07/2020, 21:56:52,12.416357,-4.0103707,6.690332,1.6423945,0.15019667,0.09646778,14.663203502987015,1.6520668588788274,walk
09/07/2020, 21:56:52,12.416357,-4.0103707,6.690332,1.6753645,0.29795113,0.16973445,14.663203502987015,1.7100967366905884,walk
09/07/2020, 21:56:52,13.217953,-3.8907297,6.7262244,1.6753645,0.29795113,0.16973445,15.332780134080153,1.7100967366905884,walk
09/07/2020, 21:56:52,13.217953,-3.8907297,6.7262244,1.6375101,0.4921078,0.25277,15.332780134080153,1.728439172282711,walk
09/07/2020, 21:56:52,13.79223,-3.7280176,6.687939,1.6375101,0.4921078,0.25277,15.7750513177667,1.728439172282711,walk
09/07/2020, 21:56:52,13.79223,-3.7280176,6.687939,1.5215045,0.7265611,0.35168,15.7750513177667,1.7223663700513283,walk
09/07/2020, 21:56:53,9.389436,-3.926622,5.6853466,0.85111445,-1.0037534,-2.0832157,11.657745480979893,2.464082883093883,walk
09/07/2020, 21:56:53,9.389436,-3.926622,5.6853466,0.88896894,-0.97933114,-1.998959,11.657745480979893,2.3969130402905607,walk
09/07/2020, 21:56:53,9.415757,-3.8500516,5.5704913,0.88896894,-0.97933114,-1.998959,11.59783403827414,2.3969130402905607,walk
09/07/2020, 21:56:53,9.415757,-3.8500516,5.5704913,0.90362227,-0.94880337,-1.911039,11.59783403827414,2.317073816616448,walk
09/07/2020, 21:56:53,9.410972,-3.7184465,5.45085,0.90362227,-0.94880337,-1.911039,11.493693809690427,2.317073816616448,walk
09/07/2020, 21:56:53,9.410972,-3.7184465,5.45085,0.89019006,-0.9048434,-1.8109078,11.493693809690427,2.211462665223412,walk
09/07/2020, 21:56:53,9.45165,-3.6466618,5.345566,0.89019006,-0.9048434,-1.8109078,11.454557916578663,2.211462665223412,walk
09/07/2020, 21:56:53,9.45165,-3.6466618,5.345566,0.8425667,-0.8523356,-1.6997868,11.454557916578663,2.0798244457170556,walk
09/07/2020, 21:56:53,9.523434,-3.5102708,5.2809596,0.8425667,-0.8523356,-1.6997868,11.441430192426958,2.0798244457170556,walk
09/07/2020, 21:56:53,9.523434,-3.5102708,5.2809596,0.7717422,-0.78761667,-1.5752333,11.441430192426958,1.9228328467969247,walk
09/07/2020, 21:56:53,9.623933,-3.3810585,5.218746,0.7717422,-0.78761667,-1.5752333,11.458051810768358,1.9228328467969247,walk
09/07/2020, 21:56:53,9.623933,-3.3810585,5.218746,0.6838223,-0.7070234,-1.4519012,11.458051810768358,1.7537137887268928,walk
09/07/2020, 21:56:53,9.65504,-3.3044882,5.1852465,0.6838223,-0.7070234,-1.4519012,11.446668352375946,1.7537137887268928,walk
09/07/2020, 21:56:53,9.65504,-3.3044882,5.1852465,0.5873545,-0.6252089,-1.3188001,11.446668352375946,1.5732466923808182,walk
09/07/2020, 21:56:53,9.611969,-3.237489,5.204389,0.5873545,-0.6252089,-1.3188001,11.39986617149782,1.5732466923808182,walk
09/07/2020, 21:56:53,9.611969,-3.237489,5.204389,0.5018767,-0.54339445,-1.1795933,11.39986617149782,1.3923355090735656,walk
09/07/2020, 21:56:53,9.540184,-3.199204,5.204389,0.5018767,-0.54339445,-1.1795933,11.328534019853937,1.3923355090735656,walk
09/07/2020, 21:56:53,9.540184,-3.199204,5.204389,0.42128336,-0.4689067,-1.0293967,11.328534019853937,1.2070669560878318,walk
09/07/2020, 21:56:53,9.406186,-3.1441689,5.2307105,0.42128336,-0.4689067,-1.0293967,11.21260305204987,1.2070669560878318,walk
09/07/2020, 21:56:53,9.406186,-3.1441689,5.2307105,0.34435335,-0.40296668,-0.8730945,11.21260305204987,1.0213987352458251,walk
09/07/2020, 21:56:54,7.372287,-2.5818555,4.106084,0.82425004,-1.4445745,-2.1821256,8.824767156363945,2.7436937772527608,walk
09/07/2020, 21:56:54,7.800602,-2.6009982,4.28076,0.82425004,-1.4445745,-2.1821256,9.270355275517742,2.7436937772527608,walk
09/07/2020, 21:56:54,7.800602,-2.6009982,4.28076,0.9927634,-1.5190623,-2.1711357,9.270355275517742,2.8296571263097205,walk
09/07/2020, 21:56:54,8.389236,-2.5842485,4.462614,0.9927634,-1.5190623,-2.1711357,9.847464292484664,2.8296571263097205,walk
09/07/2020, 21:56:54,8.389236,-2.5842485,4.462614,1.1478444,-1.5825601,-2.1552613,9.847464292484664,2.9098443897232125,walk
09/07/2020, 21:56:54,9.083155,-2.5220351,4.6085763,1.1478444,-1.5825601,-2.1552613,10.493013654770378,2.9098443897232125,walk
09/07/2020, 21:56:54,9.083155,-2.5220351,4.6085763,1.2540811,-1.6521634,-2.1479344,10.493013654770378,2.985964782219235,walk
09/07/2020, 21:56:54,9.836894,-2.4191437,4.682754,1.2540811,-1.6521634,-2.1479344,11.159969793338249,2.985964782219235,walk
09/07/2020, 21:56:54,9.836894,-2.4191437,4.682754,1.3175789,-1.68147,-2.1479344,11.159969793338249,3.0293527389895782,walk
09/07/2020, 21:56:54,10.631311,-2.3018954,4.7569313,1.3175789,-1.68147,-2.1479344,11.872316548074286,3.0293527389895782,walk
09/07/2020, 21:56:54,10.631311,-2.3018954,4.7569313,1.3224634,-1.6631534,-2.1479344,11.872316548074286,3.0213591372463178,walk
09/07/2020, 21:56:54,11.327622,-2.1702902,4.802395,1.3224634,-1.6631534,-2.1479344,12.493525751114799,3.0213591372463178,walk
09/07/2020, 21:56:54,11.327622,-2.1702902,4.802395,1.2491968,-1.5911078,-2.15404,12.493525751114799,2.9549966979180784,walk
09/07/2020, 21:56:54,11.813365,-2.0195422,4.8215375,1.2491968,-1.5911078,-2.15404,12.918257111232847,2.9549966979180784,walk
09/07/2020, 21:56:54,11.813365,-2.0195422,4.8215375,1.10999,-1.4848711,-2.1479344,12.918257111232847,2.8373477890121577,walk
09/07/2020, 21:56:54,11.971292,-1.8065811,4.7688956,1.10999,-1.4848711,-2.1479344,13.012222027424711,2.8373477890121577,walk
09/07/2020, 21:56:54,11.971292,-1.8065811,4.7688956,0.9048434,-1.3932878,-2.1442711,13.012222027424711,2.7125432889195706,walk
09/07/2020, 21:56:54,11.779866,-1.5984055,4.685147,0.9048434,-1.3932878,-2.1442711,12.777744277665754,2.7125432889195706,walk
09/07/2020, 21:56:54,11.779866,-1.5984055,4.685147,0.67039,-1.32979,-2.141829,12.777744277665754,2.6086770063885485,walk
09/07/2020, 21:56:54,11.492727,-1.4117653,4.6085763,0.67039,-1.32979,-2.141829,12.46253734934082,2.6086770063885485,walk
09/07/2020, 21:56:55,7.628319,-1.68694,2.1463618,-0.60811335,0.7436567,1.2601867,8.102091274314752,1.5845811980694664,walk
09/07/2020, 21:56:55,7.628319,-1.68694,2.1463618,-0.62765115,0.68504333,1.1563922,8.102091274314752,1.4833992388917523,walk
09/07/2020, 21:56:55,7.587641,-1.5840486,2.1176481,-0.62765115,0.68504333,1.1563922,8.03529314814383,1.4833992388917523,walk
09/07/2020, 21:56:55,7.587641,-1.5840486,2.1176481,-0.64841,0.6288723,1.0403867,8.03529314814383,1.3777954612028855,walk
09/07/2020, 21:56:55,7.5661054,-1.4715859,2.1391835,-0.64841,0.6288723,1.0403867,7.999226307307371,1.3777954612028855,walk
09/07/2020, 21:56:55,7.5661054,-1.4715859,2.1391835,-0.6667267,0.5653745,0.9170545,7.999226307307371,1.2669497743220484,walk
09/07/2020, 21:56:55,7.537391,-1.3950156,2.172683,-0.6667267,0.5653745,0.9170545,7.967363793937981,1.2669497743220484,walk
09/07/2020, 21:56:55,7.537391,-1.3950156,2.172683,-0.6899278,0.5018767,0.7766267,7.967363793937981,1.1537025900927835,walk
09/07/2020, 21:56:55,7.587641,-1.3543376,2.199004,-0.6899278,0.5018767,0.7766267,8.015119519100624,1.1537025900927835,walk
09/07/2020, 21:56:55,7.587641,-1.3543376,2.199004,-0.69603336,0.42983112,0.6252089,8.015119519100624,1.0296132342879438,walk
09/07/2020, 21:56:55,7.6737823,-1.3591232,2.225325,-0.69603336,0.42983112,0.6252089,8.104703777613489,1.0296132342879438,walk
09/07/2020, 21:56:55,7.6737823,-1.3591232,2.225325,-0.69114894,0.36267,0.4566956,8.104703777613489,0.9043158980761185,walk
09/07/2020, 21:56:55,7.745567,-1.3998013,2.2827528,-0.69114894,0.36267,0.4566956,8.195377320724852,0.9043158980761185,walk
09/07/2020, 21:56:55,7.745567,-1.3998013,2.2827528,-0.6801589,0.29673,0.28574002,8.195377320724852,0.7951806114251244,walk
09/07/2020, 21:56:55,7.84128,-1.4237294,2.3665016,-0.6801589,0.29673,0.28574002,8.313423297301874,0.7951806114251244,walk
09/07/2020, 21:56:55,7.84128,-1.4237294,2.3665016,-0.6471889,0.22346334,0.109900005,8.313423297301874,0.6934459971150864,walk
09/07/2020, 21:56:55,8.006385,-1.4476577,2.5268207,-0.6471889,0.22346334,0.109900005,8.519550095751617,0.6934459971150864,walk
09/07/2020, 21:56:55,8.006385,-1.4476577,2.5268207,-0.6020078,0.15386,-0.07693,8.519550095751617,0.6261026468620176,walk
09/07/2020, 21:56:55,8.260024,-1.3878372,2.7421749,-0.6020078,0.15386,-0.07693,8.813263450486946,0.6261026468620176,walk
09/07/2020, 21:56:55,8.260024,-1.3878372,2.7421749,-0.56659555,0.10379445,-0.26498112,8.813263450486946,0.6340495280784898,walk
09/07/2020, 21:56:56,8.008778,-1.0289137,1.5720844,-0.9927634,1.4555645,1.7925912,8.22621613277882,2.5134896936632467,walk
09/07/2020, 21:56:56,8.008778,-1.0289137,1.5720844,-1.064809,1.3774134,1.6497211,8.22621613277882,2.3984715221056248,walk
09/07/2020, 21:56:56,7.8293157,-0.9499506,1.5625132,-1.064809,1.3774134,1.6497211,8.040027203851137,2.3984715221056248,walk
09/07/2020, 21:56:56,7.8293157,-0.9499506,1.5625132,-1.119759,1.2919356,1.4934189,8.040027203851137,2.270078796438256,walk
09/07/2020, 21:56:56,7.688139,-0.9068798,1.550549,-1.119759,1.2919356,1.4934189,7.895195623379342,2.270078796438256,walk
09/07/2020, 21:56:56,7.688139,-0.9068798,1.550549,-1.1637189,1.2040156,1.3285689,7.895195623379342,2.137519773024446,walk
09/07/2020, 21:56:56,7.6139617,-0.9499506,1.6007984,-1.1637189,1.2040156,1.3285689,7.838199680451554,2.137519773024446,walk
09/07/2020, 21:56:56,7.6139617,-0.9499506,1.6007984,-1.18692,1.119759,1.1490656,7.838199680451554,1.995743249702835,walk
09/07/2020, 21:56:56,7.580462,-1.0241281,1.7180467,-1.18692,1.119759,1.1490656,7.839893269717191,1.995743249702835,walk
09/07/2020, 21:56:56,7.580462,-1.0241281,1.7180467,-1.1893623,1.0562612,0.96223557,7.839893269717191,1.8590770901999656,walk
09/07/2020, 21:56:56,7.487142,-1.119841,1.7970098,-1.1893623,1.0562612,0.96223557,7.780783042188691,1.8590770901999656,walk
09/07/2020, 21:56:56,7.487142,-1.119841,1.7970098,-1.1661612,0.9964267,0.7631945,7.780783042188691,1.7132611929278359,walk
09/07/2020, 21:56:56,7.372287,-1.2490535,1.9525433,-1.1661612,0.9964267,0.7631945,7.728076887515389,1.7132611929278359,walk
09/07/2020, 21:56:56,7.372287,-1.2490535,1.9525433,-1.119759,0.92438114,0.5678167,7.728076887515389,1.5590883229799846,walk
09/07/2020, 21:56:56,7.23111,-1.3926228,2.053042,-1.119759,0.92438114,0.5678167,7.64482391878967,1.5590883229799846,walk
09/07/2020, 21:56:56,7.23111,-1.3926228,2.053042,-1.064809,0.85111445,0.37854445,7.64482391878967,1.41474727144281,walk
09/07/2020, 21:56:56,7.0468626,-1.5672989,2.1774685,-1.064809,0.85111445,0.37854445,7.540296252664293,1.41474727144281,walk
09/07/2020, 21:56:56,7.0468626,-1.5672989,2.1774685,-1.009859,0.7680789,0.19171445,7.540296252664293,1.283165926087636,walk
09/07/2020, 21:56:56,6.896115,-1.68694,2.199004,-1.009859,0.7680789,0.19171445,7.432212618908121,1.283165926087636,walk
09/07/2020, 21:56:56,6.896115,-1.68694,2.199004,-0.9500245,0.6679478,0.008547778,7.432212618908121,1.1613672501357535,walk
09/07/2020, 21:56:57,11.743974,-1.5984055,2.8474588,2.0844367,1.1918045,3.1712258,12.189497156965716,3.977681132209527,walk
09/07/2020, 21:56:57,11.743974,-1.5984055,2.8474588,1.8414357,1.24187,3.1553512,12.189497156965716,3.8586743183978345,walk
09/07/2020, 21:56:57,11.700903,-1.564906,2.87378,1.8414357,1.24187,3.1553512,12.149842465422843,3.8586743183978345,walk
09/07/2020, 21:56:57,11.700903,-1.564906,2.87378,1.6216357,1.2797245,3.1297078,12.149842465422843,3.7499957335531313,walk
09/07/2020, 21:56:57,11.69851,-1.6319051,2.9072795,1.6216357,1.2797245,3.1297078,12.16431372601643,3.7499957335531313,walk
09/07/2020, 21:56:57,11.69851,-1.6319051,2.9072795,1.4323634,1.3114734,3.0930746,12.16431372601643,3.652223640135322,walk
09/07/2020, 21:56:57,11.703296,-1.7659031,2.9623144,1.4323634,1.3114734,3.0930746,12.200854504711481,3.652223640135322,walk
09/07/2020, 21:56:57,11.703296,-1.7659031,2.9623144,1.2699556,1.34078,3.0393457,12.200854504711481,3.5564168641237965,walk
09/07/2020, 21:56:57,11.693725,-1.9046868,3.0460632,1.2699556,1.34078,3.0393457,12.23313240913454,3.5564168641237965,walk
09/07/2020, 21:56:57,11.693725,-1.9046868,3.0460632,1.1417389,1.3749712,2.9721847,12.23313240913454,3.468139992156689,walk
09/07/2020, 21:56:57,11.660225,-2.1128623,3.0795627,1.1417389,1.3749712,2.9721847,12.243722414509335,3.468139992156689,walk
09/07/2020, 21:56:57,11.660225,-2.1128623,3.0795627,1.0623667,1.3981723,2.887928,12.243722414509335,3.379887114744126,walk
09/07/2020, 21:56:57,11.600404,-2.2971098,3.0987053,1.0623667,1.3981723,2.887928,12.224894932232049,3.379887114744126,walk
09/07/2020, 21:56:57,11.600404,-2.2971098,3.0987053,1.0293967,1.4225945,2.7926812,12.224894932232049,3.2988636068139923,walk
09/07/2020, 21:56:57,11.464013,-2.4191437,3.089134,1.0293967,1.4225945,2.7926812,12.1168725837803,3.2988636068139923,walk
09/07/2020, 21:56:57,11.464013,-2.4191437,3.089134,1.0318389,1.4348056,2.6827812,12.1168725837803,3.2125805476487916,walk
09/07/2020, 21:56:57,11.260623,-2.5938199,3.0077782,1.0318389,1.4348056,2.6827812,11.940530173001575,3.2125805476487916,walk
09/07/2020, 21:56:57,11.260623,-2.5938199,3.0077782,1.0611455,1.4360267,2.5728812,11.940530173001575,3.1317599378404757,walk
09/07/2020, 21:56:57,11.050055,-2.6991038,2.8666015,1.0611455,1.4360267,2.5728812,11.730569936297133,3.1317599378404757,walk
09/07/2020, 21:56:57,11.050055,-2.6991038,2.8666015,1.0977789,1.4335845,2.4556546,11.730569936297133,3.048035850763028,walk
09/07/2020, 21:56:58,8.779266,-2.7397819,4.505685,-0.54461557,1.2027946,0.7973856,10.24124593918719,1.5424476010969208,walk
09/07/2020, 21:56:58,8.374879,-2.696711,4.0031924,-0.54461557,1.2027946,0.7973856,9.666250382652628,1.5424476010969208,walk
09/07/2020, 21:56:58,8.374879,-2.696711,4.0031924,-0.5507211,1.1490656,0.94758224,9.666250382652628,1.587941319852979,walk
09/07/2020, 21:56:58,8.322237,-2.6679974,3.694518,-0.5507211,1.1490656,0.94758224,9.48827185299471,1.587941319852979,walk
09/07/2020, 21:56:58,8.322237,-2.6679974,3.694518,-0.5018767,1.0733567,1.0855678,9.48827185299471,1.6069948535785423,walk
09/07/2020, 21:56:58,8.578269,-2.6919255,3.5318062,-0.5018767,1.0733567,1.0855678,9.659545403637333,1.6069948535785423,walk
09/07/2020, 21:56:58,8.578269,-2.6919255,3.5318062,-0.3944189,1.0147433,1.2223322,9.659545403637333,1.6368770233912306,walk
09/07/2020, 21:56:58,9.049655,-2.778067,3.5102708,-0.3944189,1.0147433,1.2223322,10.096331666150594,1.6368770233912306,walk
09/07/2020, 21:56:58,9.049655,-2.778067,3.5102708,-0.23445335,0.9524667,1.339559,10.096331666150594,1.660294986693831,walk
09/07/2020, 21:56:58,9.623933,-2.9838498,3.6658044,-0.23445335,0.9524667,1.339559,10.722013080088388,1.660294986693831,walk
09/07/2020, 21:56:58,9.623933,-2.9838498,3.6658044,-0.023201112,0.8865267,1.4348056,10.722013080088388,1.6867528238526608,walk
09/07/2020, 21:56:58,10.298709,-3.249453,3.885944,-0.023201112,0.8865267,1.4348056,11.477060184711702,1.6867528238526608,walk
09/07/2020, 21:56:58,10.298709,-3.249453,3.885944,0.22346334,0.85111445,1.5141778,11.477060184711702,1.7513041092024955,walk
09/07/2020, 21:56:58,11.002198,-3.5509489,4.278367,0.22346334,0.85111445,1.5141778,12.327287941856646,1.7513041092024955,walk
09/07/2020, 21:56:58,11.002198,-3.5509489,4.278367,0.48478112,0.88042116,1.5825601,12.327287941856646,1.8747401163052069,walk
09/07/2020, 21:56:58,11.602797,-3.9026937,4.718646,0.48478112,0.88042116,1.5825601,13.119509400944525,1.8747401163052069,walk
09/07/2020, 21:56:58,11.602797,-3.9026937,4.718646,0.7338878,0.95857227,1.636289,13.119509400944525,2.0334438221433935,walk
09/07/2020, 21:56:58,11.96172,-4.1180477,5.0249276,0.7338878,0.95857227,1.636289,13.612162614564554,2.0334438221433935,walk
09/07/2020, 21:56:58,11.96172,-4.1180477,5.0249276,0.96223557,1.0428289,1.6729223,13.612162614564554,2.193640424017799,walk
09/07/2020, 21:56:58,12.0023985,-4.1922255,5.180461,0.96223557,1.0428289,1.6729223,13.728419401239929,2.193640424017799,walk
09/07/2020, 21:56:59,9.942178,-3.182454,5.948557,1.1063267,-1.1087689,-1.8927222,12.015000716203492,2.456771222501669,walk
09/07/2020, 21:56:59,9.937392,-3.1202407,5.9988065,1.1063267,-1.1087689,-1.8927222,12.019706549038323,2.456771222501669,walk
09/07/2020, 21:56:59,9.937392,-3.1202407,5.9988065,1.06603,-1.0696933,-1.7669479,12.019706549038323,2.3243856367429854,walk
09/07/2020, 21:56:59,9.911072,-3.0364919,6.087341,1.06603,-1.0696933,-1.7669479,12.021037603283334,2.3243856367429854,walk
09/07/2020, 21:56:59,9.911072,-3.0364919,6.087341,1.0147433,-1.01108,-1.6387311,12.021037603283334,2.1765630090632055,walk
09/07/2020, 21:56:59,9.891929,-2.9982069,6.175875,1.0147433,-1.01108,-1.6387311,12.040802777662464,2.1765630090632055,walk
09/07/2020, 21:56:59,9.891929,-2.9982069,6.175875,0.9512456,-0.9414767,-1.5080723,12.040802777662464,2.0163155797142966,walk
09/07/2020, 21:56:59,9.844072,-2.9766715,6.2811594,0.9512456,-0.9414767,-1.5080723,12.050696936592447,2.0163155797142966,walk
09/07/2020, 21:56:59,9.844072,-2.9766715,6.2811594,0.88286334,-0.86088336,-1.3664234,12.050696936592447,1.840565308541994,walk
09/07/2020, 21:56:59,9.738789,-2.9838498,6.3744793,0.88286334,-0.86088336,-1.3664234,12.01587904268647,1.840565308541994,walk
09/07/2020, 21:56:59,9.738789,-2.9838498,6.3744793,0.8095967,-0.7717422,-1.229659,12.01587904268647,1.6622557165570462,walk
09/07/2020, 21:56:59,9.571291,-3.0269206,6.4151573,0.8095967,-0.7717422,-1.229659,11.913274205867856,1.6622557165570462,walk
09/07/2020, 21:56:59,9.571291,-3.0269206,6.4151573,0.7546467,-0.6789378,-1.0831256,11.913274205867856,1.484455874281775,walk
09/07/2020, 21:56:59,9.329616,-3.0652058,6.4343,0.7546467,-0.6789378,-1.0831256,11.74041862873576,1.484455874281775,walk
09/07/2020, 21:56:59,9.329616,-3.0652058,6.4343,0.71923447,-0.58979666,-0.9402556,11.74041862873576,1.3225879482595408,walk
09/07/2020, 21:56:59,9.013762,-3.0963125,6.4677997,0.71923447,-0.58979666,-0.9402556,11.518137769010384,1.3225879482595408,walk
09/07/2020, 21:56:59,9.013762,-3.0963125,6.4677997,0.7021389,-0.51775116,-0.7986067,11.518137769010384,1.1827247981328923,walk
09/07/2020, 21:56:59,8.652447,-3.1226335,6.398408,0.7021389,-0.51775116,-0.7986067,11.20514607362552,1.1827247981328923,walk
09/07/2020, 21:56:59,8.652447,-3.1226335,6.398408,0.71435004,-0.4566956,-0.6569578,11.20514607362552,1.07259517192402,walk
09/07/2020, 21:56:59,8.348558,-3.1657043,6.3314085,0.71435004,-0.4566956,-0.6569578,10.945631310878724,1.07259517192402,walk
09/07/2020, 21:57:00,-3.2279177,-3.9433718,0.033499517,-2.62661,-2.9160135,2.2150958,5.096151062117957,4.506535713365455,walk
09/07/2020, 21:57:00,-2.8139594,-3.6466618,0.1698904,-2.62661,-2.9160135,2.2150958,4.609270225323224,4.506535713365455,walk
09/07/2020, 21:57:00,-2.8139594,-3.6466618,0.1698904,-2.5411322,-2.7865756,1.998959,4.609270225323224,4.268277534362802,walk
09/07/2020, 21:57:00,-2.469393,-3.3427732,0.09092726,-2.5411322,-2.7865756,1.998959,4.1569582977033095,4.268277534362802,walk
09/07/2020, 21:57:00,-2.469393,-3.3427732,0.09092726,-2.515489,-2.614399,1.7632846,4.1569582977033095,4.033849250494306,walk
09/07/2020, 21:57:00,-2.1966112,-3.103491,-0.0526421,-2.515489,-2.614399,1.7632846,3.802568686255894,4.033849250494306,walk
09/07/2020, 21:57:00,-2.1966112,-3.103491,-0.0526421,-2.5106046,-2.449549,1.5141778,3.802568686255894,3.82049212427588,walk
09/07/2020, 21:57:00,-2.0291135,-2.9910283,0.16510476,-2.5106046,-2.449549,1.5141778,3.6181226691392405,3.82049212427588,walk
09/07/2020, 21:57:00,-2.0291135,-2.9910283,0.16510476,-2.481298,-2.2834778,1.2882723,3.6181226691392405,3.6098138208866333,walk
09/07/2020, 21:57:00,-1.9908284,-2.940779,0.5814559,-2.481298,-2.2834778,1.2882723,3.5985649362358916,3.6098138208866333,walk
09/07/2020, 21:57:00,-1.9908284,-2.940779,0.5814559,-2.4434435,-2.0942056,1.1185378,3.5985649362358916,3.406940014262305,walk
09/07/2020, 21:57:00,-1.995614,-2.9240294,1.052842,-2.4434435,-2.0942056,1.1185378,3.693358824468487,3.406940014262305,walk
09/07/2020, 21:57:00,-1.995614,-2.9240294,1.052842,-2.4007046,-1.8817323,0.98055226,3.693358824468487,3.2040259092517065,walk
09/07/2020, 21:57:00,-2.132005,-2.8163524,1.3447664,-2.4007046,-1.8817323,0.98055226,3.7796405237402286,3.2040259092517065,walk
09/07/2020, 21:57:00,-2.132005,-2.8163524,1.3447664,-2.3628502,-1.6582689,0.84745115,3.7796405237402286,3.0085030012132994,walk
09/07/2020, 21:57:00,-2.3832514,-2.861816,1.1700903,-2.3628502,-1.6582689,0.84745115,3.903714786894804,3.0085030012132994,walk
09/07/2020, 21:57:00,-2.3832514,-2.861816,1.1700903,-2.3628502,-1.4421322,0.7448778,3.903714786894804,2.8666442678307713,walk
09/07/2020, 21:57:00,-2.6679974,-3.0915267,0.8422736,-2.3628502,-1.4421322,0.7448778,4.169553015065343,2.8666442678307713,walk
09/07/2020, 21:57:00,-2.6679974,-3.0915267,0.8422736,-2.372619,-1.28583,0.67039,4.169553015065343,2.780665768735701,walk
09/07/2020, 21:57:00,-3.0269206,-3.35713,0.6987042,-2.372619,-1.28583,0.67039,4.573921487197349,2.780665768735701,walk
09/07/2020, 21:57:01,-9.616755,-3.158526,-1.5098711,-1.2931567,-0.18927222,-0.4566956,10.234156764395095,1.3844310007692493,walk
09/07/2020, 21:57:01,-9.52822,-3.5700915,-1.1078769,-1.2931567,-0.18927222,-0.4566956,10.235229561297121,1.3844310007692493,walk
09/07/2020, 21:57:01,-9.52822,-3.5700915,-1.1078769,-1.3566545,-0.14287001,-0.45303226,10.235229561297121,1.43741488908104,walk
09/07/2020, 21:57:01,-9.212367,-4.115655,-1.174876,-1.3566545,-0.14287001,-0.45303226,10.158083283417376,1.43741488908104,walk
09/07/2020, 21:57:01,-9.212367,-4.115655,-1.174876,-1.3835189,-0.07326667,-0.47501224,10.158083283417376,1.4646259854245487,walk
09/07/2020, 21:57:01,-9.176475,-4.6707897,-1.3112668,-1.3835189,-0.07326667,-0.47501224,10.379950997962526,1.4646259854245487,walk
09/07/2020, 21:57:01,-9.176475,-4.6707897,-1.3112668,-1.3725289,-0.064718895,-0.49821335,10.379950997962526,1.4615884129085426,walk
09/07/2020, 21:57:01,-9.35833,-5.3742795,-1.3567305,-1.3725289,-0.064718895,-0.49821335,10.876669242803697,1.4615884129085426,walk
09/07/2020, 21:57:01,-9.35833,-5.3742795,-1.3567305,-1.3310112,-0.09280445,-0.45425335,10.876669242803697,1.4094500765837061,walk
09/07/2020, 21:57:01,-9.597611,-6.393622,-1.294517,-1.3310112,-0.09280445,-0.45425335,11.604668058702451,1.4094500765837061,walk
09/07/2020, 21:57:01,-9.597611,-6.393622,-1.294517,-1.1478444,-0.14164889,-0.37854445,11.604668058702451,1.2169252862387712,walk
09/07/2020, 21:57:01,-9.762716,-7.001399,-0.9284152,-1.1478444,-0.14164889,-0.37854445,12.049571473278146,1.2169252862387712,walk
09/07/2020, 21:57:01,-9.762716,-7.001399,-0.9284152,-0.78395337,-0.16485001,-0.30405667,12.049571473278146,0.856859890338786,walk
09/07/2020, 21:57:01,-9.7196455,-7.365108,-0.56470615,-0.78395337,-0.16485001,-0.30405667,12.207998104799222,0.856859890338786,walk
09/07/2020, 21:57:01,-9.7196455,-7.365108,-0.56470615,-0.4933289,-0.10745778,-0.19537778,12.207998104799222,0.5413806930140357,walk
09/07/2020, 21:57:01,-9.509077,-7.3292155,-0.4139583,-0.4933289,-0.10745778,-0.19537778,12.012964183845403,0.5413806930140357,walk
09/07/2020, 21:57:01,-8.539984,-7.0301127,-0.7896315,-0.4933289,-0.10745778,-0.19537778,11.089514214248831,0.5413806930140357,walk
09/07/2020, 21:57:01,-8.52802,-7.520642,-1.3208381,-0.4933289,-0.10745778,-0.19537778,11.446911806759136,0.5413806930140357,walk
09/07/2020, 21:57:01,-8.52802,-7.520642,-1.3208381,-0.5470578,0.48966557,0.06594,11.446911806759136,0.7371517460230083,walk
09/07/2020, 21:57:01,-8.597412,-8.130812,-1.6007984,-0.5470578,0.48966557,0.06594,11.941027977272155,0.7371517460230083,walk
09/07/2020, 21:57:02,6.7094746,0.2847459,3.9768713,-0.45547447,0.2869611,0.41884112,7.80471870752834,0.6820788472156102,walk
09/07/2020, 21:57:02,6.250053,0.031106694,4.1922255,-0.45547447,0.2869611,0.41884112,7.52588091300133,0.6820788472156102,walk
09/07/2020, 21:57:02,6.250053,0.031106694,4.1922255,-0.16973445,0.13432223,0.34679556,7.52588091300133,0.40880240093159637,walk
09/07/2020, 21:57:02,5.9676995,0.08135597,4.290331,-0.16973445,0.13432223,0.34679556,7.350305814405288,0.40880240093159637,walk
09/07/2020, 21:57:02,5.9676995,0.08135597,4.290331,0.068382226,-0.012211111,0.2625389,7.350305814405288,0.2715730459417279,walk
09/07/2020, 21:57:02,5.946164,0.4354937,4.3094735,0.068382226,-0.012211111,0.2625389,7.356499481195106,0.2715730459417279,walk
09/07/2020, 21:57:02,5.946164,0.4354937,4.3094735,0.21491556,-0.11966889,0.17217667,7.356499481195106,0.3002568042817152,walk
09/07/2020, 21:57:02,6.209375,0.88295156,4.23051,0.21491556,-0.11966889,0.17217667,7.565259876992844,0.3002568042817152,walk
09/07/2020, 21:57:02,6.209375,0.88295156,4.23051,0.2613178,-0.16729222,0.070824444,7.565259876992844,0.31826054847609286,walk
09/07/2020, 21:57:02,6.7836523,1.1940185,4.1276193,0.2613178,-0.16729222,0.070824444,8.029997481363877,0.31826054847609286,walk
09/07/2020, 21:57:02,6.7836523,1.1940185,4.1276193,0.24300112,-0.17584,-0.037854444,8.029997481363877,0.30232798398584837,walk
09/07/2020, 21:57:02,7.3842506,1.4237294,3.9338005,0.24300112,-0.17584,-0.037854444,8.486987041242879,0.30232798398584837,walk
09/07/2020, 21:57:02,7.3842506,1.4237294,3.9338005,0.19904111,-0.18927222,-0.14042778,8.486987041242879,0.3084822558296929,walk
09/07/2020, 21:57:02,7.8867435,1.4907285,3.711268,0.19904111,-0.18927222,-0.14042778,8.842878772732245,0.3084822558296929,walk
09/07/2020, 21:57:02,7.8867435,1.4907285,3.711268,0.12577444,-0.22712667,-0.23079,8.842878772732245,0.34737553466542515,walk
09/07/2020, 21:57:02,8.228917,1.4404793,3.5174494,0.12577444,-0.22712667,-0.23079,9.064353682665926,0.34737553466542515,walk
09/07/2020, 21:57:02,8.228917,1.4404793,3.5174494,0.054950003,-0.2845189,-0.31382558,9.064353682665926,0.42714985535394717,walk
09/07/2020, 21:57:02,8.377272,1.2969099,3.4360933,0.054950003,-0.2845189,-0.31382558,9.146988196800153,0.42714985535394717,walk
09/07/2020, 21:57:02,8.377272,1.2969099,3.4360933,0.029306669,-0.34679556,-0.41273558,9.146988196800153,0.5398858218925549,walk
09/07/2020, 21:57:02,8.336594,1.1030912,3.7974095,0.029306669,-0.34679556,-0.41273558,9.226912960097282,0.5398858218925549,walk
09/07/2020, 21:57:03,4.319045,-1.4189439,7.372287,0.5336256,1.1881411,1.3529912,8.661302710357674,1.8780364282342525,walk
09/07/2020, 21:57:03,4.182654,-1.3064811,7.312466,0.5336256,1.1881411,1.3529912,8.524884029730975,1.8780364282342525,walk
09/07/2020, 21:57:03,4.182654,-1.3064811,7.312466,0.49821335,1.2101212,1.3420012,8.524884029730975,1.874453779692352,walk
09/07/2020, 21:57:03,3.9960139,-1.174876,7.2095747,0.49821335,1.2101212,1.3420012,8.326249325442982,1.874453779692352,walk
09/07/2020, 21:57:03,3.9960139,-1.174876,7.2095747,0.5006556,1.2125634,1.3346745,8.326249325442982,1.8714491632131005,walk
09/07/2020, 21:57:03,3.7710886,-1.105484,7.082755,0.5006556,1.2125634,1.3346745,8.09991504720541,1.8714491632131005,walk
09/07/2020, 21:57:03,3.7710886,-1.105484,7.082755,0.50554,1.2052367,1.3346745,8.09991504720541,1.8680262591721981,walk
09/07/2020, 21:57:03,3.5653057,-1.0600204,6.920043,0.50554,1.2052367,1.3346745,7.856337770126512,1.8680262591721981,walk
09/07/2020, 21:57:03,3.5653057,-1.0600204,6.920043,0.5226356,1.1893623,1.3444434,7.856337770126512,1.8695611153593716,walk
09/07/2020, 21:57:03,3.318845,-1.0097711,6.7908306,0.5226356,1.1893623,1.3444434,7.625598366851564,1.8695611153593716,walk
09/07/2020, 21:57:03,3.318845,-1.0097711,6.7908306,0.56171113,1.1673822,1.3554333,7.625598366851564,1.8749667313496763,walk
09/07/2020, 21:57:03,3.1322048,-0.9834501,6.7764735,0.56171113,1.1673822,1.3554333,7.5298389260850564,1.8749667313496763,walk
09/07/2020, 21:57:03,3.1322048,-0.9834501,6.7764735,0.6239878,1.1283067,1.3725289,7.5298389260850564,1.883154930338183,walk
09/07/2020, 21:57:03,2.9623144,-0.9451649,6.8865438,0.6239878,1.1283067,1.3725289,7.555999468354187,1.883154930338183,walk
09/07/2020, 21:57:03,2.9623144,-0.9451649,6.8865438,0.6777167,1.0916734,1.3810767,7.555999468354187,1.8863784024915953,walk
09/07/2020, 21:57:03,2.8881369,-0.89491564,7.02772,0.6777167,1.0916734,1.3810767,7.650559233618103,1.8863784024915953,walk
09/07/2020, 21:57:03,2.8881369,-0.89491564,7.02772,0.69603336,1.0574822,1.3725289,7.650559233618103,1.8672350521995809,walk
09/07/2020, 21:57:03,2.885744,-0.7848458,7.133004,0.69603336,1.0574822,1.3725289,7.734549160097379,1.8672350521995809,walk
09/07/2020, 21:57:03,2.885744,-0.7848458,7.133004,0.6874856,1.0232911,1.34078,7.734549160097379,1.8213874315989491,walk
09/07/2020, 21:57:03,2.9503503,-0.64845496,7.2095747,0.6874856,1.0232911,1.34078,7.816842584349542,1.8213874315989491,walk
09/07/2020, 21:57:04,9.640682,-1.3399807,3.859623,0.96589893,1.5398211,1.7132189,10.47067291853994,2.4978248548848514,walk
09/07/2020, 21:57:04,9.640682,-1.3399807,3.859623,0.69114894,1.6399523,1.8157923,10.47067291853994,2.5424854301934396,walk
09/07/2020, 21:57:04,9.839287,-1.4404793,3.8117664,0.69114894,1.6399523,1.8157923,10.649699918258106,2.5424854301934396,walk
09/07/2020, 21:57:04,9.839287,-1.4404793,3.8117664,0.46646446,1.7327567,1.9073756,10.649699918258106,2.618800597968697,walk
09/07/2020, 21:57:04,10.057034,-1.6390835,3.7734814,0.46646446,1.7327567,1.9073756,10.86598729883995,2.618800597968697,walk
09/07/2020, 21:57:04,10.057034,-1.6390835,3.7734814,0.28818223,1.8060234,1.9891901,10.86598729883995,2.7021559229119,walk
09/07/2020, 21:57:04,10.250853,-1.8281165,3.7471602,0.28818223,1.8060234,1.9891901,11.066309155385785,2.7021559229119,walk
09/07/2020, 21:57:04,10.250853,-1.8281165,3.7471602,0.14775445,1.8475412,2.0697834,11.066309155385785,2.7783526479824725,walk
09/07/2020, 21:57:04,10.432707,-2.050649,3.7447674,0.14775445,1.8475412,2.0697834,11.272524826817648,2.7783526479824725,walk
09/07/2020, 21:57:04,10.432707,-2.050649,3.7447674,0.042738892,1.8829534,2.141829,11.272524826817648,2.8521521109847088,walk
09/07/2020, 21:57:04,10.671989,-2.2636101,3.682554,0.042738892,1.8829534,2.141829,11.514186616281451,2.8521521109847088,walk
09/07/2020, 21:57:04,10.671989,-2.2636101,3.682554,-0.023201112,1.90127,2.2053268,11.514186616281451,2.911843454100857,walk
09/07/2020, 21:57:04,10.959127,-2.498107,3.6011982,-0.023201112,1.90127,2.2053268,11.803035234989164,2.911843454100857,walk
09/07/2020, 21:57:04,10.959127,-2.498107,3.6011982,-0.046402223,1.91226,2.2590556,11.803035234989164,2.9601053960346757,walk
09/07/2020, 21:57:04,11.320444,-2.7182465,3.5509489,-0.046402223,1.91226,2.2590556,12.171711317314724,2.9601053960346757,walk
09/07/2020, 21:57:04,11.320444,-2.7182465,3.5509489,-0.023201112,1.9232501,2.3054578,12.171711317314724,3.0024265130791536,walk
09/07/2020, 21:57:04,11.662618,-2.928815,3.5198421,-0.023201112,1.9232501,2.3054578,12.529321474972075,3.0024265130791536,walk
09/07/2020, 21:57:04,11.662618,-2.928815,3.5198421,0.028085556,1.9317979,2.3420913,12.529321474972075,3.0361198162477634,walk
09/07/2020, 21:57:04,12.021541,-3.1154552,3.5126636,0.028085556,1.9317979,2.3420913,12.905901974838741,3.0361198162477634,walk
09/07/2020, 21:57:04,12.021541,-3.1154552,3.5126636,0.10867889,1.9317979,2.3640711,12.905901974838741,3.0549118469624723,walk
09/07/2020, 21:57:05,10.152746,-2.6081767,5.845666,1.4860923,-1.6753645,-0.40785113,12.002193605311602,2.276325799019826,walk
09/07/2020, 21:57:05,9.829716,-2.5531418,6.108876,1.4860923,-1.6753645,-0.40785113,11.851591171543904,2.276325799019826,walk
09/07/2020, 21:57:05,9.829716,-2.5531418,6.108876,1.4860923,-1.5679067,-0.2942878,11.851591171543904,2.1802310100166236,walk
09/07/2020, 21:57:05,9.475577,-2.4789643,6.465407,1.4860923,-1.5679067,-0.2942878,11.73598383847419,2.1802310100166236,walk
09/07/2020, 21:57:05,9.475577,-2.4789643,6.465407,1.4787656,-1.4457957,-0.16973445,11.73598383847419,2.075062066478251,walk
09/07/2020, 21:57:05,9.064013,-2.416751,6.8051877,1.4787656,-1.4457957,-0.16973445,11.589115052961144,2.075062066478251,walk
09/07/2020, 21:57:05,9.064013,-2.416751,6.8051877,1.4531223,-1.3273479,-0.039075557,11.589115052961144,1.9684876369227358,walk
09/07/2020, 21:57:05,8.63809,-2.292324,7.0348988,1.4531223,-1.3273479,-0.039075557,11.37370437966674,1.9684876369227358,walk
09/07/2020, 21:57:05,8.63809,-2.292324,7.0348988,1.4042778,-1.2089001,0.09036223,11.37370437966674,1.8551552262563815,walk
09/07/2020, 21:57:05,8.257631,-2.103291,7.233503,1.4042778,-1.2089001,0.09036223,11.177471609896575,1.8551552262563815,walk
09/07/2020, 21:57:05,8.257631,-2.103291,7.233503,1.3310112,-1.0941156,0.21613668,11.177471609896575,1.7364892149704,walk
09/07/2020, 21:57:05,7.9537425,-1.8975084,7.331609,1.3310112,-1.0941156,0.21613668,10.982488109457261,1.7364892149704,walk
09/07/2020, 21:57:05,7.9537425,-1.8975084,7.331609,1.2333223,-0.96956223,0.3370267,10.982488109457261,1.604593940295125,walk
09/07/2020, 21:57:05,7.7814593,-1.6845472,7.405786,1.2333223,-0.96956223,0.3370267,10.873567739335366,1.604593940295125,walk
09/07/2020, 21:57:05,7.7814593,-1.6845472,7.405786,1.130749,-0.8486723,0.44204223,10.873567739335366,1.4812964692165693,walk
09/07/2020, 21:57:05,7.7551384,-1.4596218,7.391429,1.130749,-0.8486723,0.44204223,10.812302678267121,1.4812964692165693,walk
09/07/2020, 21:57:05,7.7551384,-1.4596218,7.391429,1.0330601,-0.71801335,0.5287411,10.812302678267121,1.3646697237236247,walk
09/07/2020, 21:57:05,7.893922,-1.2514462,7.348358,1.0330601,-0.71801335,0.5287411,10.857185983506618,1.3646697237236247,walk
09/07/2020, 21:57:05,7.893922,-1.2514462,7.348358,0.93415004,-0.5800278,0.59834445,10.857185983506618,1.2518325139929927,walk
09/07/2020, 21:57:05,8.13799,-1.0456635,7.2909307,0.93415004,-0.5800278,0.59834445,10.976245463831257,1.2518325139929927,walk
09/07/2020, 21:57:06,8.980264,-2.8163524,5.4460645,-1.0074167,-1.1173167,-0.78761667,10.873665214372112,1.698124005013608,walk
09/07/2020, 21:57:06,8.980264,-2.8163524,5.4460645,-0.8169234,-1.1112112,-0.7167922,10.873665214372112,1.5543311074958097,walk
09/07/2020, 21:57:06,8.7984085,-2.6895328,5.4412785,-0.8169234,-1.1112112,-0.7167922,10.688923705521688,1.5543311074958097,walk
09/07/2020, 21:57:06,8.7984085,-2.6895328,5.4412785,-0.6337567,-1.1063267,-0.63986224,10.688923705521688,1.4265447774487536,walk
09/07/2020, 21:57:06,8.652447,-2.5316064,5.4819565,-0.6337567,-1.1063267,-0.63986224,10.551100071657826,1.4265447774487536,walk
09/07/2020, 21:57:06,8.652447,-2.5316064,5.4819565,-0.4591378,-1.1136534,-0.55316335,10.551100071657826,1.325526744857717,walk
09/07/2020, 21:57:06,8.580662,-2.3545375,5.56092,-0.4591378,-1.1136534,-0.55316335,10.492637030210583,1.325526744857717,walk
09/07/2020, 21:57:06,8.580662,-2.3545375,5.56092,-0.2942878,-1.1173167,-0.46646446,10.492637030210583,1.2460301205203574,walk
09/07/2020, 21:57:06,8.60459,-2.1918256,5.721239,-0.2942878,-1.1173167,-0.46646446,10.562937684928295,1.2460301205203574,walk
09/07/2020, 21:57:06,8.60459,-2.1918256,5.721239,-0.15019667,-1.0953367,-0.38831335,10.562937684928295,1.1717972236279286,walk
09/07/2020, 21:57:06,8.681161,-2.0003998,5.907879,-0.15019667,-1.0953367,-0.38831335,10.689583121868816,1.1717972236279286,walk
09/07/2020, 21:57:06,8.681161,-2.0003998,5.907879,-0.04396,-1.053819,-0.31871,10.689583121868816,1.1018361520843152,walk
09/07/2020, 21:57:06,8.779266,-1.8281165,6.0370917,-0.04396,-1.053819,-0.31871,10.810365600901575,1.1018361520843152,walk
09/07/2020, 21:57:06,8.779266,-1.8281165,6.0370917,0.03174889,-1.0037534,-0.2515489,10.810365600901575,1.0352805271235588,walk
09/07/2020, 21:57:06,8.855837,-1.6031911,6.1806607,0.03174889,-1.0037534,-0.2515489,10.917721165772814,1.0352805271235588,walk
09/07/2020, 21:57:06,8.855837,-1.6031911,6.1806607,0.068382226,-0.94514006,-0.1965989,10.917721165772814,0.9677897485278878,walk
09/07/2020, 21:57:06,8.961121,-1.4141582,6.2668023,0.068382226,-0.94514006,-0.1965989,11.026075330583778,0.9677897485278878,walk
09/07/2020, 21:57:06,8.961121,-1.4141582,6.2668023,0.06105556,-0.8633256,-0.15508112,11.026075330583778,0.8792661830025134,walk
09/07/2020, 21:57:06,9.037691,-1.2442678,6.2787666,0.06105556,-0.8633256,-0.15508112,11.074790000064072,0.8792661830025134,walk
09/07/2020, 21:57:06,9.037691,-1.2442678,6.2787666,0.025643334,-0.77052116,-0.11112112,11.074790000064072,0.7789148525538299,walk
09/07/2020, 21:57:07,10.762917,-1.6965113,3.6179478,-1.2467545,-1.7950335,-1.5630223,11.480769568015505,2.6869277116155685,walk
09/07/2020, 21:57:07,10.762917,-1.6965113,3.6179478,-1.3639811,-1.7779379,-1.5996556,11.480769568015505,2.753253672142853,walk
09/07/2020, 21:57:07,10.695917,-1.9094725,3.7471602,-1.3639811,-1.7779379,-1.5996556,11.493038670204436,2.753253672142853,walk
09/07/2020, 21:57:07,10.695917,-1.9094725,3.7471602,-1.4641123,-1.7657267,-1.6191934,11.493038670204436,2.8077042010710747,walk
09/07/2020, 21:57:07,10.633704,-2.1966112,3.888337,-1.4641123,-1.7657267,-1.6191934,11.5334266002252,2.8077042010710747,walk
09/07/2020, 21:57:07,10.633704,-2.1966112,3.888337,-1.5227256,-1.7620634,-1.6350678,11.5334266002252,2.8455240898079435,walk
09/07/2020, 21:57:07,10.5690975,-2.4454648,4.139583,-1.5227256,-1.7620634,-1.6350678,11.611299196289838,2.8455240898079435,walk
09/07/2020, 21:57:07,10.5690975,-2.4454648,4.139583,-1.5410423,-1.7596211,-1.6460578,11.611299196289838,2.8601721015946895,walk
09/07/2020, 21:57:07,10.552348,-2.6368906,4.402794,-1.5410423,-1.7596211,-1.6460578,11.734131305247319,2.8601721015946895,walk
09/07/2020, 21:57:07,10.552348,-2.6368906,4.402794,-1.5422634,-1.74741,-1.6594901,11.734131305247319,2.8611056768850553,walk
09/07/2020, 21:57:07,10.540383,-2.7397819,4.694718,-1.5422634,-1.74741,-1.6594901,11.859446090096789,2.8611056768850553,walk
09/07/2020, 21:57:07,10.540383,-2.7397819,4.694718,-1.5398211,-1.7278723,-1.680249,11.859446090096789,2.8600399138710184,walk
09/07/2020, 21:57:07,10.554741,-2.7326035,4.9340005,-1.5398211,-1.7278723,-1.680249,11.967206800461078,2.8600399138710184,walk
09/07/2020, 21:57:07,10.554741,-2.7326035,4.9340005,-1.5483689,-1.6826912,-1.6985656,11.967206800461078,2.8485120995398656,walk
09/07/2020, 21:57:07,10.57149,-2.7230322,5.099105,-1.5483689,-1.6826912,-1.6985656,12.04874192826121,2.8485120995398656,walk
09/07/2020, 21:57:07,10.57149,-2.7230322,5.099105,-1.5434844,-1.6167512,-1.7119979,12.04874192826121,2.815522218727288,walk
09/07/2020, 21:57:07,10.51167,-2.7732813,5.2402816,-1.5434844,-1.6167512,-1.7119979,12.068423632827074,2.815522218727288,walk
09/07/2020, 21:57:07,10.51167,-2.7732813,5.2402816,-1.50563,-1.5447056,-1.7181034,12.068423632827074,2.757701316455931,walk
09/07/2020, 21:57:07,10.454242,-2.8091738,5.410172,-1.50563,-1.5447056,-1.7181034,12.101759752236301,2.757701316455931,walk
09/07/2020, 21:57:07,10.454242,-2.8091738,5.410172,-1.4335845,-1.4860923,-1.7217667,12.101759752236301,2.688515463058821,walk
09/07/2020, 21:57:08,8.279166,-1.4691931,3.2446675,0.81326,-1.2430911,-0.23323223,9.012823590508907,1.5036836868684182,walk
09/07/2020, 21:57:08,8.874979,-1.3974084,3.2135608,0.81326,-1.2430911,-0.23323223,9.541749099299825,1.5036836868684182,walk
09/07/2020, 21:57:08,8.874979,-1.3974084,3.2135608,0.8645467,-1.3481067,-0.33336335,9.541749099299825,1.6358373812860776,walk
09/07/2020, 21:57:08,9.466006,-1.2729816,3.2446675,0.8645467,-1.3481067,-0.33336335,10.087300160086082,1.6358373812860776,walk
09/07/2020, 21:57:08,9.466006,-1.2729816,3.2446675,0.88042116,-1.4091623,-0.43349445,10.087300160086082,1.7172062190010107,walk
09/07/2020, 21:57:08,9.944571,-1.1772687,3.345166,0.88042116,-1.4091623,-0.43349445,10.557962885900357,1.7172062190010107,walk
09/07/2020, 21:57:08,9.944571,-1.1772687,3.345166,0.8437878,-1.4519012,-0.5262989,10.557962885900357,1.7598253982292698,walk
09/07/2020, 21:57:08,10.210175,-1.0911272,3.3810585,0.8437878,-1.4519012,-0.5262989,10.810632696696347,1.7598253982292698,walk
09/07/2020, 21:57:08,10.210175,-1.0911272,3.3810585,0.7558678,-1.5215045,-0.61544,10.810632696696347,1.8069528260125423,walk
09/07/2020, 21:57:08,10.327422,-1.0217353,3.37388,0.7558678,-1.5215045,-0.61544,10.912500024665857,1.8069528260125423,walk
09/07/2020, 21:57:08,10.327422,-1.0217353,3.37388,0.6227667,-1.5788968,-0.70336,10.912500024665857,1.837244847785305,walk
09/07/2020, 21:57:08,10.382458,-1.0145568,3.2925239,0.6227667,-1.5788968,-0.70336,10.939171238538785,1.837244847785305,walk
09/07/2020, 21:57:08,10.382458,-1.0145568,3.2925239,0.47257003,-1.6277412,-0.7851745,10.939171238538785,1.8679836414591948,walk
09/07/2020, 21:57:08,10.4351,-1.0456635,3.211168,0.47257003,-1.6277412,-0.7851745,10.967967726686274,1.8679836414591948,walk
09/07/2020, 21:57:08,10.4351,-1.0456635,3.211168,0.33214223,-1.6729223,-0.85722005,10.967967726686274,1.9088775630050046,walk
09/07/2020, 21:57:08,10.447063,-1.2059826,3.2997024,0.33214223,-1.6729223,-0.85722005,11.021958290729984,1.9088775630050046,walk
09/07/2020, 21:57:08,10.447063,-1.2059826,3.2997024,0.21980001,-1.6717012,-0.8987378,11.021958290729984,1.9106612820364448,walk
09/07/2020, 21:57:08,10.191031,-1.3615161,3.5509489,0.21980001,-1.6717012,-0.8987378,10.877503669075312,1.9106612820364448,walk
09/07/2020, 21:57:08,10.191031,-1.3615161,3.5509489,0.13188,-1.6558267,-0.91217005,10.877503669075312,1.895048431904679,walk
09/07/2020, 21:57:08,9.757931,-1.4931214,3.8165522,0.13188,-1.6558267,-0.91217005,10.583604986487769,1.895048431904679,walk
09/07/2020, 21:57:09,8.008778,-3.3643086,3.4241292,1.35177,1.0904523,1.2369856,9.337224018553252,2.1322527486508003,walk
09/07/2020, 21:57:09,8.008778,-3.3643086,3.4241292,1.3065889,1.07702,1.23088,9.337224018553252,2.093373434797795,walk
09/07/2020, 21:57:09,7.881958,-3.0723844,3.5509489,1.3065889,1.07702,1.23088,9.17464143554524,2.093373434797795,walk
09/07/2020, 21:57:09,7.881958,-3.0723844,3.5509489,1.1844778,1.0855678,1.2027946,9.17464143554524,2.007027634323853,walk
09/07/2020, 21:57:09,7.8723865,-2.7326035,3.6921253,1.1844778,1.0855678,1.2027946,9.114459942768859,2.007027634323853,walk
09/07/2020, 21:57:09,7.8723865,-2.7326035,3.6921253,0.99886894,1.10999,1.1600556,9.114459942768859,1.8909114329581782,walk
09/07/2020, 21:57:09,7.948957,-2.4454648,3.7734814,0.99886894,1.10999,1.1600556,9.132654423879998,1.8909114329581782,walk
09/07/2020, 21:57:09,7.948957,-2.4454648,3.7734814,0.76930004,1.1563922,1.0990001,9.132654423879998,1.771120190041938,walk
09/07/2020, 21:57:09,8.001599,-2.2564318,3.8117664,0.76930004,1.1563922,1.0990001,9.145853654966341,1.771120190041938,walk
09/07/2020, 21:57:09,8.001599,-2.2564318,3.8117664,0.53973114,1.2089001,1.0355023,9.145853654966341,1.6807778525452493,walk
09/07/2020, 21:57:09,7.989635,-2.2372892,3.7040894,0.53973114,1.2089001,1.0355023,9.086253821682376,1.6807778525452493,walk
09/07/2020, 21:57:09,7.989635,-2.2372892,3.7040894,0.34191114,1.2333223,0.96712005,9.086253821682376,1.6041534288508588,walk
09/07/2020, 21:57:09,7.908279,-2.3138595,3.507878,0.34191114,1.2333223,0.96712005,8.955446943573964,1.6041534288508588,walk
09/07/2020, 21:57:09,7.908279,-2.3138595,3.507878,0.18683001,1.2455333,0.9072856,8.955446943573964,1.5522325471601508,walk
09/07/2020, 21:57:09,7.850851,-2.4502504,3.3260236,0.18683001,1.2455333,0.9072856,8.871416017502543,1.5522325471601508,walk
09/07/2020, 21:57:09,7.850851,-2.4502504,3.3260236,0.081814446,1.2455333,0.8584412,8.871416017502543,1.5149152357754048,walk
09/07/2020, 21:57:09,7.798209,-2.5531418,3.2063823,0.081814446,1.2455333,0.8584412,8.809738196104401,1.5149152357754048,walk
09/07/2020, 21:57:09,7.798209,-2.5531418,3.2063823,0.009768889,1.2491968,0.8095967,8.809738196104401,1.4886352275334636,walk
09/07/2020, 21:57:09,7.685746,-2.5962126,3.1680973,0.009768889,1.2491968,0.8095967,8.709067388228025,1.4886352275334636,walk
09/07/2020, 21:57:09,7.685746,-2.5962126,3.1680973,-0.037854444,1.2382067,0.7570889,8.709067388228025,1.451816965816394,walk
09/07/2020, 21:57:10,10.346565,-2.2875385,4.7832522,1.2833878,1.6863545,1.21989,11.625994448001443,2.4452008839335537,walk
09/07/2020, 21:57:10,10.279566,-2.062613,4.2448673,1.2833878,1.6863545,1.21989,11.311177847687324,2.4452008839335537,walk
09/07/2020, 21:57:10,10.279566,-2.062613,4.2448673,1.2174479,1.7266512,1.3456645,11.311177847687324,2.5048586029242967,walk
09/07/2020, 21:57:10,10.289138,-1.9669002,3.8548372,1.2174479,1.7266512,1.3456645,11.162205144448018,2.5048586029242967,walk
09/07/2020, 21:57:10,10.289138,-1.9669002,3.8548372,1.2259957,1.7290934,1.4543434,11.162205144448018,2.570592206489282,walk
09/07/2020, 21:57:10,10.432707,-1.9501505,3.505485,1.2259957,1.7290934,1.4543434,11.177337978450456,2.570592206489282,walk
09/07/2020, 21:57:10,10.432707,-1.9501505,3.505485,1.2882723,1.7010078,1.5324945,11.177337978450456,2.6270920487238523,walk
09/07/2020, 21:57:10,10.66481,-2.012364,3.3882368,1.2882723,1.7010078,1.5324945,11.369605668087445,2.6270920487238523,walk
09/07/2020, 21:57:10,10.66481,-2.012364,3.3882368,1.3859612,1.6729223,1.5886656,11.369605668087445,2.6913594424270024,walk
09/07/2020, 21:57:10,10.908878,-2.1367905,3.4648073,1.3859612,1.6729223,1.5886656,11.643641589856907,2.6913594424270024,walk
09/07/2020, 21:57:10,10.908878,-2.1367905,3.4648073,1.5141778,1.6521634,1.625299,11.643641589856907,2.768388525324871,walk
09/07/2020, 21:57:10,11.272588,-2.3234308,3.6681972,1.5141778,1.6521634,1.625299,12.079951825787624,2.768388525324871,walk
09/07/2020, 21:57:10,11.272588,-2.3234308,3.6681972,1.6570479,1.6460578,1.6350678,12.079951825787624,2.85109818144161,walk
09/07/2020, 21:57:10,11.66501,-2.5818555,3.991228,1.6570479,1.6460578,1.6350678,12.596362515943907,2.85109818144161,walk
09/07/2020, 21:57:10,11.66501,-2.5818555,3.991228,1.7925912,1.6680379,1.6277412,12.596362515943907,2.940284873915824,walk
09/07/2020, 21:57:10,12.069397,-2.902494,4.338187,1.7925912,1.6680379,1.6277412,13.149702763590524,2.940284873915824,walk
09/07/2020, 21:57:10,12.069397,-2.902494,4.338187,1.8878379,1.7119979,1.6008767,13.149702763590524,3.009597108496513,walk
09/07/2020, 21:57:10,12.428321,-3.1441689,4.6636114,1.8878379,1.7119979,1.6008767,13.641782478720469,3.009597108496513,walk
09/07/2020, 21:57:10,12.428321,-3.1441689,4.6636114,1.9366823,1.7852645,1.56058,13.641782478720469,3.061587462390445,walk
09/07/2020, 21:57:10,12.634104,-3.3212378,4.941179,1.9366823,1.7852645,1.56058,13.966619013181333,3.061587462390445,walk
09/07/2020, 21:57:11,9.332008,-4.3764725,5.477171,0.11966889,-0.0048844446,0.74121445,11.672158880230501,0.750828455075692,walk
09/07/2020, 21:57:11,9.332008,-4.3764725,5.477171,0.4371578,-0.013432222,0.8205867,11.672158880230501,0.9298655154623381,walk
09/07/2020, 21:57:11,10.363315,-4.584648,5.8193445,0.4371578,-0.013432222,0.8205867,12.738997575856416,0.9298655154623381,walk
09/07/2020, 21:57:11,10.363315,-4.584648,5.8193445,0.7631945,0.02075889,0.88042116,12.738997575856416,1.1653489607620664,walk
09/07/2020, 21:57:11,11.468799,-4.761717,6.2404814,0.7631945,0.02075889,0.88042116,13.89787384051537,1.1653489607620664,walk
09/07/2020, 21:57:11,11.468799,-4.761717,6.2404814,1.0477134,0.11356334,0.9292656,13.89787384051537,1.4050389984216698,walk
09/07/2020, 21:57:11,12.452249,-4.7688956,6.7740808,1.0477134,0.11356334,0.9292656,14.956237163011663,1.4050389984216698,walk
09/07/2020, 21:57:11,12.452249,-4.7688956,6.7740808,1.24187,0.28574002,0.98055226,14.956237163011663,1.6079089822169161,walk
09/07/2020, 21:57:11,13.079168,-4.658826,7.173682,1.24187,0.28574002,0.98055226,15.627892338798656,1.6079089822169161,walk
09/07/2020, 21:57:11,13.079168,-4.658826,7.173682,1.29682,0.5043189,1.0477134,15.627892338798656,1.7417758581284672,walk
09/07/2020, 21:57:11,13.215559,-4.4051867,7.2693954,1.29682,0.5043189,1.0477134,15.713076657936936,1.7417758581284672,walk
09/07/2020, 21:57:11,13.215559,-4.4051867,7.2693954,1.2211112,0.7485411,1.1392968,15.713076657936936,1.830143011835909,walk
09/07/2020, 21:57:11,12.861422,-3.9673,7.1162543,1.2211112,0.7485411,1.1392968,15.224871417309414,1.830143011835909,walk
09/07/2020, 21:57:11,12.861422,-3.9673,7.1162543,1.0562612,0.97811,1.23088,15.224871417309414,1.894057157303796,walk
09/07/2020, 21:57:11,12.12204,-3.455236,6.541977,1.0562612,0.97811,1.23088,14.201407199696748,1.894057157303796,walk
09/07/2020, 21:57:11,12.12204,-3.455236,6.541977,0.8315767,1.1502867,1.339559,14.201407199696748,1.9516909218550471,walk
09/07/2020, 21:57:11,11.2343025,-3.0317063,5.8265233,0.8315767,1.1502867,1.339559,13.01342269467129,1.9516909218550471,walk
09/07/2020, 21:57:11,11.2343025,-3.0317063,5.8265233,0.6007867,1.2699556,1.4934189,13.01342269467129,2.050373639948312,walk
09/07/2020, 21:57:11,10.459028,-2.7684958,5.072784,0.6007867,1.2699556,1.4934189,11.94943420276396,2.050373639948312,walk
09/07/2020, 21:57:11,10.459028,-2.7684958,5.072784,0.40663,1.3383378,1.6741434,11.94943420276396,2.1815710420572705,walk
09/07/2020, 21:57:12,9.370294,-3.2949169,6.168697,1.9684312,-1.4396901,-0.97078335,11.69237789516683,2.624852274746525,walk
09/07/2020, 21:57:12,9.367901,-3.010171,6.128019,1.9684312,-1.4396901,-0.97078335,11.591863977496718,2.624852274746525,walk
09/07/2020, 21:57:12,9.367901,-3.010171,6.128019,1.8157923,-1.3163579,-0.85722005,11.591863977496718,2.400984375124898,walk
09/07/2020, 21:57:12,9.296116,-2.7397819,6.068198,1.8157923,-1.3163579,-0.85722005,11.434474383673935,2.400984375124898,walk
09/07/2020, 21:57:12,9.296116,-2.7397819,6.068198,1.6375101,-1.1808145,-0.74121445,11.434474383673935,2.150618739373977,walk
09/07/2020, 21:57:12,9.183653,-2.5148566,6.0370917,1.6375101,-1.1808145,-0.74121445,11.274327490516942,2.150618739373977,walk
09/07/2020, 21:57:12,9.183653,-2.5148566,6.0370917,1.4543434,-1.053819,-0.6203245,11.274327490516942,1.9001188575139487,walk
09/07/2020, 21:57:12,9.0233345,-2.3162522,6.053841,1.4543434,-1.053819,-0.6203245,11.110111709188226,1.9001188575139487,walk
09/07/2020, 21:57:12,9.0233345,-2.3162522,6.053841,1.2809457,-0.93415004,-0.50554,11.110111709188226,1.6640398982816742,walk
09/07/2020, 21:57:12,8.846265,-2.158326,6.06102,1.2809457,-0.93415004,-0.50554,10.9384978190986,1.6640398982816742,walk
09/07/2020, 21:57:12,8.846265,-2.158326,6.06102,1.1136534,-0.80593336,-0.38709223,10.9384978190986,1.4281431701314762,walk
09/07/2020, 21:57:12,8.695518,-2.0219352,6.113662,1.1136534,-0.80593336,-0.38709223,10.82021753616637,1.4281431701314762,walk
09/07/2020, 21:57:12,8.695518,-2.0219352,6.113662,0.95857227,-0.68260115,-0.27108666,10.82021753616637,1.2075980738677996,walk
09/07/2020, 21:57:12,8.547162,-1.8999012,6.151947,0.95857227,-0.68260115,-0.27108666,10.700937143643952,1.2075980738677996,walk
09/07/2020, 21:57:12,8.547162,-1.8999012,6.151947,0.8083756,-0.54950005,-0.15630223,10.700937143643952,0.9898746362088976,walk
09/07/2020, 21:57:12,8.4347,-1.8113668,6.2931237,0.8083756,-0.54950005,-0.15630223,10.678418429183484,0.9898746362088976,walk
09/07/2020, 21:57:12,8.4347,-1.8113668,6.2931237,0.6667267,-0.41029334,-0.04151778,10.678418429183484,0.7839571768350679,walk
09/07/2020, 21:57:12,8.350951,-1.7874385,6.381658,0.6667267,-0.41029334,-0.04151778,10.661091975297749,0.7839571768350679,walk
09/07/2020, 21:57:12,8.350951,-1.7874385,6.381658,0.54950005,-0.2613178,0.070824444,10.661091975297749,0.6125792944392592,walk
09/07/2020, 21:57:12,8.279166,-1.8185452,6.4965134,0.54950005,-0.2613178,0.070824444,10.679718440781999,0.6125792944392592,walk
09/07/2020, 21:57:13,16.68276,-4.759324,5.946164,0.7815111,-0.94391894,-4.4863625,18.339098197411886,4.650719375846808,walk
09/07/2020, 21:57:13,14.52204,-4.54397,5.797809,0.7815111,-0.94391894,-4.4863625,16.28348584933203,4.650719375846808,walk
09/07/2020, 21:57:13,14.52204,-4.54397,5.797809,0.5678167,-0.98055226,-4.269005,16.28348584933203,4.416820199124404,walk
09/07/2020, 21:57:13,12.358929,-4.304688,5.680561,0.5678167,-0.98055226,-4.269005,14.266822727099466,4.416820199124404,walk
09/07/2020, 21:57:13,12.358929,-4.304688,5.680561,0.42128336,-0.9597934,-3.9331992,14.266822727099466,4.0704715588699125,walk
09/07/2020, 21:57:13,10.310673,-4.0869412,5.3982077,0.42128336,-0.9597934,-3.9331992,12.335060091880614,4.0704715588699125,walk
09/07/2020, 21:57:13,10.310673,-4.0869412,5.3982077,0.32237336,-0.98055226,-3.5119157,12.335060091880614,3.660458861972543,walk
09/07/2020, 21:57:13,8.602198,-3.7280176,4.9770713,0.32237336,-0.98055226,-3.5119157,10.61447869326718,3.660458861972543,walk
09/07/2020, 21:57:13,8.602198,-3.7280176,4.9770713,0.22590557,-1.1124322,-3.1138334,10.61447869326718,3.314286866123095,walk
09/07/2020, 21:57:13,7.420143,-3.2015967,4.503292,0.22590557,-1.1124322,-3.1138334,9.251399098999734,3.314286866123095,walk
09/07/2020, 21:57:13,7.420143,-3.2015967,4.503292,0.13920668,-1.2614079,-2.7743645,9.251399098999734,3.050840292279579,walk
09/07/2020, 21:57:13,6.8745794,-2.7445676,4.2017965,0.13920668,-1.2614079,-2.7743645,8.51161488309865,3.050840292279579,walk
09/07/2020, 21:57:13,6.8745794,-2.7445676,4.2017965,0.05617111,-1.339559,-2.4348958,8.51161488309865,2.779620609115752,walk
09/07/2020, 21:57:13,6.8721867,-2.4191437,4.0271206,0.05617111,-1.339559,-2.4348958,8.324476312496104,2.779620609115752,walk
09/07/2020, 21:57:13,6.8721867,-2.4191437,4.0271206,-0.012211111,-1.3700867,-2.0722256,8.324476312496104,2.4842313519705277,walk
09/07/2020, 21:57:13,7.34118,-2.1942184,3.940979,-0.012211111,-1.3700867,-2.0722256,8.616195879859633,2.4842313519705277,walk
09/07/2020, 21:57:13,7.34118,-2.1942184,3.940979,-0.07204556,-1.3920667,-1.7339778,8.616195879859633,2.224796462518031,walk
09/07/2020, 21:57:13,8.10449,-1.9214365,3.8644085,-0.07204556,-1.3920667,-1.7339778,9.181956986996221,2.224796462518031,walk
09/07/2020, 21:57:13,8.10449,-1.9214365,3.8644085,-0.16607112,-1.3969512,-1.4433534,9.181956986996221,2.015520118067793,walk
09/07/2020, 21:57:13,9.030513,-1.564906,3.7567315,-0.16607112,-1.3969512,-1.4433534,9.905156436867513,2.015520118067793,walk
09/07/2020, 21:57:14,8.463413,-1.3854443,2.1367905,-1.174709,0.54339445,-0.36999667,8.838251705477546,1.3461486560964369,walk
09/07/2020, 21:57:14,8.463413,-1.3854443,2.1367905,-1.2382067,0.5287411,-0.5287411,8.838251705477546,1.4464751252814776,walk
09/07/2020, 21:57:14,8.437093,-1.5218352,2.1415763,-1.2382067,0.5287411,-0.5287411,8.836677316893715,1.4464751252814776,walk
09/07/2020, 21:57:14,8.437093,-1.5218352,2.1415763,-1.27484,0.51775116,-0.68504333,8.836677316893715,1.5370646213928214,walk
09/07/2020, 21:57:14,8.451449,-1.6845472,2.1559331,-1.27484,0.51775116,-0.68504333,8.883284516224677,1.5370646213928214,walk
09/07/2020, 21:57:14,8.451449,-1.6845472,2.1559331,-1.2821667,0.5006556,-0.8425667,8.883284516224677,1.6138544574555358,walk
09/07/2020, 21:57:14,8.496913,-1.8640088,2.1774685,-1.2821667,0.5006556,-0.8425667,8.96735344285176,1.6138544574555358,walk
09/07/2020, 21:57:14,8.496913,-1.8640088,2.1774685,-1.2650712,0.48356003,-0.9964267,8.96735344285176,1.68139867187245,walk
09/07/2020, 21:57:14,8.559127,-2.0458634,2.2205393,-1.2650712,0.48356003,-0.9964267,9.076067674646099,1.68139867187245,walk
09/07/2020, 21:57:14,8.559127,-2.0458634,2.2205393,-1.2247745,0.46646446,-1.1454023,9.076067674646099,1.7405769376418698,walk
09/07/2020, 21:57:14,8.671589,-2.1870399,2.2660031,-1.2247745,0.46646446,-1.1454023,9.225744821925725,1.7405769376418698,walk
09/07/2020, 21:57:14,8.671589,-2.1870399,2.2660031,-1.1795933,0.45181113,-1.2992623,9.225744821925725,1.8120861455670638,walk
09/07/2020, 21:57:14,8.812766,-2.3449662,2.306681,-1.1795933,0.45181113,-1.2992623,9.406619430200404,1.8120861455670638,walk
09/07/2020, 21:57:14,8.812766,-2.3449662,2.306681,-1.1258645,0.44448447,-1.4445745,9.406619430200404,1.884657195910159,walk
09/07/2020, 21:57:14,8.925228,-2.416751,2.2827528,-1.1258645,0.44448447,-1.4445745,9.524250209508246,1.884657195910159,walk
09/07/2020, 21:57:14,8.925228,-2.416751,2.2827528,-1.0672512,0.44326335,-1.5935501,9.524250209508246,1.9684789588243519,walk
09/07/2020, 21:57:14,9.008977,-2.4741786,2.2612174,-1.0672512,0.44326335,-1.5935501,9.612300914954778,1.9684789588243519,walk
09/07/2020, 21:57:14,9.008977,-2.4741786,2.2612174,-1.0086378,0.44082114,-1.7315357,9.612300914954778,2.0518014642958646,walk
09/07/2020, 21:57:14,9.08794,-2.524428,2.254039,-1.0086378,0.44082114,-1.7315357,9.69763298860005,2.0518014642958646,walk
09/07/2020, 21:57:14,9.08794,-2.524428,2.254039,-0.95857227,0.43349445,-1.8634156,9.69763298860005,2.1398822222357383,walk
09/07/2020, 21:57:15,11.08834,-2.6679974,2.2205393,-0.8584412,0.68626446,2.1051955,11.61896228073605,2.3748112217713606,walk
09/07/2020, 21:57:15,10.892129,-2.7637103,2.2875385,-0.8584412,0.68626446,2.1051955,11.467754787397158,2.3748112217713606,walk
09/07/2020, 21:57:15,10.892129,-2.7637103,2.2875385,-0.82791334,0.6569578,2.0380344,11.467754787397158,2.2957827505404147,walk
09/07/2020, 21:57:15,10.703095,-2.8713872,2.3569303,-0.82791334,0.6569578,2.0380344,11.329441153301914,2.2957827505404147,walk
09/07/2020, 21:57:15,10.703095,-2.8713872,2.3569303,-0.7680789,0.6239878,1.9757578,11.329441153301914,2.2097341538977004,walk
09/07/2020, 21:57:15,10.437492,-2.9383862,2.3784657,-0.7680789,0.6239878,1.9757578,11.101011634877228,2.2097341538977004,walk
09/07/2020, 21:57:15,10.437492,-2.9383862,2.3784657,-0.6789378,0.58124894,1.9049335,11.101011634877228,2.104181150579122,walk
09/07/2020, 21:57:15,10.157532,-2.9718857,2.3545375,-0.6789378,0.58124894,1.9049335,10.842112446099188,2.104181150579122,walk
09/07/2020, 21:57:15,10.157532,-2.9718857,2.3545375,-0.56659555,0.5287411,1.8292245,10.842112446099188,1.9866202070962697,walk
09/07/2020, 21:57:15,9.882358,-2.993421,2.3258235,-0.56659555,0.5287411,1.8292245,10.584470539195978,1.9866202070962697,walk
09/07/2020, 21:57:15,9.882358,-2.993421,2.3258235,-0.4359367,0.4823389,1.7571789,10.584470539195978,1.8735979591625667,walk
09/07/2020, 21:57:15,9.619147,-2.9575288,2.2612174,-0.4359367,0.4823389,1.7571789,10.314459535068428,1.8735979591625667,walk
09/07/2020, 21:57:15,9.619147,-2.9575288,2.2612174,-0.31382558,0.43349445,1.680249,10.314459535068428,1.7634172933919727,walk
09/07/2020, 21:57:15,9.396614,-2.8953154,2.2325034,-0.31382558,0.43349445,1.680249,10.082820978232531,1.7634172933919727,walk
09/07/2020, 21:57:15,9.396614,-2.8953154,2.2325034,-0.21369445,0.3834289,1.5947711,10.082820978232531,1.6540792158732711,walk
09/07/2020, 21:57:15,9.21476,-2.7828526,2.2061825,-0.21369445,0.3834289,1.5947711,9.875389038784427,1.6540792158732711,walk
09/07/2020, 21:57:15,9.21476,-2.7828526,2.2061825,-0.15386,0.34313223,1.4983034,9.875389038784427,1.5447736872066267,walk
09/07/2020, 21:57:15,9.080762,-2.656033,2.1774685,-0.15386,0.34313223,1.4983034,9.708558986622208,1.5447736872066267,walk
09/07/2020, 21:57:15,9.080762,-2.656033,2.1774685,-0.10379445,0.30894113,1.4030567,9.708558986622208,1.4404117899058404,walk
09/07/2020, 21:57:15,8.9826565,-2.5339992,2.1655045,-0.10379445,0.30894113,1.4030567,9.581162713041133,1.4404117899058404,walk
09/07/2020, 21:57:16,9.174082,-2.2468605,3.6131623,0.9842156,0.036633335,0.8401245,10.11271974777184,1.294539121644586,walk
09/07/2020, 21:57:16,9.174082,-2.2468605,3.6131623,0.9634567,0.08303556,0.8584412,10.11271974777184,1.293083503624381,walk
09/07/2020, 21:57:16,9.226724,-2.2779672,3.5006995,0.9634567,0.08303556,0.8584412,10.128003824104285,1.293083503624381,walk
09/07/2020, 21:57:16,9.226724,-2.2779672,3.5006995,0.9500245,0.11478445,0.88042116,10.128003824104285,1.3003320402539094,walk
09/07/2020, 21:57:16,9.212367,-2.347359,3.4025939,0.9500245,0.11478445,0.88042116,10.097298932182452,1.3003320402539094,walk
09/07/2020, 21:57:16,9.212367,-2.347359,3.4025939,0.94391894,0.14653334,0.90240115,10.097298932182452,1.3140710885347668,walk
09/07/2020, 21:57:16,9.193225,-2.4215364,3.2973096,0.94391894,0.14653334,0.90240115,10.062379131666981,1.3140710885347668,walk
09/07/2020, 21:57:16,9.193225,-2.4215364,3.2973096,0.9512456,0.16973445,0.9292656,10.062379131666981,1.3406015721064504,walk
09/07/2020, 21:57:16,9.176475,-2.507678,3.1800613,0.9512456,0.16973445,0.9292656,10.030400031726057,1.3406015721064504,walk
09/07/2020, 21:57:16,9.176475,-2.507678,3.1800613,0.95613,0.16607112,0.9597934,10.030400031726057,1.3649057092523298,walk
09/07/2020, 21:57:16,9.205189,-2.57707,3.050849,0.95613,0.16607112,0.9597934,10.034165092382002,1.3649057092523298,walk
09/07/2020, 21:57:16,9.205189,-2.57707,3.050849,0.9634567,0.14653334,1.00009,10.034165092382002,1.3963884946634255,walk
09/07/2020, 21:57:16,9.312865,-2.7206392,2.928815,0.9634567,0.14653334,1.00009,10.134559376781588,1.3963884946634255,walk
09/07/2020, 21:57:16,9.312865,-2.7206392,2.928815,0.9610145,0.15019667,1.0489345,10.134559376781588,1.4305143927055488,walk
09/07/2020, 21:57:16,9.468399,-2.806781,2.8259234,0.9610145,0.15019667,1.0489345,10.272022377150508,1.4305143927055488,walk
09/07/2020, 21:57:16,9.468399,-2.806781,2.8259234,0.94391894,0.16851334,1.0867889,10.272022377150508,1.4493066672709052,walk
09/07/2020, 21:57:16,9.609575,-2.8761728,2.7278178,0.94391894,0.16851334,1.0867889,10.395061162587933,1.4493066672709052,walk
09/07/2020, 21:57:16,9.609575,-2.8761728,2.7278178,0.9170545,0.20148334,1.130749,10.395061162587933,1.4697543049450947,walk
09/07/2020, 21:57:16,9.664611,-2.8905299,2.6608188,0.9170545,0.20148334,1.130749,10.432632593482476,1.4697543049450947,walk
09/07/2020, 21:57:16,9.664611,-2.8905299,2.6608188,0.8914111,0.23567446,1.1698245,10.432632593482476,1.4895118530647335,walk
09/07/2020, 21:57:17,10.145568,-3.4360933,3.5437703,-0.40663,0.0,-0.5287411,11.282623511385342,0.6670195933406065,walk
09/07/2020, 21:57:17,10.145568,-3.4360933,3.5437703,-0.38709223,0.036633335,-0.46402225,11.282623511385342,0.6053916462990411,walk
09/07/2020, 21:57:17,10.143175,-3.6610186,3.7304106,-0.38709223,0.036633335,-0.46402225,11.410653878994141,0.6053916462990411,walk
09/07/2020, 21:57:17,10.143175,-3.6610186,3.7304106,-0.36755446,0.058613338,-0.40052447,11.410653878994141,0.5467647120231748,walk
09/07/2020, 21:57:17,10.076176,-3.7998023,3.9074793,-0.36755446,0.058613338,-0.40052447,11.455837308811265,0.5467647120231748,walk
09/07/2020, 21:57:17,10.076176,-3.7998023,3.9074793,-0.35656446,0.07937223,-0.34435335,11.455837308811265,0.5020133408914101,walk
09/07/2020, 21:57:17,10.023534,-3.842873,4.046263,-0.35656446,0.07937223,-0.34435335,11.472190284646553,0.5020133408914101,walk
09/07/2020, 21:57:17,10.023534,-3.842873,4.046263,-0.3809867,0.12455334,-0.28818223,11.472190284646553,0.4936733629466731,walk
09/07/2020, 21:57:17,9.911072,-3.8500516,4.1898327,-0.3809867,0.12455334,-0.28818223,11.428339309183194,0.4936733629466731,walk
09/07/2020, 21:57:17,9.911072,-3.8500516,4.1898327,-0.44326335,0.19171445,-0.23079,11.428339309183194,0.5352577470479948,walk
09/07/2020, 21:57:17,9.755538,-3.871587,4.2927237,-0.44326335,0.19171445,-0.23079,11.3396289175775,0.5352577470479948,walk
09/07/2020, 21:57:17,9.755538,-3.871587,4.2927237,-0.5092034,0.25765446,-0.16118668,11.3396289175775,0.5930050946095629,walk
09/07/2020, 21:57:17,9.473185,-3.888337,4.290331,-0.5092034,0.25765446,-0.16118668,11.102582093128222,0.5930050946095629,walk
09/07/2020, 21:57:17,9.473185,-3.888337,4.290331,-0.56171113,0.30405667,-0.07937223,11.102582093128222,0.6436379479215101,walk
09/07/2020, 21:57:17,9.111869,-3.9314077,4.3118663,-0.56171113,0.30405667,-0.07937223,10.820088325100464,0.6436379479215101,walk
09/07/2020, 21:57:17,9.111869,-3.9314077,4.3118663,-0.5800278,0.3284789,0.009768889,10.820088325100464,0.6666529015007829,walk
09/07/2020, 21:57:17,8.705089,-3.9314077,4.2329035,-0.5800278,0.3284789,0.009768889,10.447583744728847,0.6666529015007829,walk
09/07/2020, 21:57:17,8.705089,-3.9314077,4.2329035,-0.5739222,0.3284789,0.11966889,10.447583744728847,0.6720161787910651,walk
09/07/2020, 21:57:17,8.322237,-3.9242291,4.1754756,-0.5739222,0.3284789,0.11966889,10.104147652187478,0.6720161787910651,walk
09/07/2020, 21:57:17,8.322237,-3.9242291,4.1754756,-0.53851,0.30894113,0.23933779,10.104147652187478,0.6653722582835395,walk
09/07/2020, 21:57:18,9.236296,-3.4025939,1.3686945,0.12089001,-0.59834445,-0.56293225,9.937813035522286,0.8303753308750212,walk
09/07/2020, 21:57:18,9.123833,-3.3619158,1.402194,0.12089001,-0.59834445,-0.56293225,9.824100431626434,0.8303753308750212,walk
09/07/2020, 21:57:18,9.123833,-3.3619158,1.402194,0.25887558,-0.6252089,-0.4908867,9.824100431626434,0.8359859403100435,walk
09/07/2020, 21:57:18,9.032906,-3.3116665,1.524228,0.25887558,-0.6252089,-0.4908867,9.740831024580519,0.8359859403100435,walk
09/07/2020, 21:57:18,9.032906,-3.3116665,1.524228,0.34069002,-0.64108336,-0.41395667,9.740831024580519,0.8357138791913459,walk
09/07/2020, 21:57:18,9.042477,-3.2039895,1.605584,0.34069002,-0.64108336,-0.41395667,9.726758599591342,0.8357138791913459,walk
09/07/2020, 21:57:18,9.042477,-3.2039895,1.605584,0.36267,-0.64963114,-0.34191114,9.726758599591342,0.8188121757771177,walk
09/07/2020, 21:57:18,9.284152,-2.9862428,1.579263,0.36267,-0.64963114,-0.34191114,9.879635436405524,0.8188121757771177,walk
09/07/2020, 21:57:18,9.284152,-2.9862428,1.579263,0.30649891,-0.6227667,-0.30161446,9.879635436405524,0.7568032763290483,walk
09/07/2020, 21:57:18,9.674182,-2.751746,1.5768701,0.30649891,-0.6227667,-0.30161446,10.180786862922632,0.7568032763290483,walk
09/07/2020, 21:57:18,9.674182,-2.751746,1.5768701,0.18194556,-0.5226356,-0.28818223,10.180786862922632,0.6239400077030638,walk
09/07/2020, 21:57:18,10.109675,-2.4646072,1.5146568,0.18194556,-0.5226356,-0.28818223,10.515417768795151,0.6239400077030638,walk
09/07/2020, 21:57:18,10.109675,-2.4646072,1.5146568,-0.0048844446,-0.3724389,-0.30405667,10.515417768795151,0.48081707422076503,walk
09/07/2020, 21:57:18,10.377672,-2.2157538,1.5050855,-0.0048844446,-0.3724389,-0.30405667,10.717785561258864,0.48081707422076503,walk
09/07/2020, 21:57:18,10.377672,-2.2157538,1.5050855,-0.23323223,-0.20636779,-0.33458444,10.717785561258864,0.4570904601944095,walk
09/07/2020, 21:57:18,10.537991,-2.0721843,1.5266209,-0.23323223,-0.20636779,-0.33458444,10.847753887032473,0.4570904601944095,walk
09/07/2020, 21:57:18,10.537991,-2.0721843,1.5266209,-0.48356003,-0.058613338,-0.3724389,10.847753887032473,0.6131692765466225,walk
09/07/2020, 21:57:18,10.549955,-2.0554347,1.579263,-0.48356003,-0.058613338,-0.3724389,10.86372135245189,0.6131692765466225,walk
09/07/2020, 21:57:18,10.549955,-2.0554347,1.579263,-0.7216767,0.07937223,-0.40174556,10.86372135245189,0.8297690723702907,walk
09/07/2020, 21:57:18,10.425529,-2.1391835,1.6175481,-0.7216767,0.07937223,-0.40174556,10.764952999085525,0.8297690723702907,walk
09/07/2020, 21:57:19,6.2548385,-5.386244,2.2205393,-0.1965989,0.57636446,0.28574002,8.547831400817847,0.6726770950614962,walk
09/07/2020, 21:57:19,6.2380886,-5.3910294,2.2181466,-0.1965989,0.57636446,0.28574002,8.537981095641623,0.6726770950614962,walk
09/07/2020, 21:57:19,6.2380886,-5.3910294,2.2181466,-0.1856089,0.52752,0.2845189,8.537981095641623,0.627438455814829,walk
09/07/2020, 21:57:19,6.2117677,-5.3742795,2.1966112,-0.1856089,0.52752,0.2845189,8.502590098199176,0.627438455814829,walk
09/07/2020, 21:57:19,6.2117677,-5.3742795,2.1966112,-0.17584,0.47867557,0.29062447,8.502590098199176,0.5869519528420711,walk
09/07/2020, 21:57:19,6.2141604,-5.3886366,2.1966112,-0.17584,0.47867557,0.29062447,8.513418520591193,0.5869519528420711,walk
09/07/2020, 21:57:19,6.2141604,-5.3886366,2.1966112,-0.16851334,0.43349445,0.29795113,8.513418520591193,0.5523486768307542,walk
09/07/2020, 21:57:19,6.1639113,-5.4149575,2.2325034,-0.16851334,0.43349445,0.29795113,8.502919470013834,0.5523486768307542,walk
09/07/2020, 21:57:19,6.1639113,-5.4149575,2.2325034,-0.14287001,0.3834289,0.3162678,8.502919470013834,0.5171603966824893,walk
09/07/2020, 21:57:19,6.1447687,-5.4412785,2.2995026,-0.14287001,0.3834289,0.3162678,8.52369673744908,0.5171603966824893,walk
09/07/2020, 21:57:19,6.1447687,-5.4412785,2.2995026,-0.098910004,0.3394689,0.3309211,8.52369673744908,0.48428411479351163,walk
09/07/2020, 21:57:19,6.113662,-5.4987063,2.4430718,-0.098910004,0.3394689,0.3309211,8.5779503168327,0.48428411479351163,walk
09/07/2020, 21:57:19,6.113662,-5.4987063,2.4430718,-0.03297,0.30405667,0.34801668,8.5779503168327,0.46330669228588733,walk
09/07/2020, 21:57:19,6.1495543,-5.6303115,2.617748,-0.03297,0.30405667,0.34801668,8.73899477499692,0.46330669228588733,walk
09/07/2020, 21:57:19,6.1495543,-5.6303115,2.617748,0.054950003,0.25399113,0.37732336,8.73899477499692,0.4581527177940104,walk
09/07/2020, 21:57:19,6.235696,-5.855237,2.7828526,0.054950003,0.25399113,0.37732336,8.9951082192101,0.4581527177940104,walk
09/07/2020, 21:57:19,6.235696,-5.855237,2.7828526,0.15874445,0.19049335,0.40785113,8.9951082192101,0.47731547266048374,walk
09/07/2020, 21:57:19,6.4797635,-6.0897336,2.9479575,0.15874445,0.19049335,0.40785113,9.368171857866443,0.47731547266048374,walk
09/07/2020, 21:57:19,6.4797635,-6.0897336,2.9479575,0.25643334,0.1306589,0.43960002,9.368171857866443,0.5254312340712384,walk
09/07/2020, 21:57:19,6.867401,-6.283552,3.1345978,0.25643334,0.1306589,0.43960002,9.821910673961149,0.5254312340712384,walk
09/07/2020, 21:57:20,9.21476,-4.7018967,2.9910283,-0.24055889,0.070824444,-0.6972545,10.768745575931584,0.7409780638148272,walk
09/07/2020, 21:57:20,9.21476,-4.7018967,2.9910283,-0.16851334,0.11844778,-0.6386411,10.768745575931584,0.6710358427787568,walk
09/07/2020, 21:57:20,9.157332,-4.7114677,3.0580273,-0.16851334,0.11844778,-0.6386411,10.742727592090231,0.6710358427787568,walk
09/07/2020, 21:57:20,9.157332,-4.7114677,3.0580273,-0.10745778,0.17095557,-0.56659555,10.742727592090231,0.6015010415390448,walk
09/07/2020, 21:57:20,9.064013,-4.7042894,3.101098,-0.10745778,0.17095557,-0.56659555,10.672556927954364,0.6015010415390448,walk
09/07/2020, 21:57:20,9.064013,-4.7042894,3.101098,-0.05250778,0.2075889,-0.49699223,10.672556927954364,0.5411575499911708,walk
09/07/2020, 21:57:20,8.956335,-4.7042894,3.1202407,-0.05250778,0.2075889,-0.49699223,10.586887120382771,0.5411575499911708,walk
09/07/2020, 21:57:20,8.956335,-4.7042894,3.1202407,-0.0012211112,0.24788557,-0.42006224,10.586887120382771,0.4877509976152055,walk
09/07/2020, 21:57:20,8.882157,-4.6875396,3.1130621,-0.0012211112,0.24788557,-0.42006224,10.514604222602358,0.4877509976152055,walk
09/07/2020, 21:57:20,8.882157,-4.6875396,3.1130621,0.048844445,0.2820767,-0.33580557,10.514604222602358,0.44126909540048104,walk
09/07/2020, 21:57:20,8.913264,-4.6875396,3.1633115,0.048844445,0.2820767,-0.33580557,10.555844203479278,0.44126909540048104,walk
09/07/2020, 21:57:20,8.913264,-4.6875396,3.1633115,0.081814446,0.31260446,-0.24544334,10.555844203479278,0.40578021797055336,walk
09/07/2020, 21:57:20,9.01137,-4.6037908,3.199204,0.081814446,0.31260446,-0.24544334,10.612943953267953,0.40578021797055336,walk
09/07/2020, 21:57:20,9.01137,-4.6037908,3.199204,0.091583334,0.35168,-0.1526389,10.612943953267953,0.39416363333565446,walk
09/07/2020, 21:57:20,9.190832,-4.5559344,3.2470603,0.091583334,0.35168,-0.1526389,10.759708848185886,0.39416363333565446,walk
09/07/2020, 21:57:20,9.190832,-4.5559344,3.2470603,0.06349778,0.41762,-0.07204556,10.759708848185886,0.4285195417858306,walk
09/07/2020, 21:57:20,9.4229355,-4.395615,3.2614172,0.06349778,0.41762,-0.07204556,10.897246767636874,0.4285195417858306,walk
09/07/2020, 21:57:20,9.4229355,-4.395615,3.2614172,0.0012211112,0.5030978,0.007326667,10.897246767636874,0.5031526010645481,walk
09/07/2020, 21:57:20,9.580862,-4.28076,3.306881,0.0012211112,0.5030978,0.007326667,11.002421720574048,0.5031526010645481,walk
09/07/2020, 21:57:20,9.580862,-4.28076,3.306881,-0.08303556,0.5971234,0.09768889,11.002421720574048,0.6107326417348288,walk
09/07/2020, 21:57:21,7.645068,-1.7252251,3.802195,1.1466234,-0.49821335,0.3174889,8.710921666768002,1.2898685629401254,walk
09/07/2020, 21:57:21,7.678568,-1.6103697,3.5030923,1.1466234,-0.49821335,0.3174889,8.592167996732949,1.2898685629401254,walk
09/07/2020, 21:57:21,7.678568,-1.6103697,3.5030923,1.0965579,-0.46402225,0.33336335,8.592167996732949,1.2364816634995164,walk
09/07/2020, 21:57:21,7.786245,-1.4931214,3.3403804,1.0965579,-0.46402225,0.33336335,8.60309026189491,1.2364816634995164,walk
09/07/2020, 21:57:21,7.786245,-1.4931214,3.3403804,1.0355023,-0.42250445,0.33336335,8.60309026189491,1.1670073623466932,walk
09/07/2020, 21:57:21,7.9968133,-1.457229,3.2733815,1.0355023,-0.42250445,0.33336335,8.762851452682249,1.1670073623466932,walk
09/07/2020, 21:57:21,7.9968133,-1.457229,3.2733815,0.97688895,-0.37610224,0.31993112,8.762851452682249,1.0945870660377799,walk
09/07/2020, 21:57:21,8.281559,-1.5122639,3.318845,0.97688895,-0.37610224,0.31993112,9.049082481416068,1.0945870660377799,walk
09/07/2020, 21:57:21,8.281559,-1.5122639,3.318845,0.92316,-0.31871,0.29184556,9.049082481416068,1.0193008931298362,walk
09/07/2020, 21:57:21,8.705089,-1.6582261,3.4097722,0.92316,-0.31871,0.29184556,9.49498961956446,1.0193008931298362,walk
09/07/2020, 21:57:21,8.705089,-1.6582261,3.4097722,0.8816423,-0.25521225,0.24544334,9.49498961956446,0.9500888588998958,walk
09/07/2020, 21:57:21,9.178867,-1.8113668,3.5605202,0.8816423,-0.25521225,0.24544334,10.010492456140142,0.9500888588998958,walk
09/07/2020, 21:57:21,9.178867,-1.8113668,3.5605202,0.8401245,-0.18194556,0.18683001,10.010492456140142,0.8796697089939681,walk
09/07/2020, 21:57:21,9.724431,-1.9860427,3.6323047,0.8401245,-0.18194556,0.18683001,10.568943276042685,0.8796697089939681,walk
09/07/2020, 21:57:21,9.724431,-1.9860427,3.6323047,0.7851745,-0.10013112,0.12943779,10.568943276042685,0.8020469812094952,walk
09/07/2020, 21:57:21,10.205389,-2.1415763,3.67059,0.7851745,-0.10013112,0.12943779,11.054842581548733,0.8020469812094952,walk
09/07/2020, 21:57:21,10.205389,-2.1415763,3.67059,0.70458114,0.0012211112,0.081814446,11.054842581548733,0.7093163465843476,walk
09/07/2020, 21:57:21,10.612168,-2.239682,3.6251264,0.70458114,0.0012211112,0.081814446,11.435726155398726,0.7093163465843476,walk
09/07/2020, 21:57:21,10.612168,-2.239682,3.6251264,0.5922389,0.11600556,0.034191113,11.435726155398726,0.6044611161675362,walk
09/07/2020, 21:57:21,10.904093,-2.3282163,3.5437703,0.5922389,0.11600556,0.034191113,11.699493099442742,0.6044611161675362,walk
09/07/2020, 21:57:22,9.62154,-1.1389836,2.0147567,-0.2613178,0.106236674,-0.007326667,9.895987138529732,0.28218238440670734,walk
09/07/2020, 21:57:22,9.611969,-1.0887343,1.9597218,-0.2613178,0.106236674,-0.007326667,9.869944265338374,0.28218238440670734,walk
09/07/2020, 21:57:22,9.611969,-1.0887343,1.9597218,-0.2869611,0.11112112,0.0048844446,9.869944265338374,0.30776360805158903,walk
09/07/2020, 21:57:22,9.6071825,-1.0624132,1.9501505,-0.2869611,0.11112112,0.0048844446,9.860515423381054,0.30776360805158903,walk
09/07/2020, 21:57:22,9.6071825,-1.0624132,1.9501505,-0.30649891,0.11966889,0.009768889,9.860515423381054,0.32917724730467113,walk
09/07/2020, 21:57:22,9.609575,-1.0241281,1.9549361,-0.30649891,0.11966889,0.009768889,9.8597439399576,0.32917724730467113,walk
09/07/2020, 21:57:22,9.609575,-1.0241281,1.9549361,-0.32725778,0.11478445,0.015874445,9.8597439399576,0.3471672851121153,walk
09/07/2020, 21:57:22,9.597611,-1.0313065,1.9812572,-0.32725778,0.11478445,0.015874445,9.854091450294039,0.3471672851121153,walk
09/07/2020, 21:57:22,9.597611,-1.0313065,1.9812572,-0.34069002,0.106236674,0.018316668,9.854091450294039,0.3573393606917328,walk
09/07/2020, 21:57:22,9.65504,-1.0360922,2.009971,-0.34069002,0.106236674,0.018316668,9.916312988965894,0.3573393606917328,walk
09/07/2020, 21:57:22,9.65504,-1.0360922,2.009971,-0.35412225,0.10379445,0.017095556,9.916312988965894,0.3694159097132857,walk
09/07/2020, 21:57:22,9.667004,-1.0480564,2.0315065,-0.35412225,0.10379445,0.017095556,9.933599557611547,0.3694159097132857,walk
09/07/2020, 21:57:22,9.667004,-1.0480564,2.0315065,-0.35412225,0.10013112,0.014653334,9.933599557611547,0.36829815314235126,walk
09/07/2020, 21:57:22,9.693324,-1.0671989,2.0673988,-0.35412225,0.10013112,0.014653334,9.96862994957563,0.36829815314235126,walk
09/07/2020, 21:57:22,9.693324,-1.0671989,2.0673988,-0.3394689,0.09280445,0.013432222,9.96862994957563,0.35218208580729476,walk
09/07/2020, 21:57:22,9.676575,-1.0719845,2.1272194,-0.3394689,0.09280445,0.013432222,9.965455906881088,0.35218208580729476,walk
09/07/2020, 21:57:22,9.676575,-1.0719845,2.1272194,-0.31260446,0.09280445,0.01099,9.965455906881088,0.32627441223597714,walk
09/07/2020, 21:57:22,9.623933,-1.0959128,2.1559331,-0.31260446,0.09280445,0.01099,9.923162594985339,0.32627441223597714,walk
09/07/2020, 21:57:22,9.623933,-1.0959128,2.1559331,-0.28329778,0.081814446,0.008547778,9.923162594985339,0.2949988111284133,walk
09/07/2020, 21:57:22,9.58804,-1.1246266,2.199004,-0.28329778,0.081814446,0.008547778,9.90105656817041,0.2949988111284133,walk
09/07/2020, 21:57:23,9.726824,-2.7421749,3.7088752,-0.3370267,0.8584412,1.3041468,10.765053620261497,1.597281135238934,walk
09/07/2020, 21:57:23,9.726824,-2.7421749,3.7088752,-0.44692668,0.90118,1.3627601,10.765053620261497,1.6938075170552447,walk
09/07/2020, 21:57:23,9.963714,-2.8091738,3.6610186,-0.44692668,0.90118,1.3627601,10.980441905744838,1.6938075170552447,walk
09/07/2020, 21:57:23,9.963714,-2.8091738,3.6610186,-0.54950005,0.9463611,1.4189311,10.980441905744838,1.7919026823300463,walk
09/07/2020, 21:57:23,10.241281,-2.8594232,3.5892339,-0.54950005,0.9463611,1.4189311,11.2224207746635,1.7919026823300463,walk
09/07/2020, 21:57:23,10.241281,-2.8594232,3.5892339,-0.6435256,1.0013112,1.4738811,11.2224207746635,1.8944853801292825,walk
09/07/2020, 21:57:23,10.516456,-2.8929226,3.546163,-0.6435256,1.0013112,1.4738811,11.46909383737434,1.8944853801292825,walk
09/07/2020, 21:57:23,10.516456,-2.8929226,3.546163,-0.7302245,1.0623667,1.5276101,11.46909383737434,1.9988605175445764,walk
09/07/2020, 21:57:23,10.748559,-2.9168508,3.4719856,-0.7302245,1.0623667,1.5276101,11.665942868609166,1.9988605175445764,walk
09/07/2020, 21:57:23,10.748559,-2.9168508,3.4719856,-0.81448114,1.12098,1.5776756,11.665942868609166,2.09977045885133,walk
09/07/2020, 21:57:23,10.8969145,-2.87378,3.3882368,-0.81448114,1.12098,1.5776756,11.76781649831054,2.09977045885133,walk
09/07/2020, 21:57:23,10.8969145,-2.87378,3.3882368,-0.89385337,1.1454023,1.6338468,11.76781649831054,2.186406991401583,walk
09/07/2020, 21:57:23,11.021341,-2.861816,3.2733815,-0.89385337,1.1454023,1.6338468,11.847994819780135,2.186406991401583,walk
09/07/2020, 21:57:23,11.021341,-2.861816,3.2733815,-0.96712005,1.1637189,1.6887968,11.847994819780135,2.2675090858489133,walk
09/07/2020, 21:57:23,11.129018,-2.8953154,3.1537402,-0.96712005,1.1637189,1.6887968,11.924091840423799,2.2675090858489133,walk
09/07/2020, 21:57:23,11.129018,-2.8953154,3.1537402,-1.0355023,1.174709,1.7449678,11.924091840423799,2.3445935418909047,walk
09/07/2020, 21:57:23,11.239088,-2.8713872,3.0149565,-1.0355023,1.174709,1.7449678,11.985488209866473,2.3445935418909047,walk
09/07/2020, 21:57:23,11.239088,-2.8713872,3.0149565,-1.1002212,1.1722667,1.8072445,11.985488209866473,2.4188486281754744,walk
