DATE,TIME,ax,ay,az,gx,gy,gz,ma,mg,label
05/08/2020, 16:46:01,-1.9734962,-0.1820215,10.145303,-0.20958276,-0.69800824,-0.5678554,10.33706860856724,0.923904871299182,walk
05/08/2020, 16:46:01,-1.9232007,-0.19160157,10.114168,-0.20958276,-0.69800824,-0.5678554,10.297174850920667,0.923904871299182,walk
05/08/2020, 16:46:01,-1.9232007,-0.19160157,10.114168,-0.194922,-0.6931214,-0.56663364,10.297174850920667,0.9162344179815739,walk
05/08/2020, 16:46:01,-1.9734962,0.06945557,9.833951,-0.194922,-0.6931214,-0.56663364,10.03025939455638,0.9162344179815739,walk
05/08/2020, 16:46:01,-1.9734962,0.06945557,9.833951,-0.18392642,-0.6943431,-0.5764075,10.03025939455638,0.9209706027467289,walk
05/08/2020, 16:46:01,-1.9064356,0.22752686,9.505833,-0.18392642,-0.6943431,-0.5764075,9.697789438443557,0.9209706027467289,walk
05/08/2020, 16:46:01,-1.9064356,0.22752686,9.505833,-0.19980891,-0.6955648,-0.61061597,9.697789438443557,0.9468821795424311,walk
05/08/2020, 16:46:01,-1.8441651,0.4382886,9.230406,-0.19980891,-0.6955648,-0.61061597,9.423026750171527,0.9468821795424311,walk
05/08/2020, 16:46:01,-1.8441651,0.4382886,9.230406,-0.23890428,-0.70045173,-0.65948516,9.423026750171527,0.9912762291965473,walk
05/08/2020, 16:46:01,-1.7268091,0.51013917,9.09868,-0.23890428,-0.70045173,-0.65948516,9.275132409176548,0.9912762291965473,walk
05/08/2020, 16:46:01,-1.7268091,0.51013917,9.09868,-0.26333886,-0.7077821,-0.70591086,9.275132409176548,1.033737388363605,walk
05/08/2020, 16:46:01,-1.6190332,0.47900394,9.077125,-0.26333886,-0.7077821,-0.70591086,9.232816702107018,1.033737388363605,walk
05/08/2020, 16:46:01,-1.6190332,0.47900394,9.077125,-0.2694475,-0.70289516,-0.7523366,9.232816702107018,1.064271564120282,walk
05/08/2020, 16:46:01,-1.4585669,0.34727785,9.06994,-0.2694475,-0.70289516,-0.7523366,9.193031268757768,1.064271564120282,walk
05/08/2020, 16:46:01,-1.4585669,0.34727785,9.06994,-0.27189097,-0.6711302,-0.79143196,9.193031268757768,1.0727091732034493,walk
05/08/2020, 16:46:01,-1.4441968,0.2562671,9.189691,-0.27189097,-0.6711302,-0.79143196,9.3060082968299,1.0727091732034493,walk
05/08/2020, 16:46:01,-1.4441968,0.2562671,9.189691,-0.26211712,-0.61737406,-0.80975795,9.3060082968299,1.0514580594008327,walk
05/08/2020, 16:46:01,-1.3939015,0.3903882,9.196876,-0.26211712,-0.61737406,-0.80975795,9.310095838963944,1.0514580594008327,walk
05/08/2020, 16:46:01,-1.3939015,0.3903882,9.196876,-0.27555618,-0.5562876,-0.8244187,9.310095838963944,1.0320142041304832,walk
05/08/2020, 16:46:01,-1.3819263,0.49097902,9.0004835,-0.27555618,-0.5562876,-0.8244187,9.119182208568587,1.0320142041304832,walk
05/08/2020, 16:46:02,0.1101709,-0.06227051,16.65257,-0.43804625,-0.17388608,-0.11948045,16.65305158155623,0.4862061911905368,walk
05/08/2020, 16:46:02,-4.167334,-0.7568262,15.416741,-0.43804625,-0.17388608,-0.11948045,15.987975912149686,0.4862061911905368,walk
05/08/2020, 16:46:02,-4.167334,-0.7568262,15.416741,-0.2889952,0.079012044,-0.121923916,15.987975912149686,0.32346031234313766,walk
05/08/2020, 16:46:02,-5.3408937,-1.0226734,6.821016,-0.2889952,0.079012044,-0.121923916,8.723374567055055,0.32346031234313766,walk
05/08/2020, 16:46:02,-5.3408937,-1.0226734,6.821016,-0.26333886,0.22684138,-0.077941634,8.723374567055055,0.35620115806096186,walk
05/08/2020, 16:46:02,-1.3915064,-0.42152345,1.9136207,-0.26333886,0.22684138,-0.077941634,2.403313628727099,0.35620115806096186,walk
05/08/2020, 16:46:02,-1.3915064,-0.42152345,1.9136207,-0.050757848,-0.050491344,-0.036402814,2.403313628727099,0.0803174938414755,walk
05/08/2020, 16:46:02,2.2608986,0.24668702,7.247329,-0.050757848,-0.050491344,-0.036402814,7.59580792045732,0.0803174938414755,walk
05/08/2020, 16:46:02,2.2608986,0.24668702,7.247329,0.09462803,-0.2594072,-0.036402814,7.59580792045732,0.2785170015806966,walk
05/08/2020, 16:46:02,1.3244458,0.15567628,15.87419,0.09462803,-0.2594072,-0.036402814,15.93010704749803,0.2785170015806966,walk
05/08/2020, 16:46:02,1.3244458,0.15567628,15.87419,0.34019578,-0.19709894,-0.07061125,15.93010704749803,0.399458517049756,walk
05/08/2020, 16:46:02,-3.9589674,-0.74724615,16.116087,0.34019578,-0.19709894,-0.07061125,16.612045597960893,0.399458517049756,walk
05/08/2020, 16:46:02,-3.9589674,-0.74724615,16.116087,0.35729998,0.12665951,-0.07061125,16.612045597960893,0.3856058342736685,walk
05/08/2020, 16:46:02,-5.633086,-0.95561284,8.202942,0.35729998,0.12665951,-0.07061125,9.996655031027721,0.3856058342736685,walk
05/08/2020, 16:46:02,-5.633086,-0.95561284,8.202942,0.42082995,0.2573846,-0.040068,9.996655031027721,0.49492436229026465,walk
05/08/2020, 16:46:02,-1.8657203,-0.32093263,2.0142114,0.42082995,0.2573846,-0.040068,2.764228194960968,0.49492436229026465,walk
05/08/2020, 16:46:02,-1.8657203,-0.32093263,2.0142114,0.32309154,0.024034189,2.490878E-4,2.764228194960968,0.32398432896465357,walk
05/08/2020, 16:46:02,2.299219,0.07185059,5.855823,0.32309154,0.024034189,2.490878E-4,6.2914412896728376,0.32398432896465357,walk
05/08/2020, 16:46:02,2.299219,0.07185059,5.855823,0.1667101,-0.2154249,-0.005859562,6.2914412896728376,0.2724600434784661,walk
05/08/2020, 16:46:02,1.4058765,-0.011975098,14.473104,0.1667101,-0.2154249,-0.005859562,14.541229582800224,0.2724600434784661,walk
05/08/2020, 16:46:03,-4.0499783,-5.4103494,6.3851223,-2.6591513,0.5615954,1.4797641,9.297526065934878,3.0945398517505165,walk
05/08/2020, 16:46:03,-4.2008643,-6.1144853,6.2821364,-2.6591513,0.5615954,1.4797641,9.721081693366292,3.0945398517505165,walk
05/08/2020, 16:46:03,-4.2008643,-6.1144853,6.2821364,-2.6396036,0.58847344,1.439447,9.721081693366292,3.0636279193571654,walk
05/08/2020, 16:46:03,-4.2272096,-6.7371902,6.1480155,-2.6396036,0.58847344,1.439447,10.05271743002802,3.0636279193571654,walk
05/08/2020, 16:46:03,-4.2272096,-6.7371902,6.1480155,-2.5809605,0.6837684,1.3722519,10.05271743002802,3.0019945983644933,walk
05/08/2020, 16:46:03,-4.253555,-7.1491337,6.016289,-2.5809605,0.6837684,1.3722519,10.266380918861152,3.0019945983644933,walk
05/08/2020, 16:46:03,-4.253555,-7.1491337,6.016289,-2.4758918,0.8181587,1.2916178,10.266380918861152,2.9099313389441344,walk
05/08/2020, 16:46:03,-4.2152348,-7.206614,5.7887626,-2.4758918,0.8181587,1.2916178,10.159392783743973,2.9099313389441344,walk
05/08/2020, 16:46:03,-4.2152348,-7.206614,5.7887626,-2.3610492,0.9598794,1.2244226,10.159392783743973,2.8275664991655343,walk
05/08/2020, 16:46:03,-4.0763235,-7.158714,5.527705,-2.3610492,0.9598794,1.2244226,9.920641187441259,2.8275664991655343,walk
05/08/2020, 16:46:03,-4.0763235,-7.158714,5.527705,-2.2865236,1.0759437,1.1670012,9.920641187441259,2.7834756797126436,walk
05/08/2020, 16:46:03,-4.021238,-7.065308,5.3097587,-2.2865236,1.0759437,1.1670012,9.709916033234947,2.7834756797126436,walk
05/08/2020, 16:46:03,-4.021238,-7.065308,5.3097587,-2.2498717,1.1602432,1.0985844,9.709916033234947,2.759524360126488,walk
05/08/2020, 16:46:03,-3.923042,-7.031778,5.1468973,-2.2498717,1.1602432,1.0985844,9.556500972221189,2.759524360126488,walk
05/08/2020, 16:46:03,-3.923042,-7.031778,5.1468973,-2.2181067,1.2274382,1.0093981,9.556500972221189,2.7286419025589588,walk
05/08/2020, 16:46:03,-3.9182522,-7.220984,5.0918117,-2.2181067,1.2274382,1.0093981,9.665498236246878,2.7286419025589588,walk
05/08/2020, 16:46:03,-3.9182522,-7.220984,5.0918117,-2.1313639,1.2836379,0.9214335,9.665498236246878,2.653201436285326,walk
05/08/2020, 16:46:03,-4.071533,-7.6377177,5.374424,-2.1313639,1.2836379,0.9214335,10.188059078046667,2.653201436285326,walk
05/08/2020, 16:46:03,-4.071533,-7.6377177,5.374424,-1.9407742,1.3141811,0.84324276,10.188059078046667,2.490930508880308,walk
05/08/2020, 16:46:03,-4.148174,-8.272398,5.688172,-1.9407742,1.3141811,0.84324276,10.862560181055352,2.490930508880308,walk
05/08/2020, 16:46:04,-7.6017923,-4.5409575,3.3362625,-0.08863147,0.67399454,1.7216667,9.46246207469237,1.8510160409269059,walk
05/08/2020, 16:46:04,-7.544312,-4.366121,3.2332766,-0.08863147,0.67399454,1.7216667,9.29697435402743,1.8510160409269059,walk
05/08/2020, 16:46:04,-7.544312,-4.366121,3.2332766,-0.017771138,0.7546287,1.7461013,9.29697435402743,1.9022749343983782,walk
05/08/2020, 16:46:04,-7.6353226,-4.248765,2.9794044,-0.017771138,0.7546287,1.7461013,9.231847355154148,1.9022749343983782,walk
05/08/2020, 16:46:04,-7.6353226,-4.248765,2.9794044,0.037206717,0.8352629,1.7570969,9.231847355154148,1.9458771574654672,walk
05/08/2020, 16:46:04,-7.8580594,-4.1888895,2.6009912,0.037206717,0.8352629,1.7570969,9.276909419780075,1.9458771574654672,walk
05/08/2020, 16:46:04,-7.8580594,-4.1888895,2.6009912,0.06774996,0.9036798,1.7693142,9.276909419780075,1.9878882887562361,walk
05/08/2020, 16:46:04,-8.018526,-4.0978785,2.198628,0.06774996,0.9036798,1.7693142,9.269483974312566,1.9878882887562361,walk
05/08/2020, 16:46:04,-8.018526,-4.0978785,2.198628,0.07996727,0.96720976,1.7876401,9.269483974312566,2.0340960117777267,walk
05/08/2020, 16:46:04,-7.9897857,-3.9637575,1.9711012,0.07996727,0.96720976,1.7876401,9.134182421626777,2.0340960117777267,walk
05/08/2020, 16:46:04,-7.9897857,-3.9637575,1.9711012,0.08729765,1.0429571,1.8071878,9.134182421626777,2.088374500110792,walk
05/08/2020, 16:46:04,-7.927515,-3.9350173,1.8681153,0.08729765,1.0429571,1.8071878,9.045424858423111,2.088374500110792,walk
05/08/2020, 16:46:04,-7.927515,-3.9350173,1.8681153,0.09951495,1.1492475,1.8328441,9.045424858423111,2.1656386443441242,walk
05/08/2020, 16:46:04,-8.01613,-3.9374123,1.9136207,0.09951495,1.1492475,1.8328441,9.133646965662727,2.1656386443441242,walk
05/08/2020, 16:46:04,-8.01613,-3.9374123,1.9136207,0.13494511,1.2848595,1.8572787,9.133646965662727,2.262423126182734,walk
05/08/2020, 16:46:04,-8.272398,-4.145779,2.059717,0.13494511,1.2848595,1.8572787,9.479582642634357,2.262423126182734,walk
05/08/2020, 16:46:04,-8.272398,-4.145779,2.059717,0.18992296,1.4241368,1.8719394,9.479582642634357,2.3597443569252117,walk
05/08/2020, 16:46:04,-8.763377,-4.6032276,2.1148024,0.18992296,1.4241368,1.8719394,10.12219705749398,2.3597443569252117,walk
05/08/2020, 16:46:04,-8.763377,-4.6032276,2.1148024,0.24978773,1.536536,1.8853785,10.12219705749398,2.4449925842192717,walk
05/08/2020, 16:46:04,-9.469908,-5.0558863,2.2345533,0.24978773,1.536536,1.8853785,10.965143299207824,2.4449925842192717,walk
05/08/2020, 16:46:05,-7.1635036,-3.04886,2.687212,0.38784325,-1.7010486,-1.1237426,8.236045199295413,2.075279777998258,walk
05/08/2020, 16:46:05,-6.8880763,-3.0129347,2.816543,0.38784325,-1.7010486,-1.1237426,8.028467204290637,2.075279777998258,walk
05/08/2020, 16:46:05,-6.8880763,-3.0129347,2.816543,0.39761707,-1.6081971,-0.9991261,8.028467204290637,1.9345930173926174,walk
05/08/2020, 16:46:05,-6.844966,-2.9626393,2.6345215,0.39761707,-1.6081971,-0.9991261,7.910214529960675,1.9345930173926174,walk
05/08/2020, 16:46:05,-6.844966,-2.9626393,2.6345215,0.3536348,-1.5202326,-0.8671793,7.910214529960675,1.7855431947544895,walk
05/08/2020, 16:46:05,-6.8497562,-2.8979738,2.3974147,0.3536348,-1.5202326,-0.8671793,7.814410389342315,1.7855431947544895,walk
05/08/2020, 16:46:05,-6.8497562,-2.8979738,2.3974147,0.26689196,-1.4579244,-0.74134105,7.814410389342315,1.6572149324452494,walk
05/08/2020, 16:46:05,-6.9000516,-2.7758276,2.2297633,0.26689196,-1.4579244,-0.74134105,7.764520291442591,1.6572149324452494,walk
05/08/2020, 16:46:05,-6.9000516,-2.7758276,2.2297633,0.15815797,-1.4114985,-0.6313854,7.764520291442591,1.5543453919862587,walk
05/08/2020, 16:46:05,-6.8114357,-2.7686427,2.5530908,0.15815797,-1.4114985,-0.6313854,7.783271238795471,1.5543453919862587,walk
05/08/2020, 16:46:05,-6.8114357,-2.7686427,2.5530908,0.034763254,-1.3833988,-0.55808157,7.783271238795471,1.4921312542755698,walk
05/08/2020, 16:46:05,-6.2725563,-2.7207422,1.8944606,0.034763254,-1.3833988,-0.55808157,7.094813716099306,1.4921312542755698,walk
05/08/2020, 16:46:05,-6.2725563,-2.7207422,1.8944606,-0.0324319,-1.3247558,-0.4921081,7.094813716099306,1.4135770634122025,walk
05/08/2020, 16:46:05,-5.958809,-2.6776319,2.208208,-0.0324319,-1.3247558,-0.4921081,6.895889992423002,1.4135770634122025,walk
05/08/2020, 16:46:05,-5.958809,-2.6776319,2.208208,-0.039762273,-1.2123566,-0.39925662,6.895889992423002,1.2770259711328587,walk
05/08/2020, 16:46:05,-5.5516553,-2.6369166,2.548301,-0.039762273,-1.2123566,-0.39925662,6.653423459542845,1.2770259711328587,walk
05/08/2020, 16:46:05,-5.5516553,-2.6369166,2.548301,-0.017771138,-1.0730793,-0.3137355,6.653423459542845,1.1181435833139421,walk
05/08/2020, 16:46:05,-5.2355127,-2.6464968,2.5267458,-0.017771138,-1.0730793,-0.3137355,6.387408165219314,1.1181435833139421,walk
05/08/2020, 16:46:05,-5.2355127,-2.6464968,2.5267458,5.548131E-4,-0.93746734,-0.24165346,6.387408165219314,0.9681124462216306,walk
05/08/2020, 16:46:05,-5.0271463,-2.6081765,2.6345215,5.548131E-4,-0.93746734,-0.24165346,6.2462379291198555,0.9681124462216306,walk
05/08/2020, 16:46:06,-13.850399,-6.5096636,2.1267774,-0.25845194,-1.9466164,-1.9569625,15.450969388425113,2.7723302384892126,walk
05/08/2020, 16:46:06,-13.167818,-6.6198344,2.1004322,-0.25845194,-1.9466164,-1.9569625,14.887090237768861,2.7723302384892126,walk
05/08/2020, 16:46:06,-13.167818,-6.6198344,2.1004322,-0.13505723,-1.9087427,-2.031488,14.887090237768861,2.7907852439111505,walk
05/08/2020, 16:46:06,-12.588223,-6.8521514,2.3135889,-0.13505723,-1.9087427,-2.031488,14.517852525042217,2.7907852439111505,walk
05/08/2020, 16:46:06,-12.588223,-6.8521514,2.3135889,0.13250166,-1.8048956,-2.0962396,14.517852525042217,2.7693727233797665,walk
05/08/2020, 16:46:06,-12.118799,-7.1084185,2.4932153,0.13250166,-1.8048956,-2.0962396,14.269233686345022,2.7693727233797665,walk
05/08/2020, 16:46:06,-12.118799,-7.1084185,2.4932153,0.50635105,-1.6301882,-2.1084569,14.269233686345022,2.7128389802197015,walk
05/08/2020, 16:46:06,-11.785892,-7.2736745,2.5267458,0.50635105,-1.6301882,-2.1084569,14.07828200109069,2.7128389802197015,walk
05/08/2020, 16:46:06,-11.785892,-7.2736745,2.5267458,0.94250864,-1.4469287,-2.1194525,14.07828200109069,2.7338624892271266,walk
05/08/2020, 16:46:06,-11.60387,-7.194639,2.2968237,0.94250864,-1.4469287,-2.1194525,13.845145021521041,2.7338624892271266,walk
05/08/2020, 16:46:06,-11.60387,-7.194639,2.2968237,1.3798879,-1.3210906,-2.1499956,13.845145021521041,2.8760827477886393,walk
05/08/2020, 16:46:06,-11.496095,-6.952742,2.0237916,1.3798879,-1.3210906,-2.1499956,13.586631237578283,2.8760827477886393,walk
05/08/2020, 16:46:06,-11.496095,-6.952742,2.0237916,1.7354114,-1.2404563,-2.1719868,13.586631237578283,3.0443244609642024,walk
05/08/2020, 16:46:06,-11.333233,-6.595884,1.7675245,1.7354114,-1.2404563,-2.1719868,13.231477393249648,3.0443244609642024,walk
05/08/2020, 16:46:06,-11.333233,-6.595884,1.7675245,1.9944181,-1.1976959,-2.1744304,13.231477393249648,3.184387935179797,walk
05/08/2020, 16:46:06,-11.127261,-6.1216702,1.5663428,1.9944181,-1.1976959,-2.1744304,12.796257946307307,3.184387935179797,walk
05/08/2020, 16:46:06,-11.127261,-6.1216702,1.5663428,2.1520214,-1.187922,-2.1768737,12.796257946307307,3.2834636981106335,walk
05/08/2020, 16:46:06,-10.835069,-5.5468655,1.5064673,2.1520214,-1.187922,-2.1768737,12.26523029189829,3.2834636981106335,walk
05/08/2020, 16:46:06,-10.835069,-5.5468655,1.5064673,2.2094429,-1.174483,-2.1854258,12.26523029189829,3.3222181822175836,walk
05/08/2020, 16:46:06,-10.540482,-5.046306,1.5639478,2.2094429,-1.174483,-2.1854258,11.790372766549877,3.3222181822175836,walk
05/08/2020, 16:46:07,-7.965835,-3.7170706,4.191284,-0.42460722,0.41620952,0.21893877,9.738480657684695,0.6336054266798149,walk
05/08/2020, 16:46:07,-8.190968,-3.896697,4.366121,-0.42460722,0.41620952,0.21893877,10.06673772357016,0.6336054266798149,walk
05/08/2020, 16:46:07,-8.190968,-3.896697,4.366121,-0.52234566,0.29037133,0.1554088,10.06673772357016,0.6175049750479993,walk
05/08/2020, 16:46:07,-8.339458,-4.0739284,4.5625124,-0.52234566,0.29037133,0.1554088,10.34214577010259,0.6175049750479993,walk
05/08/2020, 16:46:07,-8.339458,-4.0739284,4.5625124,-0.5822104,0.17308526,0.09676576,10.34214577010259,0.6150537317669065,walk
05/08/2020, 16:46:07,-8.406519,-4.160149,4.636758,-0.5822104,0.17308526,0.09676576,10.463074333218659,0.6150537317669065,walk
05/08/2020, 16:46:07,-8.406519,-4.160149,4.636758,-0.6164189,0.04724706,0.040566176,10.463074333218659,0.6195564197361133,walk
05/08/2020, 16:46:07,-8.344249,-4.176914,4.5553274,-0.6164189,0.04724706,0.040566176,10.383838778880213,0.6195564197361133,walk
05/08/2020, 16:46:07,-8.344249,-4.176914,4.5553274,-0.64329696,-0.07614767,-0.014411672,10.383838778880213,0.647948407319543,walk
05/08/2020, 16:46:07,-8.277188,-4.102669,4.5529323,-0.64329696,-0.07614767,-0.014411672,10.299171293372211,0.647948407319543,walk
05/08/2020, 16:46:07,-8.277188,-4.102669,4.5529323,-0.67384017,-0.17755127,-0.06694607,10.299171293372211,0.700047710760642,walk
05/08/2020, 16:46:07,-8.181387,-4.0020776,4.543352,-0.67384017,-0.17755127,-0.06694607,10.178102273498835,0.700047710760642,walk
05/08/2020, 16:46:07,-8.181387,-4.0020776,4.543352,-0.7141573,-0.25452027,-0.13291948,10.178102273498835,0.7697199352293594,walk
05/08/2020, 16:46:07,-8.167017,-3.9014869,4.497847,-0.7141573,-0.25452027,-0.13291948,10.10704677852825,0.7697199352293594,walk
05/08/2020, 16:46:07,-8.167017,-3.9014869,4.497847,-0.7508092,-0.3290458,-0.20988847,10.10704677852825,0.8461907320390781,walk
05/08/2020, 16:46:07,-8.224498,-3.9493873,4.4834766,-0.7508092,-0.3290458,-0.20988847,10.165706413819665,0.8461907320390781,walk
05/08/2020, 16:46:07,-8.224498,-3.9493873,4.4834766,-0.77035683,-0.39257577,-0.2807488,10.165706413819665,0.9090573601379495,walk
05/08/2020, 16:46:07,-8.3322735,-4.040398,4.567302,-0.77035683,-0.39257577,-0.2807488,10.32530135193479,0.9090573601379495,walk
05/08/2020, 16:46:07,-8.3322735,-4.040398,4.567302,-0.7398136,-0.42922765,-0.32350937,10.32530135193479,0.9144500456856086,walk
05/08/2020, 16:46:07,-8.851993,-4.3493557,5.079837,-0.7398136,-0.42922765,-0.32350937,11.09411602953718,0.9144500456856086,walk
05/08/2020, 16:46:08,-10.849439,-8.813672,-0.81909674,-3.30789,-0.027278472,3.055796,14.002216044394286,4.503417434624441,walk
05/08/2020, 16:46:08,-10.866204,-8.859178,-1.0633887,-3.30789,-0.027278472,3.055796,14.060235352155443,4.503417434624441,walk
05/08/2020, 16:46:08,-10.866204,-8.859178,-1.0633887,-3.5241363,-0.06270864,3.0264745,14.060235352155443,4.64575255707741,walk
05/08/2020, 16:46:08,-10.897339,-8.926238,-1.223855,-3.5241363,-0.06270864,3.0264745,14.139573593169464,4.64575255707741,walk
05/08/2020, 16:46:08,-10.897339,-8.926238,-1.223855,-3.7135043,-0.12501687,2.9714966,14.139573593169464,4.757681730377923,walk
05/08/2020, 16:46:08,-10.763218,-9.0891,-1.2022998,-3.7135043,-0.12501687,2.9714966,14.138745408069079,4.757681730377923,walk
05/08/2020, 16:46:08,-10.763218,-9.0891,-1.2022998,-3.860112,-0.20198587,2.9030797,14.138745408069079,4.834163277629451,walk
05/08/2020, 16:46:08,-10.540482,-9.211246,-1.0681788,-3.860112,-0.20198587,2.9030797,14.03886754345102,4.834163277629451,walk
05/08/2020, 16:46:08,-10.540482,-9.211246,-1.0681788,-3.9309723,-0.255742,2.8297758,14.03886754345102,4.850317374524731,walk
05/08/2020, 16:46:08,-10.279425,-9.359736,-0.7951465,-3.9309723,-0.255742,2.8297758,13.924923546011417,4.850317374524731,walk
05/08/2020, 16:46:08,-10.279425,-9.359736,-0.7951465,-3.900429,-0.2765114,2.761359,13.924923546011417,4.786951891997354,walk
05/08/2020, 16:46:08,-10.051897,-9.472302,-0.44786867,-3.900429,-0.2765114,2.761359,13.819035208272805,4.786951891997354,walk
05/08/2020, 16:46:08,-10.051897,-9.472302,-0.44786867,-3.7758126,-0.27284622,2.6880553,13.819035208272805,4.642935194262711,walk
05/08/2020, 16:46:08,-9.8866415,-9.601634,-0.17244141,-3.7758126,-0.27284622,2.6880553,13.782844125827273,4.642935194262711,walk
05/08/2020, 16:46:08,-9.8866415,-9.601634,-0.17244141,-3.5962183,-0.24718988,2.6110861,13.782844125827273,4.4510290965976225,walk
05/08/2020, 16:46:08,-9.750125,-9.766891,-0.100590825,-3.5962183,-0.24718988,2.6110861,13.80098566168556,4.4510290965976225,walk
05/08/2020, 16:46:08,-9.750125,-9.766891,-0.100590825,-3.4312847,-0.1995424,2.5328956,13.80098566168556,4.269554025140682,walk
05/08/2020, 16:46:08,-9.78605,-9.929751,-0.043110352,-3.4312847,-0.1995424,2.5328956,13.941613709281064,4.269554025140682,walk
05/08/2020, 16:46:08,-9.78605,-9.929751,-0.043110352,-3.3005595,-0.14822975,2.4510396,13.941613709281064,4.113789019488498,walk
05/08/2020, 16:46:08,-9.953702,-10.037527,-0.07424561,-3.3005595,-0.14822975,2.4510396,14.136252875005967,4.113789019488498,walk
05/08/2020, 16:46:09,-6.013894,-3.915857,2.672842,0.27788755,-0.48542723,0.7552782,7.65799863921642,0.9398437596659477,walk
05/08/2020, 16:46:09,-6.143225,-3.9733377,2.7063723,0.27788755,-0.48542723,0.7552782,7.8007101388816915,0.9398437596659477,walk
05/08/2020, 16:46:09,-6.143225,-3.9733377,2.7063723,0.3292002,-0.40723652,0.8163647,7.8007101388816915,0.9698792140828536,walk
05/08/2020, 16:46:09,-6.346802,-3.9613624,2.7399025,0.3292002,-0.40723652,0.8163647,7.967518814382148,0.9698792140828536,walk
05/08/2020, 16:46:09,-6.346802,-3.9613624,2.7399025,0.3853998,-0.33515444,0.8701208,7.967518814382148,1.0089458586421782,walk
05/08/2020, 16:46:09,-6.471343,-3.9278321,2.6704469,0.3853998,-0.33515444,0.8701208,8.02729297224492,1.0089458586421782,walk
05/08/2020, 16:46:09,-6.471343,-3.9278321,2.6704469,0.42938206,-0.2679593,0.9226552,8.02729297224492,1.0523610590256696,walk
05/08/2020, 16:46:09,-6.5384035,-3.8559816,2.5363257,0.42938206,-0.2679593,0.9226552,8.003265739978263,1.0523610590256696,walk
05/08/2020, 16:46:09,-6.5384035,-3.8559816,2.5363257,0.43182552,-0.18121645,0.9751896,8.003265739978263,1.08180750913719,walk
05/08/2020, 16:46:09,-6.672525,-3.65959,2.2585034,0.43182552,-0.18121645,0.9751896,7.938263394154784,1.08180750913719,walk
05/08/2020, 16:46:09,-6.672525,-3.65959,2.2585034,0.38173458,-0.061486915,1.0338327,7.938263394154784,1.1037716784406062,walk
05/08/2020, 16:46:09,-6.9719024,-3.410508,1.8657203,0.38173458,-0.061486915,1.0338327,7.982474494252669,1.1037716784406062,walk
05/08/2020, 16:46:09,-6.9719024,-3.410508,1.8657203,0.27910927,0.07534685,1.1108017,7.982474494252669,1.1478064042342766,walk
05/08/2020, 16:46:09,-7.4030056,-3.2069314,1.4729371,0.27910927,0.07534685,1.1108017,8.20112457746428,1.1478064042342766,walk
05/08/2020, 16:46:09,-7.4030056,-3.2069314,1.4729371,0.120284356,0.19996332,1.1975445,8.20112457746428,1.2200681854640734,walk
05/08/2020, 16:46:09,-7.9921803,-3.0799952,1.2765454,0.120284356,0.19996332,1.1975445,8.659727769101572,1.2200681854640734,walk
05/08/2020, 16:46:09,-7.9921803,-3.0799952,1.2765454,-0.097183585,0.30503207,1.2916178,8.659727769101572,1.3307011800859976,walk
05/08/2020, 16:46:09,-8.538245,-2.9937747,1.094524,-0.097183585,0.30503207,1.2916178,9.113852128899183,1.3307011800859976,walk
05/08/2020, 16:46:09,-8.538245,-2.9937747,1.094524,-0.3549686,0.39177492,1.3930213,9.113852128899183,1.4899660298996398,walk
05/08/2020, 16:46:09,-8.943004,-2.907554,0.96758795,-0.3549686,0.39177492,1.3930213,9.453433796639475,1.4899660298996398,walk
05/08/2020, 16:46:10,-11.2302475,-4.26553,1.947151,2.801982,-1.1708177,-1.5330222,12.169823448837052,3.4017751007660593,walk
05/08/2020, 16:46:10,-11.177557,-3.8607717,1.8250049,2.801982,-1.1708177,-1.5330222,11.96553304678689,3.4017751007660593,walk
05/08/2020, 16:46:10,-11.177557,-3.8607717,1.8250049,2.530758,-1.3271992,-1.4914833,11.96553304678689,3.2234633340669854,walk
05/08/2020, 16:46:10,-11.045831,-3.5015187,1.575923,2.530758,-1.3271992,-1.4914833,11.69420980771978,3.2234633340669854,walk
05/08/2020, 16:46:10,-11.045831,-3.5015187,1.575923,2.208221,-1.4799155,-1.4377272,11.69420980771978,3.0221596958846138,walk
05/08/2020, 16:46:10,-10.847044,-3.1446607,1.3867164,2.208221,-1.4799155,-1.4377272,11.378498873443512,3.0221596958846138,walk
05/08/2020, 16:46:10,-10.847044,-3.1446607,1.3867164,1.8392584,-1.6191927,-1.3790841,11.378498873443512,2.8118551931125277,walk
05/08/2020, 16:46:10,-10.621912,-2.8907888,1.2046949,1.8392584,-1.6191927,-1.3790841,11.073976890083145,2.8118551931125277,walk
05/08/2020, 16:46:10,-10.621912,-2.8907888,1.2046949,1.4483049,-1.7291484,-1.3241063,11.073976890083145,2.6154920750181505,walk
05/08/2020, 16:46:10,-10.4566555,-2.7183473,0.9699829,1.4483049,-1.7291484,-1.3241063,10.847669024570935,2.6154920750181505,walk
05/08/2020, 16:46:10,-10.4566555,-2.7183473,0.9699829,1.0500209,-1.8171129,-1.2764589,10.847669024570935,2.456377526691843,walk
05/08/2020, 16:46:10,-10.250684,-2.6704469,0.8382569,1.0500209,-1.8171129,-1.2764589,10.62593427291915,2.456377526691843,walk
05/08/2020, 16:46:10,-10.250684,-2.6704469,0.8382569,0.6590673,-1.8916385,-1.2459155,10.62593427291915,2.359019174173255,walk
05/08/2020, 16:46:10,-9.984837,-2.7614577,0.8885523,0.6590673,-1.8916385,-1.2459155,10.397698554416431,2.359019174173255,walk
05/08/2020, 16:46:10,-9.984837,-2.7614577,0.8885523,0.31331772,-1.9478381,-1.2165941,10.397698554416431,2.3178313861386863,walk
05/08/2020, 16:46:10,-9.74773,-2.8931837,1.0130934,0.31331772,-1.9478381,-1.2165941,10.218371457163283,2.3178313861386863,walk
05/08/2020, 16:46:10,-9.74773,-2.8931837,1.0130934,0.032319795,-1.9808248,-1.1933812,10.218371457163283,2.31276246820545,walk
05/08/2020, 16:46:10,-9.484278,-3.1135256,1.2406201,0.032319795,-1.9808248,-1.1933812,10.05906079782335,2.31276246820545,walk
05/08/2020, 16:46:10,-9.484278,-3.1135256,1.2406201,-0.17415258,-1.98449,-1.1762769,10.05906079782335,2.3134729794612907,walk
05/08/2020, 16:46:10,-9.388477,-3.319497,1.4418018,-0.17415258,-1.98449,-1.1762769,10.061876561292795,2.3134729794612907,walk
05/08/2020, 16:46:11,-10.47821,-4.402046,5.9252787,0.6957192,-0.60271335,-0.37970895,12.817169431609862,0.9957245815970208,walk
05/08/2020, 16:46:11,-11.318863,-4.502637,6.0019193,0.6957192,-0.60271335,-0.37970895,13.579890711873894,0.9957245815970208,walk
05/08/2020, 16:46:11,-11.318863,-4.502637,6.0019193,0.7946793,-0.8091857,-0.38703933,13.579890711873894,1.198372263138486,walk
05/08/2020, 16:46:11,-11.967913,-4.7876444,5.8677983,0.7946793,-0.8091857,-0.38703933,14.162751489864393,1.198372263138486,walk
05/08/2020, 16:46:11,-11.967913,-4.7876444,5.8677983,0.8508789,-1.0181016,-0.40292183,14.162751489864393,1.3866764955544684,walk
05/08/2020, 16:46:11,-12.533137,-4.9529004,5.455855,0.8508789,-1.0181016,-0.40292183,14.538813782348395,1.3866764955544684,walk
05/08/2020, 16:46:11,-12.533137,-4.9529004,5.455855,0.8472137,-1.2294608,-0.43346506,14.538813782348395,1.5547465826234879,walk
05/08/2020, 16:46:11,-12.73432,-4.790039,4.744534,0.8472137,-1.2294608,-0.43346506,14.408954685677008,1.5547465826234879,walk
05/08/2020, 16:46:11,-12.73432,-4.790039,4.744534,0.7873489,-1.4530374,-0.46889523,14.408954685677008,1.7178762167575121,walk
05/08/2020, 16:46:11,-12.502003,-4.3230104,4.006868,0.7873489,-1.4530374,-0.46889523,13.82184797592306,1.7178762167575121,walk
05/08/2020, 16:46:11,-12.502003,-4.3230104,4.006868,0.6395196,-1.6778357,-0.52142966,13.82184797592306,1.8697611658683349,walk
05/08/2020, 16:46:11,-11.769127,-3.7003052,3.2404616,0.6395196,-1.6778357,-0.52142966,12.755594766674268,1.8697611658683349,walk
05/08/2020, 16:46:11,-11.769127,-3.7003052,3.2404616,0.38051286,-1.8696474,-0.6179463,12.755594766674268,2.0055495609113754,walk
05/08/2020, 16:46:11,-10.763218,-3.168611,2.6201515,0.38051286,-1.8696474,-0.6179463,11.521811927543036,2.0055495609113754,walk
05/08/2020, 16:46:11,-10.763218,-3.168611,2.6201515,0.053089205,-2.0077028,-0.75355834,11.521811927543036,2.1451198743592834,walk
05/08/2020, 16:46:11,-9.77647,-2.8668385,2.1243825,0.053089205,-2.0077028,-0.75355834,10.40726347230794,2.1451198743592834,walk
05/08/2020, 16:46:11,-9.77647,-2.8668385,2.1243825,-0.27922136,-2.0920022,-0.9050529,10.40726347230794,2.2964229418342064,walk
05/08/2020, 16:46:11,-8.978929,-2.792593,1.9375709,-0.27922136,-2.0920022,-0.9050529,9.600724711005201,2.2964229418342064,walk
05/08/2020, 16:46:11,-8.978929,-2.792593,1.9375709,-0.5761018,-2.128654,-1.0650995,9.600724711005201,2.448978975713558,walk
05/08/2020, 16:46:11,-8.377779,-2.9937747,1.9208057,-0.5761018,-2.128654,-1.0650995,9.10161316845912,2.448978975713558,walk
05/08/2020, 16:46:12,-9.16095,-3.5757644,4.6104126,0.44404283,1.8187556,1.0643759,10.861169137155686,2.153588185859089,walk
05/08/2020, 16:46:12,-9.16095,-3.5757644,4.6104126,0.58820695,1.8639596,0.94831157,10.861169137155686,2.172470356125209,walk
05/08/2020, 16:46:12,-9.125025,-3.5709743,4.6750784,0.58820695,1.8639596,0.94831157,10.856992829456791,2.172470356125209,walk
05/08/2020, 16:46:12,-9.125025,-3.5709743,4.6750784,0.75191873,1.903055,0.82491684,10.856992829456791,2.206238365673303,walk
05/08/2020, 16:46:12,-9.134604,-3.6452198,4.670288,0.75191873,1.903055,0.82491684,10.887617588277225,2.206238365673303,walk
05/08/2020, 16:46:12,-9.134604,-3.6452198,4.670288,0.9058567,1.9079418,0.7003004,10.887617588277225,2.225137981871349,walk
05/08/2020, 16:46:12,-9.192085,-3.67875,4.6128078,0.9058567,1.9079418,0.7003004,10.922711601411015,2.225137981871349,walk
05/08/2020, 16:46:12,-9.192085,-3.67875,4.6128078,1.0353601,1.879842,0.5927881,10.922711601411015,2.2264712821913464,walk
05/08/2020, 16:46:12,-9.2256155,-3.7146754,4.7133985,1.0353601,1.879842,0.5927881,11.005767574971287,2.2264712821913464,walk
05/08/2020, 16:46:12,-9.2256155,-3.7146754,4.7133985,1.1294334,1.8370816,0.50482357,11.005767574971287,2.2147991443070456,walk
05/08/2020, 16:46:12,-9.223221,-3.6907253,4.8834453,1.1294334,1.8370816,0.50482357,11.069656429270688,2.2147991443070456,walk
05/08/2020, 16:46:12,-9.223221,-3.6907253,4.8834453,1.2173979,1.7747734,0.43029806,11.069656429270688,2.194774387755603,walk
05/08/2020, 16:46:12,-9.263936,-3.6068995,5.144502,1.2173979,1.7747734,0.43029806,11.19357572501203,2.194774387755603,walk
05/08/2020, 16:46:12,-9.263936,-3.6068995,5.144502,1.2870365,1.6904739,0.36188117,11.19357572501203,2.1552547607384174,walk
05/08/2020, 16:46:12,-9.319021,-3.6452198,5.4295096,1.2870365,1.6904739,0.36188117,11.38469845585344,2.1552547607384174,walk
05/08/2020, 16:46:12,-9.319021,-3.6452198,5.4295096,1.3224667,1.5866269,0.30445987,11.38469845585344,2.0878215792347854,walk
05/08/2020, 16:46:12,-9.491463,-3.63564,5.53489,1.3224667,1.5866269,0.30445987,11.57327745721352,2.0878215792347854,walk
05/08/2020, 16:46:12,-9.491463,-3.63564,5.53489,1.3236884,1.4656756,0.25803414,11.57327745721352,1.991717225849655,walk
05/08/2020, 16:46:12,-9.575289,-3.4847536,5.4462748,1.3236884,1.4656756,0.25803414,11.553855266734947,1.991717225849655,walk
05/08/2020, 16:46:12,-9.575289,-3.4847536,5.4462748,1.2821496,1.3178463,0.21527357,11.553855266734947,1.8512074585014533,walk
05/08/2020, 16:46:13,-6.9886675,-2.7399025,2.6249416,0.7971228,1.51821,1.1889924,7.95228629301997,2.086640690083123,walk
05/08/2020, 16:46:13,-7.6305327,-2.8620484,2.42376,0.7971228,1.51821,1.1889924,8.50240925420308,2.086640690083123,walk
05/08/2020, 16:46:13,-7.6305327,-2.8620484,2.42376,0.64074135,1.595179,1.2842873,8.50240925420308,2.145819039518358,walk
05/08/2020, 16:46:13,-8.320298,-3.0871804,2.335144,0.64074135,1.595179,1.2842873,9.176652027156152,2.145819039518358,walk
05/08/2020, 16:46:13,-8.320298,-3.0871804,2.335144,0.48191646,1.6635959,1.394243,9.176652027156152,2.2234451619624975,walk
05/08/2020, 16:46:13,-9.09868,-3.1350808,2.335144,0.48191646,1.6635959,1.394243,9.90290860464004,2.2234451619624975,walk
05/08/2020, 16:46:13,-9.09868,-3.1350808,2.335144,0.35852173,1.712465,1.5054204,9.90290860464004,2.308108552724581,walk
05/08/2020, 16:46:13,-9.845925,-3.178191,2.5985963,0.35852173,1.712465,1.5054204,10.667513591661285,2.308108552724581,walk
05/08/2020, 16:46:13,-9.845925,-3.178191,2.5985963,0.26567024,1.730791,1.6043806,10.667513591661285,2.374922146440631,walk
05/08/2020, 16:46:13,-10.356065,-3.1853762,2.787803,0.26567024,1.730791,1.6043806,11.187785509109242,2.374922146440631,walk
05/08/2020, 16:46:13,-10.356065,-3.1853762,2.787803,0.1593797,1.7344562,1.6813496,11.187785509109242,2.420883461008264,walk
05/08/2020, 16:46:13,-10.542876,-3.0776002,2.7686427,0.1593797,1.7344562,1.6813496,11.326484226359028,2.420883461008264,walk
05/08/2020, 16:46:13,-10.542876,-3.0776002,2.7686427,0.017659035,1.7332345,1.7314405,11.326484226359028,2.449959207223496,walk
05/08/2020, 16:46:13,-10.44468,-2.9650342,2.7470875,0.017659035,1.7332345,1.7314405,11.199520635683548,2.449959207223496,walk
05/08/2020, 16:46:13,-10.44468,-2.9650342,2.7470875,-0.1460528,1.7283475,1.7754228,11.199520635683548,2.4820642208762855,walk
05/08/2020, 16:46:13,-10.169253,-2.9506643,2.680027,-0.1460528,1.7283475,1.7754228,10.922576534426486,2.4820642208762855,walk
05/08/2020, 16:46:13,-10.169253,-2.9506643,2.680027,-0.32442537,1.7405648,1.8291789,10.922576534426486,2.5457245097351406,walk
05/08/2020, 16:46:13,-9.889036,-3.1278956,2.6153615,-0.32442537,1.7405648,1.8291789,10.69658276793652,2.5457245097351406,walk
05/08/2020, 16:46:13,-9.889036,-3.1278956,2.6153615,-0.5101284,1.7821037,1.8878219,10.69658276793652,2.6457505521329896,walk
05/08/2020, 16:46:13,-9.759705,-3.293152,2.6512868,-0.5101284,1.7821037,1.8878219,10.636070999423417,2.6457505521329896,walk
05/08/2020, 16:46:14,-8.181387,-2.318379,2.2345533,0.25100946,-1.2697779,-1.3351018,8.792223941904389,1.8595264402945084,walk
05/08/2020, 16:46:14,-7.941885,-2.2561085,2.2608986,0.25100946,-1.2697779,-1.3351018,8.56009493904995,1.8595264402945084,walk
05/08/2020, 16:46:14,-7.941885,-2.2561085,2.2608986,0.13983203,-1.1940306,-1.2898978,8.56009493904995,1.7632635952448725,walk
05/08/2020, 16:46:14,-7.688013,-2.2465284,2.3471193,0.13983203,-1.1940306,-1.2898978,8.346340756183375,1.7632635952448725,walk
05/08/2020, 16:46:14,-7.688013,-2.2465284,2.3471193,0.053089205,-1.11584,-1.2422503,8.346340756183375,1.6706594930534757,walk
05/08/2020, 16:46:14,-7.4772515,-2.2177882,2.43813,0.053089205,-1.11584,-1.2422503,8.17143515198619,1.6706594930534757,walk
05/08/2020, 16:46:14,-7.4772515,-2.2177882,2.43813,-0.0104407575,-1.0364275,-1.1884942,8.17143515198619,1.5769620934545612,walk
05/08/2020, 16:46:14,-7.2449346,-2.2201831,2.459685,-0.0104407575,-1.0364275,-1.1884942,7.9667019926283285,1.5769620934545612,walk
05/08/2020, 16:46:14,-7.2449346,-2.2201831,2.459685,-0.06419688,-0.95457155,-1.1225208,7.9667019926283285,1.4749172960281227,walk
05/08/2020, 16:46:14,-7.0006423,-2.2513185,2.430945,-0.06419688,-0.95457155,-1.1225208,7.745122374398222,1.4749172960281227,walk
05/08/2020, 16:46:14,-7.0006423,-2.2513185,2.430945,-0.11673126,-0.8702722,-1.0455519,7.745122374398222,1.3653492926101687,walk
05/08/2020, 16:46:14,-6.806646,-2.2321582,2.3638844,-0.11673126,-0.8702722,-1.0455519,7.543269042617141,1.3653492926101687,walk
05/08/2020, 16:46:14,-6.806646,-2.2321582,2.3638844,-0.16560048,-0.7798642,-0.958809,7.543269042617141,1.246966883988412,walk
05/08/2020, 16:46:14,-6.622229,-2.2848487,2.311194,-0.16560048,-0.7798642,-0.958809,7.37672483029439,1.246966883988412,walk
05/08/2020, 16:46:14,-6.622229,-2.2848487,2.311194,-0.2034741,-0.68945616,-0.86351407,7.37672483029439,1.123569337482074,walk
05/08/2020, 16:46:14,-6.461763,-2.2800586,2.2728736,-0.2034741,-0.68945616,-0.86351407,7.219349122121509,1.123569337482074,walk
05/08/2020, 16:46:14,-6.461763,-2.2800586,2.2728736,-0.23768254,-0.5953829,-0.7633322,7.219349122121509,0.9968198680975229,walk
05/08/2020, 16:46:14,-6.320457,-2.2968237,2.2513185,-0.23768254,-0.5953829,-0.7633322,7.091686014927469,0.9968198680975229,walk
05/08/2020, 16:46:14,-6.320457,-2.2968237,2.2513185,-0.25723022,-0.49886626,-0.65826344,7.091686014927469,0.8650697633927036,walk
05/08/2020, 16:46:14,-6.205496,-2.2824538,2.1674929,-0.25723022,-0.49886626,-0.65826344,6.958146241162605,0.8650697633927036,walk
05/08/2020, 16:46:15,-10.521321,-6.3060865,3.8464015,0.55522025,-1.5984232,-1.3131107,12.855338712720643,2.1418417586024474,walk
05/08/2020, 16:46:15,-10.758429,-6.325247,3.8248463,0.55522025,-1.5984232,-1.3131107,13.053044915418774,2.1418417586024474,walk
05/08/2020, 16:46:15,-10.758429,-6.325247,3.8248463,0.7250407,-1.6118623,-1.3925232,13.053044915418774,2.2500899619683574,walk
05/08/2020, 16:46:15,-10.861414,-5.9564137,3.7290456,0.7250407,-1.6118623,-1.3925232,12.936574474559995,2.2500899619683574,walk
05/08/2020, 16:46:15,-10.861414,-5.9564137,3.7290456,0.8398833,-1.6289666,-1.465827,12.936574474559995,2.3468244180240676,walk
05/08/2020, 16:46:15,-10.94045,-5.50136,3.6045046,0.8398833,-1.6289666,-1.465827,12.765220501385215,2.3468244180240676,walk
05/08/2020, 16:46:15,-10.94045,-5.50136,3.6045046,0.8887525,-1.6521794,-1.5354656,12.765220501385215,2.4243003699670314,walk
05/08/2020, 16:46:15,-11.098521,-5.199588,3.551814,0.8887525,-1.6521794,-1.5354656,12.760418109241867,2.4243003699670314,walk
05/08/2020, 16:46:15,-11.098521,-5.199588,3.551814,0.85820925,-1.6741706,-1.6026608,12.760418109241867,2.4714149638511653,walk
05/08/2020, 16:46:15,-11.256593,-4.976851,3.432063,0.85820925,-1.6741706,-1.6026608,12.777283875472923,2.4714149638511653,walk
05/08/2020, 16:46:15,-11.256593,-4.976851,3.432063,0.77268815,-1.69494,-1.6722994,12.777283875472923,2.5032885803035474,walk
05/08/2020, 16:46:15,-11.412269,-4.912185,3.2859669,0.77268815,-1.69494,-1.6722994,12.851732067427752,2.5032885803035474,walk
05/08/2020, 16:46:15,-11.412269,-4.912185,3.2859669,0.65295863,-1.7230397,-1.7468249,12.851732067427752,2.5390191088808165,walk
05/08/2020, 16:46:15,-11.53681,-4.9505057,3.2524366,0.65295863,-1.7230397,-1.7468249,12.968571018432275,2.5390191088808165,walk
05/08/2020, 16:46:15,-11.53681,-4.9505057,3.2524366,0.53567255,-1.7486961,-1.8030244,12.968571018432275,2.5682250902659836,walk
05/08/2020, 16:46:15,-11.668535,-5.0678616,3.3530276,0.53567255,-1.7486961,-1.8030244,13.156014943777253,2.5682250902659836,walk
05/08/2020, 16:46:15,-11.668535,-5.0678616,3.3530276,0.4721426,-1.7755742,-1.8384546,13.156014943777253,2.5991340362678557,walk
05/08/2020, 16:46:15,-11.776312,-5.1397123,3.652405,0.4721426,-1.7755742,-1.8384546,13.35807720789558,2.5991340362678557,walk
05/08/2020, 16:46:15,-11.776312,-5.1397123,3.652405,0.46603397,-1.7926784,-1.8628892,13.35807720789558,2.6270210139346895,walk
05/08/2020, 16:46:15,-11.704461,-5.1971927,3.8631666,0.46603397,-1.7926784,-1.8628892,13.376444863209754,2.6270210139346895,walk
05/08/2020, 16:46:16,-8.214917,-4.169729,3.1566358,-0.53700644,0.8034979,0.7479478,9.738370270548987,1.2220518548689072,walk
05/08/2020, 16:46:16,-8.066426,-4.2176294,3.2572267,-0.53700644,0.8034979,0.7479478,9.667737932299207,1.2220518548689072,walk
05/08/2020, 16:46:16,-8.066426,-4.2176294,3.2572267,-0.44171146,0.78395027,0.7222915,9.667737932299207,1.1538596481940946,walk
05/08/2020, 16:46:16,-8.164622,-4.3325906,3.417693,-0.44171146,0.78395027,0.7222915,9.854594020230312,1.1538596481940946,walk
05/08/2020, 16:46:16,-8.164622,-4.3325906,3.417693,-0.35619035,0.74607664,0.6831961,9.854594020230312,1.0725012235246296,walk
05/08/2020, 16:46:16,-8.396939,-4.358936,3.3865578,-0.35619035,0.74607664,0.6831961,10.048765331100638,1.0725012235246296,walk
05/08/2020, 16:46:16,-8.396939,-4.358936,3.3865578,-0.29021692,0.67643803,0.63554865,10.048765331100638,0.9724794926354322,walk
05/08/2020, 16:46:16,-8.504715,-4.3637257,3.3602126,-0.29021692,0.67643803,0.63554865,10.132290302960948,0.9724794926354322,walk
05/08/2020, 16:46:16,-8.504715,-4.3637257,3.3602126,-0.24134775,0.5615954,0.5927881,10.132290302960948,0.8514903622569983,walk
05/08/2020, 16:46:16,-8.3322735,-4.2990603,3.300337,-0.24134775,0.5615954,0.5927881,9.939865495262197,0.8514903622569983,walk
05/08/2020, 16:46:16,-8.3322735,-4.2990603,3.300337,-0.21080449,0.44553104,0.5549145,9.939865495262197,0.7422038237093331,walk
05/08/2020, 16:46:16,-7.8987746,-4.2990603,3.4895437,-0.21080449,0.44553104,0.5549145,9.646215603820096,0.7422038237093331,walk
05/08/2020, 16:46:16,-7.8987746,-4.2990603,3.4895437,-0.18514815,0.36367512,0.5097105,9.646215603820096,0.6529503907377555,walk
05/08/2020, 16:46:16,-7.551497,-4.3182206,3.7290456,-0.18514815,0.36367512,0.5097105,9.46456112389197,0.6529503907377555,walk
05/08/2020, 16:46:16,-7.551497,-4.3182206,3.7290456,-0.15093972,0.30625382,0.4559544,9.46456112389197,0.569621469426674,walk
05/08/2020, 16:46:16,-7.3646855,-4.3325906,3.8799317,-0.15093972,0.30625382,0.4559544,9.384231672093126,0.569621469426674,walk
05/08/2020, 16:46:16,-7.3646855,-4.3325906,3.8799317,-0.09840532,0.2524977,0.40219828,9.384231672093126,0.4849764495269928,walk
05/08/2020, 16:46:16,-7.4101906,-4.392466,4.102669,-0.09840532,0.2524977,0.40219828,9.541308799054585,0.4849764495269928,walk
05/08/2020, 16:46:16,-7.4101906,-4.392466,4.102669,-0.029988436,0.19018948,0.35332906,9.541308799054585,0.4023838606052145,walk
05/08/2020, 16:46:16,-7.573052,-4.3565407,4.184099,-0.029988436,0.19018948,0.35332906,9.686962801414467,0.4023838606052145,walk
05/08/2020, 16:46:17,-10.142908,-3.3793726,2.804568,0.14960587,1.5438663,1.6715758,11.052798096310266,2.280366330397351,walk
05/08/2020, 16:46:17,-10.516531,-3.415298,2.8764186,0.14960587,1.5438663,1.6715758,11.425211959135355,2.280366330397351,walk
05/08/2020, 16:46:17,-10.516531,-3.415298,2.8764186,0.1386103,1.563414,1.6654671,11.425211959135355,2.288505382612082,walk
05/08/2020, 16:46:17,-10.818304,-3.3673975,2.8428884,0.1386103,1.563414,1.6654671,11.681484632268438,2.288505382612082,walk
05/08/2020, 16:46:17,-10.818304,-3.3673975,2.8428884,0.105623595,1.5646358,1.6520281,11.681484632268438,2.277814341670346,walk
05/08/2020, 16:46:17,-10.947635,-3.2452517,2.804568,0.105623595,1.5646358,1.6520281,11.757889509859508,2.277814341670346,walk
05/08/2020, 16:46:17,-10.947635,-3.2452517,2.804568,0.040871903,1.5487533,1.6373672,11.757889509859508,2.2541691782709656,walk
05/08/2020, 16:46:17,-10.870995,-3.0799952,2.703977,0.040871903,1.5487533,1.6373672,11.617933777232677,2.2541691782709656,walk
05/08/2020, 16:46:17,-10.870995,-3.0799952,2.703977,-0.05197958,1.5328708,1.611711,11.617933777232677,2.2248611420715454,walk
05/08/2020, 16:46:17,-10.708133,-2.9698243,2.684817,-0.05197958,1.5328708,1.611711,11.432069193564741,2.2248611420715454,walk
05/08/2020, 16:46:17,-10.708133,-2.9698243,2.684817,-0.16804394,1.5279838,1.5909415,11.432069193564741,2.212254104456314,walk
05/08/2020, 16:46:17,-10.5620365,-2.9506643,2.668052,-0.16804394,1.5279838,1.5909415,11.286342910093769,2.212254104456314,walk
05/08/2020, 16:46:17,-10.5620365,-2.9506643,2.668052,-0.2767779,1.5377576,1.5713938,11.286342910093769,2.2159835672752766,walk
05/08/2020, 16:46:17,-10.545272,-3.0416749,2.7470875,-0.2767779,1.5377576,1.5713938,11.313754213713494,2.2159835672752766,walk
05/08/2020, 16:46:17,-10.545272,-3.0416749,2.7470875,-0.35985553,1.5524185,1.5494027,11.313754213713494,2.2226443442477923,walk
05/08/2020, 16:46:17,-10.624307,-3.163821,2.924319,-0.35985553,1.5524185,1.5494027,11.464610651615319,2.2226443442477923,walk
05/08/2020, 16:46:17,-10.624307,-3.163821,2.924319,-0.41361165,1.576853,1.534742,11.464610651615319,2.2389669709227804,walk
05/08/2020, 16:46:17,-10.842254,-3.2284865,3.0153298,-0.41361165,1.576853,1.534742,11.7076814240131,2.2389669709227804,walk
05/08/2020, 16:46:17,-10.842254,-3.2284865,3.0153298,-0.4600374,1.5964007,1.5225247,11.7076814240131,2.2534886821411404,walk
05/08/2020, 16:46:17,-11.050621,-3.2596216,3.0895753,-0.4600374,1.5964007,1.5225247,11.92840449482633,2.2534886821411404,walk
05/08/2020, 16:46:18,-7.975415,-2.9746144,2.4525,0.111732244,-0.72244287,-1.2410287,8.858348354664745,1.440333273673538,walk
05/08/2020, 16:46:18,-7.846084,-2.9171338,2.3064039,0.111732244,-0.72244287,-1.2410287,8.682753277376952,1.440333273673538,walk
05/08/2020, 16:46:18,-7.846084,-2.9171338,2.3064039,0.10806706,-0.6637998,-1.1432903,8.682753277376952,1.3264318152328491,walk
05/08/2020, 16:46:18,-7.6425076,-2.8309133,2.203418,0.10806706,-0.6637998,-1.1432903,8.44257323310673,1.3264318152328491,walk
05/08/2020, 16:46:18,-7.6425076,-2.8309133,2.203418,0.10195841,-0.60393506,-1.0455519,8.44257323310673,1.2117391818236518,walk
05/08/2020, 16:46:18,-7.434141,-2.806963,2.208208,0.10195841,-0.60393506,-1.0455519,8.247525617611744,1.2117391818236518,walk
05/08/2020, 16:46:18,-7.434141,-2.806963,2.208208,0.10073668,-0.53551817,-0.94659173,8.247525617611744,1.0922286850925096,walk
05/08/2020, 16:46:18,-7.158714,-2.7542725,2.2321582,0.10073668,-0.53551817,-0.94659173,7.98847485255809,1.0922286850925096,walk
05/08/2020, 16:46:18,-7.158714,-2.7542725,2.2321582,0.10073668,-0.4561057,-0.84518814,7.98847485255809,0.965672454583215,walk
05/08/2020, 16:46:18,-6.9311867,-2.7470875,2.215393,0.10073668,-0.4561057,-0.84518814,7.777904910185056,0.965672454583215,walk
05/08/2020, 16:46:18,-6.9311867,-2.7470875,2.215393,0.10073668,-0.37180635,-0.7425628,7.777904910185056,0.8365329110340343,walk
05/08/2020, 16:46:18,-6.792276,-2.7183473,2.1579127,0.10073668,-0.37180635,-0.7425628,7.627647831185957,0.8365329110340343,walk
05/08/2020, 16:46:18,-6.792276,-2.7183473,2.1579127,0.105623595,-0.2838418,-0.6338288,7.627647831185957,0.7024681320167647,walk
05/08/2020, 16:46:18,-6.7491655,-2.7518775,2.078877,0.105623595,-0.2838418,-0.6338288,7.579300423778831,0.7024681320167647,walk
05/08/2020, 16:46:18,-6.7491655,-2.7518775,2.078877,0.11661917,-0.19587721,-0.52142966,7.579300423778831,0.5690841765899838,walk
05/08/2020, 16:46:18,-6.706055,-2.7399025,2.0357666,0.11661917,-0.19587721,-0.52142966,7.524798150954549,0.5690841765899838,walk
05/08/2020, 16:46:18,-6.706055,-2.7399025,2.0357666,0.13372338,-0.10669092,-0.40414354,7.524798150954549,0.4388586299188701,walk
05/08/2020, 16:46:18,-6.7898808,-2.7542725,2.0118165,0.13372338,-0.10669092,-0.40414354,7.598414509573091,0.4388586299188701,walk
05/08/2020, 16:46:18,-6.7898808,-2.7542725,2.0118165,0.14716241,-0.02116982,-0.29174438,7.598414509573091,0.32744422347888497,walk
05/08/2020, 16:46:18,-6.871311,-2.6896071,1.9687061,0.14716241,-0.02116982,-0.29174438,7.637061467267455,0.32744422347888497,walk
05/08/2020, 16:46:19,-11.405084,-4.0667434,2.7087672,0.7849055,-1.2636693,-1.3986318,12.407729626663647,2.041839258104619,walk
05/08/2020, 16:46:19,-11.436219,-3.9829175,2.7734327,0.7849055,-1.2636693,-1.3986318,12.42347259212954,2.041839258104619,walk
05/08/2020, 16:46:19,-11.436219,-3.9829175,2.7734327,0.65418035,-1.328421,-1.4389489,12.42347259212954,2.0647586109792284,walk
05/08/2020, 16:46:19,-11.357183,-4.0691385,3.027305,0.65418035,-1.328421,-1.4389489,12.438170255208867,2.0647586109792284,walk
05/08/2020, 16:46:19,-11.357183,-4.0691385,3.027305,0.57110274,-1.3638512,-1.5024788,12.438170255208867,2.1080064192819195,walk
05/08/2020, 16:46:19,-11.287727,-4.145779,3.1901662,0.57110274,-1.3638512,-1.5024788,12.440957924833624,2.1080064192819195,walk
05/08/2020, 16:46:19,-11.287727,-4.145779,3.1901662,0.5149031,-1.3809553,-1.5782261,12.440957924833624,2.1593889107232145,walk
05/08/2020, 16:46:19,-11.242222,-4.1146436,3.3769777,0.5149031,-1.3809553,-1.5782261,12.438722672793846,2.1593889107232145,walk
05/08/2020, 16:46:19,-11.242222,-4.1146436,3.3769777,0.45870358,-1.395616,-1.6393126,12.438722672793846,2.2012494238416274,walk
05/08/2020, 16:46:19,-11.2374325,-3.9565725,3.319497,0.45870358,-1.395616,-1.6393126,12.367433686848612,2.2012494238416274,walk
05/08/2020, 16:46:19,-11.2374325,-3.9565725,3.319497,0.37318248,-1.4078335,-1.6857383,12.367433686848612,2.227773306123053,walk
05/08/2020, 16:46:19,-11.220667,-3.8272414,3.0656252,0.37318248,-1.4078335,-1.6857383,12.245374639238847,2.227773306123053,walk
05/08/2020, 16:46:19,-11.220667,-3.8272414,3.0656252,0.2607833,-1.423716,-1.7333858,12.245374639238847,2.2582296997944256,walk
05/08/2020, 16:46:19,-11.359578,-3.7362306,2.818938,0.2607833,-1.423716,-1.7333858,12.286002038049155,2.2582296997944256,walk
05/08/2020, 16:46:19,-11.359578,-3.7362306,2.818938,0.14716241,-1.4444853,-1.7712594,12.286002038049155,2.290317561735739,walk
05/08/2020, 16:46:19,-11.469749,-3.7122805,2.7518775,0.14716241,-1.4444853,-1.7712594,12.36563824030327,2.290317561735739,walk
05/08/2020, 16:46:19,-11.469749,-3.7122805,2.7518775,0.040871903,-1.4628112,-1.7895855,12.36563824030327,2.3117316821759024,walk
05/08/2020, 16:46:19,-11.452984,-3.7122805,2.7279274,0.040871903,-1.4628112,-1.7895855,12.344774358478348,2.3117316821759024,walk
05/08/2020, 16:46:19,-11.452984,-3.7122805,2.7279274,-0.040984005,-1.4676982,-1.805468,12.344774358478348,2.3271296288323486,walk
05/08/2020, 16:46:19,-11.321258,-3.6500099,2.799778,-0.040984005,-1.4676982,-1.805468,12.22015557452109,2.3271296288323486,walk
05/08/2020, 16:46:20,-9.208851,-3.7601807,3.9422023,-0.68850094,0.57136923,0.6086706,10.699665993173198,1.0821165525336858,walk
05/08/2020, 16:46:20,-9.239985,-3.774551,3.9685476,-0.68850094,0.57136923,0.6086706,10.74122599779339,1.0821165525336858,walk
05/08/2020, 16:46:20,-9.239985,-3.774551,3.9685476,-0.69216615,0.48340467,0.5610231,10.74122599779339,1.0136670985960405,walk
05/08/2020, 16:46:20,-9.14179,-3.784131,3.9182522,-0.69216615,0.48340467,0.5610231,10.641648362675998,1.0136670985960405,walk
05/08/2020, 16:46:20,-9.14179,-3.784131,3.9182522,-0.7007182,0.38077936,0.5133757,10.641648362675998,0.9484479722936577,walk
05/08/2020, 16:46:20,-8.820857,-3.7506008,3.903882,-0.7007182,0.38077936,0.5133757,10.349628998769079,0.9484479722936577,walk
05/08/2020, 16:46:20,-8.820857,-3.7506008,3.903882,-0.70927036,0.2940365,0.46694997,10.349628998769079,0.8986457492852891,walk
05/08/2020, 16:46:20,-8.475974,-3.8152664,3.9805226,-0.70927036,0.2940365,0.46694997,10.11152582765683,0.8986457492852891,walk
05/08/2020, 16:46:20,-8.475974,-3.8152664,3.9805226,-0.6994965,0.22561964,0.42296767,10.11152582765683,0.8479983725126751,walk
05/08/2020, 16:46:20,-8.2125225,-3.8751419,4.023633,-0.6994965,0.22561964,0.42296767,9.932364919584836,0.8479983725126751,walk
05/08/2020, 16:46:20,-8.2125225,-3.8751419,4.023633,-0.66895324,0.17308526,0.37654194,9.932364919584836,0.7869185331940296,walk
05/08/2020, 16:46:20,-7.9897857,-3.8679566,4.021238,-0.66895324,0.17308526,0.37654194,9.745158668595474,0.7869185331940296,walk
05/08/2020, 16:46:20,-7.9897857,-3.8679566,4.021238,-0.61886233,0.12421605,0.33133793,9.745158668595474,0.7128850080635638,walk
05/08/2020, 16:46:20,-7.9083548,-3.9422023,4.1242237,-0.61886233,0.12421605,0.33133793,9.751525798979332,0.7128850080635638,walk
05/08/2020, 16:46:20,-7.9083548,-3.9422023,4.1242237,-0.5687714,0.08512069,0.29224256,9.751525798979332,0.6450985775390861,walk
05/08/2020, 16:46:20,-8.061636,-3.9302273,4.1553593,-0.5687714,0.08512069,0.29224256,9.884516763482512,0.6450985775390861,walk
05/08/2020, 16:46:20,-8.061636,-3.9302273,4.1553593,-0.529676,0.04969052,0.25070375,9.884516763482512,0.5881141090265202,walk
05/08/2020, 16:46:20,-8.399334,-3.8368216,3.9805226,-0.529676,0.04969052,0.25070375,10.0555741233577,0.5881141090265202,walk
05/08/2020, 16:46:20,-8.399334,-3.8368216,3.9805226,-0.516237,-0.02116982,0.20183454,10.0555741233577,0.5546945159357529,walk
05/08/2020, 16:46:20,-8.586145,-3.7625759,3.8823268,-0.516237,-0.02116982,0.20183454,10.14649356618064,0.5546945159357529,walk
05/08/2020, 16:46:21,-9.101074,-4.061953,3.0823903,0.32431328,1.3569416,1.1902142,10.432168742559492,1.8338700332656181,walk
05/08/2020, 16:46:21,-9.06994,-3.9206471,3.1111305,0.32431328,1.3569416,1.1902142,10.359266936352428,1.8338700332656181,walk
05/08/2020, 16:46:21,-9.06994,-3.9206471,3.1111305,0.37684768,1.4241368,1.1706665,10.359266936352428,1.881658745365669,walk
05/08/2020, 16:46:21,-9.19448,-3.68354,3.2548318,0.37684768,1.4241368,1.1706665,10.425970415656746,1.881658745365669,walk
05/08/2020, 16:46:21,-9.19448,-3.68354,3.2548318,0.37440422,1.4901102,1.1560056,10.425970415656746,1.922746941924975,walk
05/08/2020, 16:46:21,-9.656719,-3.6021094,3.3410523,0.37440422,1.4901102,1.1560056,10.834668829689218,1.922746941924975,walk
05/08/2020, 16:46:21,-9.656719,-3.6021094,3.3410523,0.33897403,1.5328708,1.149897,10.834668829689218,1.9459854190833301,walk
05/08/2020, 16:46:21,-10.147698,-3.558999,3.4344583,0.33897403,1.5328708,1.149897,11.28883345156352,1.9459854190833301,walk
05/08/2020, 16:46:21,-10.147698,-3.558999,3.4344583,0.2681137,1.5340925,1.1401231,11.28883345156352,1.9300791809422921,walk
05/08/2020, 16:46:21,-10.502161,-3.5973196,3.417693,0.2681137,1.5340925,1.1401231,11.615365654968704,1.9300791809422921,walk
05/08/2020, 16:46:21,-10.502161,-3.5973196,3.417693,0.17159702,1.5011058,1.1303493,11.615365654968704,1.8869164282069917,walk
05/08/2020, 16:46:21,-10.571617,-3.7218604,3.3458424,0.17159702,1.5011058,1.1303493,11.696409478070844,1.8869164282069917,walk
05/08/2020, 16:46:21,-10.571617,-3.7218604,3.3458424,0.070193425,1.4571235,1.1095799,11.696409478070844,1.8328403269628062,walk
05/08/2020, 16:46:21,-10.30098,-4.030818,3.523074,0.070193425,1.4571235,1.1095799,11.609036326626448,1.8328403269628062,walk
05/08/2020, 16:46:21,-10.30098,-4.030818,3.523074,-0.005553836,1.4204715,1.0851454,11.609036326626448,1.7875432041227786,walk
05/08/2020, 16:46:21,-10.015972,-4.366121,3.8535867,-0.005553836,1.4204715,1.0851454,11.585889654394014,1.7875432041227786,walk
05/08/2020, 16:46:21,-10.015972,-4.366121,3.8535867,-0.020214597,1.4192499,1.0753715,11.585889654394014,1.7807590397862085,walk
05/08/2020, 16:46:21,-9.946517,-4.5625124,4.358936,-0.020214597,1.4192499,1.0753715,11.779220739136493,1.7807590397862085,walk
05/08/2020, 16:46:21,-9.946517,-4.5625124,4.358936,0.035984986,1.4449062,1.0704845,11.779220739136493,1.7986066973651103,walk
05/08/2020, 16:46:21,-10.027947,-4.648733,4.718189,0.035984986,1.4449062,1.0704845,12.017976309411837,1.7986066973651103,walk
05/08/2020, 16:46:22,-7.94907,-2.2058132,3.2045362,0.070193425,-0.9716758,-0.40903047,8.849993078481473,1.0565921284955926,walk
05/08/2020, 16:46:22,-7.8676395,-2.2441335,3.056045,0.070193425,-0.9716758,-0.40903047,8.733573059158779,1.0565921284955926,walk
05/08/2020, 16:46:22,-7.8676395,-2.2441335,3.056045,-0.021436328,-0.9533498,-0.37970895,8.733573059158779,1.0264084448040973,walk
05/08/2020, 16:46:22,-7.685618,-2.2920337,3.0105398,-0.021436328,-0.9533498,-0.37970895,8.566533192154248,1.0264084448040973,walk
05/08/2020, 16:46:22,-7.685618,-2.2920337,3.0105398,-0.09474013,-0.9179197,-0.35649607,8.566533192154248,0.9892632128839886,walk
05/08/2020, 16:46:22,-7.5395217,-2.335144,2.9770093,-0.09474013,-0.9179197,-0.35649607,8.43563094435908,0.9892632128839886,walk
05/08/2020, 16:46:22,-7.5395217,-2.335144,2.9770093,-0.14360933,-0.8641636,-0.3369484,8.43563094435908,0.9385822016194892,walk
05/08/2020, 16:46:22,-7.3934255,-2.3902297,2.943479,-0.14360933,-0.8641636,-0.3369484,8.309031659142704,0.9385822016194892,walk
05/08/2020, 16:46:22,-7.3934255,-2.3902297,2.943479,-0.17903951,-0.7969684,-0.3198442,8.309031659142704,0.8772195166188598,walk
05/08/2020, 16:46:22,-7.3575,-2.454895,2.9171338,-0.17903951,-0.7969684,-0.3198442,8.286675243072743,0.8772195166188598,walk
05/08/2020, 16:46:22,-7.3575,-2.454895,2.9171338,-0.19980891,-0.7236646,-0.30151823,8.286675243072743,0.8090285975371088,walk
05/08/2020, 16:46:22,-7.2664895,-2.4501052,2.8333082,-0.19980891,-0.7236646,-0.30151823,8.175115941065568,0.8090285975371088,walk
05/08/2020, 16:46:22,-7.2664895,-2.4501052,2.8333082,-0.2071393,-0.6503608,-0.28319228,8.175115941065568,0.7389680333472392,walk
05/08/2020, 16:46:22,-7.180269,-2.4740553,2.7901978,-0.2071393,-0.6503608,-0.28319228,8.090884571390358,0.7389680333472392,walk
05/08/2020, 16:46:22,-7.180269,-2.4740553,2.7901978,-0.21813487,-0.5782787,-0.26486632,8.090884571390358,0.6724159921663577,walk
05/08/2020, 16:46:22,-7.070098,-2.4261549,2.787803,-0.21813487,-0.5782787,-0.26486632,7.977741360349979,0.6724159921663577,walk
05/08/2020, 16:46:22,-7.070098,-2.4261549,2.787803,-0.23768254,-0.500088,-0.24531864,7.977741360349979,0.6056089543148373,walk
05/08/2020, 16:46:22,-7.0102224,-2.4165747,2.7830129,-0.23768254,-0.500088,-0.24531864,7.92011442888554,0.6056089543148373,walk
05/08/2020, 16:46:22,-7.0102224,-2.4165747,2.7830129,-0.2608954,-0.41334516,-0.22088404,7.92011442888554,0.5363864178356375,walk
05/08/2020, 16:46:22,-7.038963,-2.3471193,2.7686427,-0.2608954,-0.41334516,-0.22088404,7.919681132076932,0.5363864178356375,walk
05/08/2020, 16:46:23,-10.715318,-3.8703518,3.9589674,0.94495213,-1.1915872,-1.4817095,12.061139258366545,2.1232704940455864,walk
05/08/2020, 16:46:23,-10.645863,-3.796106,3.8344264,0.94495213,-1.1915872,-1.4817095,11.935142957743304,2.1232704940455864,walk
05/08/2020, 16:46:23,-10.645863,-3.796106,3.8344264,1.0487992,-1.1769265,-1.5085875,11.935142957743304,2.1819651296585363,walk
05/08/2020, 16:46:23,-10.722503,-3.6907253,3.7074904,1.0487992,-1.1769265,-1.5085875,11.93059106507543,2.1819651296585363,walk
05/08/2020, 16:46:23,-10.722503,-3.6907253,3.7074904,1.1611983,-1.1598222,-1.5330222,11.93059106507543,2.2458241136685695,walk
05/08/2020, 16:46:23,-10.765614,-3.6883302,3.6979103,1.1611983,-1.1598222,-1.5330222,11.965648973459764,2.2458241136685695,walk
05/08/2020, 16:46:23,-10.765614,-3.6883302,3.6979103,1.2821496,-1.1402745,-1.5525697,11.965648973459764,2.314002222965394,walk
05/08/2020, 16:46:23,-10.801538,-3.7218604,3.6500099,1.2821496,-1.1402745,-1.5525697,11.993667088105477,2.314002222965394,walk
05/08/2020, 16:46:23,-10.801538,-3.7218604,3.6500099,1.4202051,-1.1121747,-1.5672306,11.993667088105477,2.3895871909873394,walk
05/08/2020, 16:46:23,-10.796748,-3.6931202,3.530259,1.4202051,-1.1121747,-1.5672306,11.944523256832534,2.3895871909873394,walk
05/08/2020, 16:46:23,-10.796748,-3.6931202,3.530259,1.5619258,-1.0816315,-1.5757827,11.944523256832534,2.468325318813723,walk
05/08/2020, 16:46:23,-10.736873,-3.666775,3.5134938,1.5619258,-1.0816315,-1.5757827,11.877302392677791,2.468325318813723,walk
05/08/2020, 16:46:23,-10.736873,-3.666775,3.5134938,1.6975378,-1.0510882,-1.5733392,11.877302392677791,2.542010476111404,walk
05/08/2020, 16:46:23,-10.741663,-3.547024,3.417693,1.6975378,-1.0510882,-1.5733392,11.817162419665907,2.542010476111404,walk
05/08/2020, 16:46:23,-10.741663,-3.547024,3.417693,1.8087152,-1.0229884,-1.5660088,11.817162419665907,2.6019876420151418,walk
05/08/2020, 16:46:23,-10.729688,-3.4057178,3.307522,1.8087152,-1.0229884,-1.5660088,11.733064995135086,2.6019876420151418,walk
05/08/2020, 16:46:23,-10.729688,-3.4057178,3.307522,1.8954581,-1.0046625,-1.5525697,11.733064995135086,2.6481278298083146,walk
05/08/2020, 16:46:23,-10.698553,-3.271597,3.3290772,1.8954581,-1.0046625,-1.5525697,11.67240933770502,2.6481278298083146,walk
05/08/2020, 16:46:23,-10.698553,-3.271597,3.3290772,1.945549,-0.9985539,-1.5330222,11.67240933770502,2.6706605456139565,walk
05/08/2020, 16:46:23,-10.665023,-3.056045,3.3841627,1.945549,-0.9985539,-1.5330222,11.598908600018506,2.6706605456139565,walk
05/08/2020, 16:46:24,-8.514295,-3.410508,4.406836,-0.3830684,0.2280631,0.3960896,10.175705431326442,0.5963565805155044,walk
05/08/2020, 16:46:24,-8.447234,-3.4416432,4.4379716,-0.3830684,0.2280631,0.3960896,10.143779614982096,0.5963565805155044,walk
05/08/2020, 16:46:24,-8.447234,-3.4416432,4.4379716,-0.3745163,0.1547593,0.35943773,10.143779614982096,0.5416718485527053,walk
05/08/2020, 16:46:24,-8.3322735,-3.4847536,4.382886,-0.3745163,0.1547593,0.35943773,10.038923160104975,0.5416718485527053,walk
05/08/2020, 16:46:24,-8.3322735,-3.4847536,4.382886,-0.36962938,0.08512069,0.32156408,10.038923160104975,0.49726740257669766,walk
05/08/2020, 16:46:24,-8.291558,-3.4296682,4.4259963,-0.36962938,0.08512069,0.32156408,10.005098981659804,0.49726740257669766,walk
05/08/2020, 16:46:24,-8.291558,-3.4296682,4.4259963,-0.3708511,0.0130386185,0.281247,10.005098981659804,0.46561831249481817,walk
05/08/2020, 16:46:24,-8.349038,-3.4799635,4.4643164,-0.3708511,0.0130386185,0.281247,10.086957146673758,0.46561831249481817,walk
05/08/2020, 16:46:24,-8.349038,-3.4799635,4.4643164,-0.37573802,-0.061486915,0.24337336,10.086957146673758,0.4518742062865424,walk
05/08/2020, 16:46:24,-8.394544,-3.4416432,4.409231,-0.37573802,-0.061486915,0.24337336,10.087348059981649,0.4518742062865424,walk
05/08/2020, 16:46:24,-8.394544,-3.4416432,4.409231,-0.38917705,-0.1384559,0.204278,10.087348059981649,0.4608235229095995,walk
05/08/2020, 16:46:24,-8.416099,-3.4608033,4.399651,-0.38917705,-0.1384559,0.204278,10.107660668912846,0.4608235229095995,walk
05/08/2020, 16:46:24,-8.416099,-3.4608033,4.399651,-0.41238993,-0.21786836,0.16396092,10.107660668912846,0.4943837193695204,walk
05/08/2020, 16:46:24,-8.456815,-3.4248781,4.390071,-0.41238993,-0.21786836,0.16396092,10.125227343901077,0.4943837193695204,walk
05/08/2020, 16:46:24,-8.456815,-3.4248781,4.390071,-0.439268,-0.300946,0.12120036,10.125227343901077,0.5460900935334175,walk
05/08/2020, 16:46:24,-8.473579,-3.4655933,4.4212065,-0.439268,-0.300946,0.12120036,10.166560472215096,0.5460900935334175,walk
05/08/2020, 16:46:24,-8.473579,-3.4655933,4.4212065,-0.4637026,-0.3815802,0.07843981,10.166560472215096,0.6056206295240875,walk
05/08/2020, 16:46:24,-8.58854,-3.5542092,4.4403663,-0.4637026,-0.3815802,0.07843981,10.301081327725282,0.6056206295240875,walk
05/08/2020, 16:46:24,-8.58854,-3.5542092,4.4403663,-0.4832503,-0.46099263,0.033235796,10.301081327725282,0.6686925077590049,walk
05/08/2020, 16:46:24,-8.646021,-3.539839,4.4523416,-0.4832503,-0.46099263,0.033235796,10.3492745111684,0.6686925077590049,walk
05/08/2020, 16:46:25,-10.712923,-3.4512234,3.5613942,0.126393,1.6122832,1.3527042,11.805134128795224,2.108374010788941,walk
05/08/2020, 16:46:25,-10.6817875,-3.4344583,3.530259,0.126393,1.6122832,1.3527042,11.762602406296383,2.108374010788941,walk
05/08/2020, 16:46:25,-10.6817875,-3.4344583,3.530259,0.15693626,1.6196136,1.317274,11.762602406296383,2.093558711816272,walk
05/08/2020, 16:46:25,-10.715318,-3.4344583,3.544629,0.15693626,1.6196136,1.317274,11.797369745745527,2.093558711816272,walk
05/08/2020, 16:46:25,-10.715318,-3.4344583,3.544629,0.19847508,1.6220571,1.2769569,11.797369745745527,2.073904648986661,walk
05/08/2020, 16:46:25,-10.744058,-3.415298,3.6236646,0.19847508,1.6220571,1.2769569,11.841874027721362,2.073904648986661,walk
05/08/2020, 16:46:25,-10.744058,-3.415298,3.6236646,0.2363487,1.6220571,1.2341964,11.841874027721362,2.051870048396801,walk
05/08/2020, 16:46:25,-10.760823,-3.4296682,3.642825,0.2363487,1.6220571,1.2341964,11.867102176206904,2.051870048396801,walk
05/08/2020, 16:46:25,-10.760823,-3.4296682,3.642825,0.24734427,1.6281657,1.1902142,11.867102176206904,2.031923361201051,walk
05/08/2020, 16:46:25,-10.849439,-3.3123121,3.4727786,0.24734427,1.6281657,1.1902142,11.86347006295097,2.031923361201051,walk
05/08/2020, 16:46:25,-10.849439,-3.3123121,3.4727786,0.22657487,1.6245005,1.1425667,11.86347006295097,1.9989489008229113,walk
05/08/2020, 16:46:25,-10.87818,-3.0871804,3.3506324,0.22657487,1.6245005,1.1425667,11.793736077898826,1.9989489008229113,walk
05/08/2020, 16:46:25,-10.87818,-3.0871804,3.3506324,0.16548836,1.6037312,1.0998061,11.793736077898826,1.9516437710752468,walk
05/08/2020, 16:46:25,-10.91171,-2.929109,3.276387,0.16548836,1.6037312,1.0998061,11.763494470589132,1.9516437710752468,walk
05/08/2020, 16:46:25,-10.91171,-2.929109,3.276387,0.06530651,1.5817399,1.0619324,11.763494470589132,1.9062703312615297,walk
05/08/2020, 16:46:25,-10.981165,-2.8333082,3.1350808,0.06530651,1.5817399,1.0619324,11.766152746368896,1.9062703312615297,walk
05/08/2020, 16:46:25,-10.981165,-2.8333082,3.1350808,-0.048314385,1.5511967,1.0252806,11.766152746368896,1.8600391830745036,walk
05/08/2020, 16:46:25,-10.95961,-2.8141482,3.056045,-0.048314385,1.5511967,1.0252806,11.720575601631952,1.8600391830745036,walk
05/08/2020, 16:46:25,-10.95961,-2.8141482,3.056045,-0.14483106,1.499884,0.9898504,11.720575601631952,1.8028954201428244,walk
05/08/2020, 16:46:25,-10.753638,-2.8979738,3.1374757,-0.14483106,1.499884,0.9898504,11.570771017706392,1.8028954201428244,walk
05/08/2020, 16:46:26,-7.446116,-2.567461,1.9663111,0.0017765444,-0.26673758,-0.23798826,8.118058784950035,0.3574779802380788,walk
05/08/2020, 16:46:26,-7.414981,-2.5315359,1.9375709,0.0017765444,-0.26673758,-0.23798826,8.071232651329336,0.3574779802380788,walk
05/08/2020, 16:46:26,-7.414981,-2.5315359,1.9375709,-0.0104407575,-0.18854684,-0.19278425,8.071232651329336,0.2698604933828408,walk
05/08/2020, 16:46:26,-7.3838453,-2.4692652,1.9303858,-0.0104407575,-0.18854684,-0.19278425,8.021523049340729,0.2698604933828408,walk
05/08/2020, 16:46:26,-7.3838453,-2.4692652,1.9303858,-0.033653624,-0.10791265,-0.1463585,8.021523049340729,0.18492841558283196,walk
05/08/2020, 16:46:26,-7.32397,-2.440525,1.947151,-0.033653624,-0.10791265,-0.1463585,7.9616639957282045,0.18492841558283196,walk
05/08/2020, 16:46:26,-7.32397,-2.440525,1.947151,-0.06541861,-0.024835011,-0.093824126,7.9616639957282045,0.11704417411519717,walk
05/08/2020, 16:46:26,-7.3694754,-2.4261549,2.0357666,-0.06541861,-0.024835011,-0.093824126,8.021205655772734,0.11704417411519717,walk
05/08/2020, 16:46:26,-7.3694754,-2.4261549,2.0357666,-0.09840532,0.059464358,-0.04128973,8.021205655772734,0.12216569942018214,walk
05/08/2020, 16:46:26,-7.429351,-2.3878345,2.0381618,-0.09840532,0.059464358,-0.04128973,8.065426911675463,0.12216569942018214,walk
05/08/2020, 16:46:26,-7.429351,-2.3878345,2.0381618,-0.13261376,0.14009854,0.011244658,8.065426911675463,0.19323678221079435,walk
05/08/2020, 16:46:26,-7.4652762,-2.4620802,2.071692,-0.13261376,0.14009854,0.011244658,8.129212518405057,0.19323678221079435,walk
05/08/2020, 16:46:26,-7.4652762,-2.4620802,2.071692,-0.16315702,0.21218061,0.0576704,8.129212518405057,0.2738004748426475,walk
05/08/2020, 16:46:26,-7.4748564,-2.4620802,2.1267774,-0.16315702,0.21218061,0.0576704,8.15220823548969,0.2738004748426475,walk
05/08/2020, 16:46:26,-7.4748564,-2.4620802,2.1267774,-0.1827047,0.27815402,0.11142652,8.15220823548969,0.35095089866582335,walk
05/08/2020, 16:46:26,-7.3838453,-2.4764502,2.1603076,-0.1827047,0.27815402,0.11142652,8.082135026612027,0.35095089866582335,walk
05/08/2020, 16:46:26,-7.3838453,-2.4764502,2.1603076,-0.19003507,0.35267955,0.17006956,8.082135026612027,0.435223908504155,walk
05/08/2020, 16:46:26,-7.29523,-2.5051906,2.189048,-0.19003507,0.35267955,0.17006956,8.017997931914854,0.435223908504155,walk
05/08/2020, 16:46:26,-7.29523,-2.5051906,2.189048,-0.18759161,0.43453547,0.22993433,8.017997931914854,0.5261952956108633,walk
05/08/2020, 16:46:26,-7.194639,-2.5267458,2.2537134,-0.18759161,0.43453547,0.22993433,7.951509389634788,0.5261952956108633,walk
05/08/2020, 16:46:27,-11.196717,-3.295547,3.0105398,1.4849567,-1.129279,-1.3228846,12.05364912563877,2.287004849358796,walk
05/08/2020, 16:46:27,-11.191927,-3.1901662,2.9698243,1.4849567,-1.129279,-1.3228846,12.01067217335742,2.287004849358796,walk
05/08/2020, 16:46:27,-11.191927,-3.1901662,2.9698243,1.4263138,-1.1683743,-1.3338801,12.01067217335742,2.2756769264703935,walk
05/08/2020, 16:46:27,-11.156001,-3.1374757,3.0728102,1.4263138,-1.1683743,-1.3338801,11.989256718077549,2.2756769264703935,walk
05/08/2020, 16:46:27,-11.156001,-3.1374757,3.0728102,1.3774445,-1.2013611,-1.3363236,11.989256718077549,2.264151624226332,walk
05/08/2020, 16:46:27,-10.981165,-3.0344899,3.1901662,1.3774445,-1.2013611,-1.3363236,11.830945551713432,2.264151624226332,walk
05/08/2020, 16:46:27,-10.981165,-3.0344899,3.1901662,1.3139145,-1.2172436,-1.3363236,11.830945551713432,2.2346843382145534,walk
05/08/2020, 16:46:27,-10.847044,-2.9865894,3.151846,1.3139145,-1.2172436,-1.3363236,11.683844083076501,2.2346843382145534,walk
05/08/2020, 16:46:27,-10.847044,-2.9865894,3.151846,1.2393891,-1.2294608,-1.3326584,11.683844083076501,2.1962781314498883,walk
05/08/2020, 16:46:27,-10.672208,-2.8716285,3.0967603,1.2393891,-1.2294608,-1.3326584,11.47746464068898,2.1962781314498883,walk
05/08/2020, 16:46:27,-10.672208,-2.8716285,3.0967603,1.1416507,-1.2490085,-1.3106673,11.47746464068898,2.1403825127530074,walk
05/08/2020, 16:46:27,-10.641072,-2.7375073,2.914739,1.1416507,-1.2490085,-1.3106673,11.367588504011566,2.1403825127530074,walk
05/08/2020, 16:46:27,-10.641072,-2.7375073,2.914739,1.0231428,-1.2636693,-1.2850109,11.367588504011566,2.0724223263545594,walk
05/08/2020, 16:46:27,-10.538086,-2.663262,2.792593,1.0231428,-1.2636693,-1.2850109,11.222423748890243,2.0724223263545594,walk
05/08/2020, 16:46:27,-10.538086,-2.663262,2.792593,0.90952194,-1.2807735,-1.2581328,11.222423748890243,2.01258767421008,walk
05/08/2020, 16:46:27,-10.427916,-2.687212,2.7327175,0.90952194,-1.2807735,-1.2581328,11.109917933664812,2.01258767421008,walk
05/08/2020, 16:46:27,-10.427916,-2.687212,2.7327175,0.8166705,-1.2942125,-1.2336982,11.109917933664812,1.9656927356148042,walk
05/08/2020, 16:46:27,-10.30098,-2.7830129,2.7590625,0.8166705,-1.2942125,-1.2336982,11.021241657267037,1.9656927356148042,walk
05/08/2020, 16:46:27,-10.30098,-2.7830129,2.7590625,0.76047087,-1.2905474,-1.2092637,11.021241657267037,1.9251356081707176,walk
05/08/2020, 16:46:27,-10.047108,-2.8716285,2.7901978,0.76047087,-1.2905474,-1.2092637,10.815536393411357,1.9251356081707176,walk
05/08/2020, 16:46:28,-8.50711,-3.8655617,4.1242237,-0.407503,0.47607428,0.5121539,10.21384859414218,0.8093250657769036,walk
05/08/2020, 16:46:28,-8.47837,-3.8128712,4.133804,-0.407503,0.47607428,0.5121539,10.173940934308959,0.8093250657769036,walk
05/08/2020, 16:46:28,-8.47837,-3.8128712,4.133804,-0.4563722,0.38200107,0.45473266,10.173940934308959,0.7489874459934446,walk
05/08/2020, 16:46:28,-8.363408,-3.7625759,4.167334,-0.4563722,0.38200107,0.45473266,10.073244032006935,0.7489874459934446,walk
05/08/2020, 16:46:28,-8.363408,-3.7625759,4.167334,-0.52234566,0.2732671,0.40342,10.073244032006935,0.7143301693251636,walk
05/08/2020, 16:46:28,-8.236472,-3.7577858,4.2080493,-0.52234566,0.2732671,0.40342,9.983391514467616,0.7143301693251636,walk
05/08/2020, 16:46:28,-8.236472,-3.7577858,4.2080493,-0.58709735,0.1633114,0.35210735,9.983391514467616,0.7037993275030379,walk
05/08/2020, 16:46:28,-8.102351,-3.8056862,4.232,-0.58709735,0.1633114,0.35210735,9.901573887085279,0.7037993275030379,walk
05/08/2020, 16:46:28,-8.102351,-3.8056862,4.232,-0.62741446,0.06312955,0.29224256,9.901573887085279,0.6950107647649842,walk
05/08/2020, 16:46:28,-7.9873905,-3.9422023,4.3278003,-0.62741446,0.06312955,0.29224256,9.902990543697374,0.6950107647649842,walk
05/08/2020, 16:46:28,-7.9873905,-3.9422023,4.3278003,-0.61886233,-0.022391552,0.22993433,9.902990543697374,0.6605768422588234,walk
05/08/2020, 16:46:28,-7.9155397,-4.1218286,4.368516,-0.61886233,-0.022391552,0.22993433,9.936255421967072,0.6605768422588234,walk
05/08/2020, 16:46:28,-7.9155397,-4.1218286,4.368516,-0.55777586,-0.09447362,0.16518265,9.936255421967072,0.5893424113168985,walk
05/08/2020, 16:46:28,-7.829319,-4.3158255,4.478687,-0.55777586,-0.09447362,0.16518265,9.999161013151214,0.5893424113168985,walk
05/08/2020, 16:46:28,-7.829319,-4.3158255,4.478687,-0.4637026,-0.15678185,0.088213645,9.999161013151214,0.4973753991129507,walk
05/08/2020, 16:46:28,-7.814949,-4.4691067,4.5457473,-0.4637026,-0.15678185,0.088213645,10.085145573058222,0.4973753991129507,walk
05/08/2020, 16:46:28,-7.814949,-4.4691067,4.5457473,-0.36107728,-0.21053797,0.003914278,10.085145573058222,0.4179932531935255,walk
05/08/2020, 16:46:28,-7.8724294,-4.5002418,4.6750784,-0.36107728,-0.21053797,0.003914278,10.202140855600348,0.4179932531935255,walk
05/08/2020, 16:46:28,-7.8724294,-4.5002418,4.6750784,-0.26700404,-0.2594072,-0.08405028,10.202140855600348,0.381638180027768,walk
05/08/2020, 16:46:28,-8.066426,-4.481082,4.6990285,-0.26700404,-0.2594072,-0.08405028,10.35510488641514,0.381638180027768,walk
05/08/2020, 16:46:29,-11.326048,-2.8572583,2.6177564,-0.5235674,1.8749552,1.7412144,11.970627989990641,2.6117823961076456,walk
05/08/2020, 16:46:29,-11.421848,-2.9578493,2.6464968,-0.5235674,1.8749552,1.7412144,12.091792090507816,2.6117823961076456,walk
05/08/2020, 16:46:29,-11.421848,-2.9578493,2.6464968,-0.6652881,1.8590727,1.7106711,12.091792090507816,2.612499759412725,walk
05/08/2020, 16:46:29,-11.414663,-3.027305,2.675237,-0.6652881,1.8590727,1.7106711,12.108509658971366,2.612499759412725,walk
05/08/2020, 16:46:29,-11.414663,-3.027305,2.675237,-0.7837959,1.8505206,1.6789061,12.108509658971366,2.6186806160944665,walk
05/08/2020, 16:46:29,-11.481724,-3.1087356,2.7111623,-0.7837959,1.8505206,1.6789061,12.200189303753929,2.6186806160944665,walk
05/08/2020, 16:46:29,-11.481724,-3.1087356,2.7111623,-0.87909085,1.8456336,1.6459194,12.200189303753929,2.6245409134342577,walk
05/08/2020, 16:46:29,-11.64698,-3.2811768,2.811753,-0.87909085,1.8456336,1.6459194,12.422730220473042,2.6245409134342577,walk
05/08/2020, 16:46:29,-11.64698,-3.2811768,2.811753,-0.94506425,1.839525,1.6227065,12.422730220473042,2.6287211888932265,walk
05/08/2020, 16:46:29,-11.833792,-3.4057178,2.9817994,-0.94506425,1.839525,1.6227065,12.669990856139966,2.6287211888932265,walk
05/08/2020, 16:46:29,-11.833792,-3.4057178,2.9817994,-0.9988204,1.8334163,1.6080458,12.669990856139966,2.635311949860719,walk
05/08/2020, 16:46:29,-12.078084,-3.6045046,3.1302907,-0.9988204,1.8334163,1.6080458,12.987351014811413,2.635311949860719,walk
05/08/2020, 16:46:29,-12.078084,-3.6045046,3.1302907,-1.0489113,1.8187556,1.5909415,12.987351014811413,2.6342327202631726,walk
05/08/2020, 16:46:29,-12.408597,-3.661985,3.2236965,-1.0489113,1.8187556,1.5909415,13.333252859390726,2.6342327202631726,walk
05/08/2020, 16:46:29,-12.408597,-3.661985,3.2236965,-1.0990022,1.7882123,1.5762808,13.333252859390726,2.6249134115047803,walk
05/08/2020, 16:46:29,-12.636124,-3.7482057,3.2332766,-1.0990022,1.7882123,1.5762808,13.571099600696792,2.6249134115047803,walk
05/08/2020, 16:46:29,-12.636124,-3.7482057,3.2332766,-1.1564236,1.7393432,1.5689504,13.571099600696792,2.61232377861001,walk
05/08/2020, 16:46:29,-12.691209,-3.8679566,3.2500417,-1.1564236,1.7393432,1.5689504,13.659818504087347,2.61232377861001,walk
05/08/2020, 16:46:29,-12.691209,-3.8679566,3.2500417,-1.2162883,1.6819218,1.5689504,13.659818504087347,2.6018885018012954,walk
05/08/2020, 16:46:29,-12.545113,-4.054768,3.300337,-1.2162883,1.6819218,1.5689504,13.590924156864064,2.6018885018012954,walk
05/08/2020, 16:46:30,-7.2185893,-2.562671,2.1219873,-0.31465152,-0.5941612,-0.637494,7.948468042847955,0.926515925424066,walk
05/08/2020, 16:46:30,-7.094048,-2.5698562,2.196233,-0.31465152,-0.5941612,-0.637494,7.858315189292878,0.926515925424066,walk
05/08/2020, 16:46:30,-7.094048,-2.5698562,2.196233,-0.3012125,-0.5037532,-0.5837379,7.858315189292878,0.8277959790288992,walk
05/08/2020, 16:46:30,-7.038963,-2.572251,2.304009,-0.3012125,-0.5037532,-0.5837379,7.8404037392636186,0.8277959790288992,walk
05/08/2020, 16:46:30,-7.038963,-2.572251,2.304009,-0.29021692,-0.40967998,-0.52142966,7.8404037392636186,0.723845588295933,walk
05/08/2020, 16:46:30,-6.974297,-2.5147705,2.3375392,-0.29021692,-0.40967998,-0.52142966,7.773607881475423,0.723845588295933,walk
05/08/2020, 16:46:30,-6.974297,-2.5147705,2.3375392,-0.28533,-0.32293716,-0.4640083,7.773607881475423,0.6332498094229184,walk
05/08/2020, 16:46:30,-6.9144216,-2.4740553,2.304009,-0.28533,-0.32293716,-0.4640083,7.696663715998255,0.6332498094229184,walk
05/08/2020, 16:46:30,-6.9144216,-2.4740553,2.304009,-0.28533,-0.24352469,-0.40170008,7.696663715998255,0.5496184438023696,walk
05/08/2020, 16:46:30,-6.9000516,-2.5099807,2.318379,-0.28533,-0.24352469,-0.40170008,7.699714010595028,0.5496184438023696,walk
05/08/2020, 16:46:30,-6.9000516,-2.5099807,2.318379,-0.2938821,-0.16166878,-0.32473108,7.699714010595028,0.4668551796738159,walk
05/08/2020, 16:46:30,-6.8952613,-2.548301,2.2728736,-0.2938821,-0.16166878,-0.32473108,7.6944408959722965,0.4668551796738159,walk
05/08/2020, 16:46:30,-6.8952613,-2.548301,2.2728736,-0.29999077,-0.08225632,-0.24287519,7.6944408959722965,0.39465038064992897,walk
05/08/2020, 16:46:30,-6.844966,-2.5147705,2.2177882,-0.29999077,-0.08225632,-0.24287519,7.622087243087547,0.39465038064992897,walk
05/08/2020, 16:46:30,-6.844966,-2.5147705,2.2177882,-0.29510385,0.004486508,-0.15613236,7.622087243087547,0.33389178221450344,walk
05/08/2020, 16:46:30,-6.8018556,-2.565066,2.1339624,-0.29510385,0.004486508,-0.15613236,7.576186290088504,0.33389178221450344,walk
05/08/2020, 16:46:30,-6.8018556,-2.565066,2.1339624,-0.28410828,0.09611626,-0.065724336,7.576186290088504,0.3070432202131733,walk
05/08/2020, 16:46:30,-6.710845,-2.5890162,2.1291726,-0.28410828,0.09611626,-0.065724336,7.501454606451992,0.3070432202131733,walk
05/08/2020, 16:46:30,-6.710845,-2.5890162,2.1291726,-0.26700404,0.19018948,0.027127149,7.501454606451992,0.3289362851615324,walk
05/08/2020, 16:46:30,-6.67013,-2.5866213,2.1555176,-0.26700404,0.19018948,0.027127149,7.471780037424203,0.3289362851615324,walk
05/08/2020, 16:46:31,-12.293635,-4.4188113,2.9338992,2.4550104,-1.1402745,-1.7724812,13.38906749435716,3.2355821331529,walk
05/08/2020, 16:46:31,-12.430152,-4.157754,2.816543,2.4550104,-1.1402745,-1.7724812,13.40628621749643,3.2355821331529,walk
05/08/2020, 16:46:31,-12.430152,-4.157754,2.816543,2.4110281,-1.2074697,-1.7981375,13.40628621749643,3.241039715572867,walk
05/08/2020, 16:46:31,-12.490027,-3.9278321,2.7614577,2.4110281,-1.2074697,-1.7981375,13.381117251055556,3.241039715572867,walk
05/08/2020, 16:46:31,-12.490027,-3.9278321,2.7614577,2.281525,-1.2722213,-1.809133,13.381117251055556,3.1775565079425325,walk
05/08/2020, 16:46:31,-12.494818,-3.6068995,2.5818312,2.281525,-1.2722213,-1.809133,13.258810151534522,3.1775565079425325,walk
05/08/2020, 16:46:31,-12.494818,-3.6068995,2.5818312,2.0933785,-1.3198688,-1.7932506,13.258810151534522,3.056147077405128,walk
05/08/2020, 16:46:31,-12.384646,-3.3123121,2.2968237,2.0933785,-1.3198688,-1.7932506,13.024065331375104,3.056147077405128,walk
05/08/2020, 16:46:31,-12.384646,-3.3123121,2.2968237,1.8783538,-1.3589642,-1.7639291,13.024065331375104,2.9131499801861964,walk
05/08/2020, 16:46:31,-12.22418,-2.9578493,2.1579127,1.8783538,-1.3589642,-1.7639291,12.760722617229455,2.9131499801861964,walk
05/08/2020, 16:46:31,-12.22418,-2.9578493,2.1579127,1.6413382,-1.3980596,-1.7468249,12.760722617229455,2.7748799865135836,walk
05/08/2020, 16:46:31,-11.898458,-2.7638526,1.9926564,1.6413382,-1.3980596,-1.7468249,12.37670602500368,2.7748799865135836,walk
05/08/2020, 16:46:31,-11.898458,-2.7638526,1.9926564,1.398214,-1.4200507,-1.7407162,12.37670602500368,2.6460611105679,walk
05/08/2020, 16:46:31,-11.663746,-2.680027,2.059717,1.398214,-1.4200507,-1.7407162,12.143638111896708,2.6460611105679,walk
05/08/2020, 16:46:31,-11.663746,-2.680027,2.059717,1.2015154,-1.4334898,-1.723612,12.143638111896708,2.5434957255373396,walk
05/08/2020, 16:46:31,-11.371553,-2.6321266,2.2800586,1.2015154,-1.4334898,-1.723612,11.89281231701297,2.5434957255373396,walk
05/08/2020, 16:46:31,-11.371553,-2.6321266,2.2800586,1.0646816,-1.4395984,-1.6991774,11.89281231701297,2.468439683164976,walk
05/08/2020, 16:46:31,-11.088941,-2.7015822,2.4453151,1.0646816,-1.4395984,-1.6991774,11.672305534025814,2.468439683164976,walk
05/08/2020, 16:46:31,-11.088941,-2.7015822,2.4453151,0.9571694,-1.4371549,-1.6771863,11.672305534025814,2.4071853233690113,walk
05/08/2020, 16:46:31,-10.803933,-2.7566676,2.6081765,0.9571694,-1.4371549,-1.6771863,11.451059872489322,2.4071853233690113,walk
05/08/2020, 16:46:32,-8.296348,-3.7050953,3.784131,-0.095961854,0.02281246,0.27147317,9.842599388434952,0.28883692176510106,walk
05/08/2020, 16:46:32,-8.262817,-3.7434156,3.767366,-0.095961854,0.02281246,0.27147317,9.822441523417762,0.28883692176510106,walk
05/08/2020, 16:46:32,-8.262817,-3.7434156,3.767366,-0.060531683,-0.02116982,0.20672147,9.822441523417762,0.21643939579352772,walk
05/08/2020, 16:46:32,-8.198153,-3.8655617,3.8080812,-0.060531683,-0.02116982,0.20672147,9.831264139925398,0.21643939579352772,walk
05/08/2020, 16:46:32,-8.198153,-3.8655617,3.8080812,-0.025101518,-0.056599993,0.14441323,9.831264139925398,0.15712678722763668,walk
05/08/2020, 16:46:32,-8.190968,-3.781736,3.767366,-0.025101518,-0.056599993,0.14441323,9.776835992803175,0.15712678722763668,walk
05/08/2020, 16:46:32,-8.190968,-3.781736,3.767366,0.009106924,-0.09325189,0.07843981,9.776835992803175,0.12219515135023253,walk
05/08/2020, 16:46:32,-8.238868,-3.7098854,3.7506008,0.009106924,-0.09325189,0.07843981,9.7831077786938,0.12219515135023253,walk
05/08/2020, 16:46:32,-8.238868,-3.7098854,3.7506008,0.034763254,-0.1384559,0.008801198,9.7831077786938,0.14302440524584095,walk
05/08/2020, 16:46:32,-8.279583,-3.7697608,3.7003052,0.034763254,-0.1384559,0.008801198,9.821143002165241,0.14302440524584095,walk
05/08/2020, 16:46:32,-8.279583,-3.7697608,3.7003052,0.064084776,-0.18610337,-0.064502604,9.821143002165241,0.2071277629186606,walk
05/08/2020, 16:46:32,-8.375383,-3.8104763,3.5901344,0.064084776,-0.18610337,-0.064502604,9.877036056028007,0.2071277629186606,walk
05/08/2020, 16:46:32,-8.375383,-3.8104763,3.5901344,0.10073668,-0.22886392,-0.1341412,9.877036056028007,0.2837612334648597,walk
05/08/2020, 16:46:32,-8.408914,-3.906277,3.6092947,0.10073668,-0.22886392,-0.1341412,9.949665098589508,0.2837612334648597,walk
05/08/2020, 16:46:32,-8.408914,-3.906277,3.6092947,0.15815797,-0.26918104,-0.20377982,9.949665098589508,0.37282514992790833,walk
05/08/2020, 16:46:32,-8.4376545,-4.033213,3.6045046,0.15815797,-0.26918104,-0.20377982,10.02263812114618,0.37282514992790833,walk
05/08/2020, 16:46:32,-8.4376545,-4.033213,3.6045046,0.23268351,-0.30583292,-0.26975325,10.02263812114618,0.46951273319304904,walk
05/08/2020, 16:46:32,-8.389753,-4.0906935,3.6284547,0.23268351,-0.30583292,-0.26975325,10.014360570375658,0.46951273319304904,walk
05/08/2020, 16:46:32,-8.389753,-4.0906935,3.6284547,0.32309154,-0.33148926,-0.3381701,10.014360570375658,0.5732645968558332,walk
05/08/2020, 16:46:32,-8.4304695,-4.0978785,3.5901344,0.32309154,-0.33148926,-0.3381701,10.03765355709678,0.5732645968558332,walk
05/08/2020, 16:46:33,-9.992022,-3.9853127,2.818938,-1.3641176,0.8218239,1.3979082,11.12068449920666,2.119046664829732,walk
05/08/2020, 16:46:33,-10.104588,-4.0739284,2.818938,-1.3641176,0.8218239,1.3979082,11.253710208174315,2.119046664829732,walk
05/08/2020, 16:46:33,-10.104588,-4.0739284,2.818938,-1.2346143,0.8792452,1.4113473,11.253710208174315,2.071049403109999,walk
05/08/2020, 16:46:33,-10.217154,-4.1002736,2.804568,-1.2346143,0.8792452,1.4113473,11.360813011300552,2.071049403109999,walk
05/08/2020, 16:46:33,-10.217154,-4.1002736,2.804568,-1.1038891,0.9195623,1.4015734,11.360813011300552,2.0071307878865077,walk
05/08/2020, 16:46:33,-10.188414,-4.133804,2.675237,-1.1038891,0.9195623,1.4015734,11.315873762273156,2.0071307878865077,walk
05/08/2020, 16:46:33,-10.188414,-4.133804,2.675237,-0.96583366,0.94644034,1.3844692,11.315873762273156,1.9352877856538409,walk
05/08/2020, 16:46:33,-10.032737,-4.160149,2.6656568,-0.96583366,0.94644034,1.3844692,11.183397246679421,1.9352877856538409,walk
05/08/2020, 16:46:33,-10.032737,-4.160149,2.6656568,-0.8131174,0.98431396,1.3734736,11.183397246679421,1.8752236438616414,walk
05/08/2020, 16:46:33,-9.80521,-4.2128396,2.7901978,-0.8131174,0.98431396,1.3734736,11.030655779809756,1.8752236438616414,walk
05/08/2020, 16:46:33,-9.80521,-4.2128396,2.7901978,-0.63230133,1.0392919,1.3551477,11.030655779809756,1.8210870054694865,walk
05/08/2020, 16:46:33,-9.565708,-4.267925,2.9865894,-0.63230133,1.0392919,1.3551477,10.892092132346553,1.8210870054694865,walk
05/08/2020, 16:46:33,-9.565708,-4.267925,2.9865894,-0.41727686,1.1101521,1.3282696,10.892092132346553,1.7806902738326695,walk
05/08/2020, 16:46:33,-9.532178,-4.30385,3.2093263,-0.41727686,1.1101521,1.3282696,10.940078491737394,1.7806902738326695,walk
05/08/2020, 16:46:33,-9.532178,-4.30385,3.2093263,-0.18514815,1.1993384,1.3001698,10.940078491737394,1.7785201986482166,walk
05/08/2020, 16:46:33,-9.671089,-4.2990603,3.271597,-0.18514815,1.1993384,1.3001698,11.077690732246536,1.7785201986482166,walk
05/08/2020, 16:46:33,-9.671089,-4.2990603,3.271597,0.024989415,1.2787509,1.2684048,11.077690732246536,1.8012992998907729,walk
05/08/2020, 16:46:33,-9.968072,-4.277505,3.168611,0.024989415,1.2787509,1.2684048,11.300424880737967,1.8012992998907729,walk
05/08/2020, 16:46:33,-9.968072,-4.277505,3.168611,0.18503605,1.3105159,1.2280878,11.300424880737967,1.8055164953115692,walk
05/08/2020, 16:46:33,-10.260264,-4.176914,3.159031,0.18503605,1.3105159,1.2280878,11.519510153095514,1.8055164953115692,walk
05/08/2020, 16:46:34,-7.5323367,-2.6656568,2.0142114,0.037206717,0.1791939,0.27880353,8.240077073229724,0.333505922128684,walk
05/08/2020, 16:46:34,-7.549102,-2.6441016,2.0573218,0.037206717,0.1791939,0.27880353,8.259103143972517,0.333505922128684,walk
05/08/2020, 16:46:34,-7.549102,-2.6441016,2.0573218,0.016437303,0.25616288,0.3423335,8.259103143972517,0.4278806249394273,walk
05/08/2020, 16:46:34,-7.678433,-2.6369166,2.095642,0.016437303,0.25616288,0.3423335,8.384710940609212,0.4278806249394273,walk
05/08/2020, 16:46:34,-7.678433,-2.6369166,2.095642,-0.0104407575,0.32091457,0.40097654,8.384710940609212,0.5136899385564352,walk
05/08/2020, 16:46:34,-7.774234,-2.579436,2.1124072,-0.0104407575,0.32091457,0.40097654,8.45898729607086,0.5136899385564352,walk
05/08/2020, 16:46:34,-7.774234,-2.579436,2.1124072,-0.042205736,0.3795576,0.45351094,8.45898729607086,0.5928890924075682,walk
05/08/2020, 16:46:34,-7.7526784,-2.5363257,2.090852,-0.042205736,0.3795576,0.45351094,8.420726363323407,0.5928890924075682,walk
05/08/2020, 16:46:34,-7.7526784,-2.5363257,2.090852,-0.07763591,0.4357572,0.5060453,8.420726363323407,0.6723046109812434,walk
05/08/2020, 16:46:34,-7.709568,-2.555486,2.0980372,-0.07763591,0.4357572,0.5060453,8.388665441869383,0.6723046109812434,walk
05/08/2020, 16:46:34,-7.709568,-2.555486,2.0980372,-0.11062262,0.49440023,0.5585797,8.388665441869383,0.7541088897065747,walk
05/08/2020, 16:46:34,-7.719148,-2.6105714,2.1579127,-0.11062262,0.49440023,0.5585797,8.429526594629396,0.7541088897065747,walk
05/08/2020, 16:46:34,-7.719148,-2.6105714,2.1579127,-0.1301703,0.55670846,0.60989237,8.429526594629396,0.8359648988168779,walk
05/08/2020, 16:46:34,-7.7335186,-2.703977,2.208208,-0.1301703,0.55670846,0.60989237,8.484985862512143,0.8359648988168779,walk
05/08/2020, 16:46:34,-7.7335186,-2.703977,2.208208,-0.13627896,0.6324557,0.661205,8.484985862512143,0.9250752502845382,walk
05/08/2020, 16:46:34,-7.8652444,-2.7351124,2.2489235,-0.13627896,0.6324557,0.661205,8.625576292562595,0.9250752502845382,walk
05/08/2020, 16:46:34,-7.8652444,-2.7351124,2.2489235,-0.12894857,0.70942473,0.7174046,8.625576292562595,1.017143329467022,walk
05/08/2020, 16:46:34,-8.210127,-2.799778,2.2896388,-0.12894857,0.70942473,0.7174046,8.971476229562764,1.017143329467022,walk
05/08/2020, 16:46:34,-8.210127,-2.799778,2.2896388,-0.10940089,0.7815068,0.77238244,8.971476229562764,1.1042173825445185,walk
05/08/2020, 16:46:34,-8.53585,-2.8380983,2.311194,-0.10940089,0.7815068,0.77238244,9.287472596723028,1.1042173825445185,walk
05/08/2020, 16:46:35,-10.521321,-3.796106,3.0416749,0.7494753,-1.1512702,-1.4841529,11.591393758252398,2.0223367810836956,walk
05/08/2020, 16:46:35,-10.521321,-3.796106,3.0416749,0.81178355,-1.1573788,-1.4511662,11.591393758252398,2.025932232082307,walk
05/08/2020, 16:46:35,-10.454261,-3.6164796,2.8931837,0.81178355,-1.1573788,-1.4511662,11.434203354051078,2.025932232082307,walk
05/08/2020, 16:46:35,-10.454261,-3.6164796,2.8931837,0.80934006,-1.1586004,-1.4120709,11.434203354051078,1.9978314436118,walk
05/08/2020, 16:46:35,-10.447076,-3.4488282,2.7518775,0.80934006,-1.1586004,-1.4120709,11.340574932948961,1.9978314436118,walk
05/08/2020, 16:46:35,-10.447076,-3.4488282,2.7518775,0.7543622,-1.1695961,-1.3693103,11.340574932948961,1.9524415320254596,walk
05/08/2020, 16:46:35,-10.427916,-3.1207106,2.5171657,0.7543622,-1.1695961,-1.3693103,11.172125173129583,1.9524415320254596,walk
05/08/2020, 16:46:35,-10.427916,-3.1207106,2.5171657,0.6651759,-1.1891438,-1.3289932,11.172125173129583,1.9033509525811603,walk
05/08/2020, 16:46:35,-10.327325,-3.056045,2.3327491,0.6651759,-1.1891438,-1.3289932,11.019744497493527,1.9033509525811603,walk
05/08/2020, 16:46:35,-10.327325,-3.056045,2.3327491,0.5625506,-1.2050263,-1.2947848,11.019744497493527,1.8560762724164548,walk
05/08/2020, 16:46:35,-10.28661,-2.9746144,2.196233,0.5625506,-1.2050263,-1.2947848,10.930970146561336,1.8560762724164548,walk
05/08/2020, 16:46:35,-10.28661,-2.9746144,2.196233,0.46969914,-1.2074697,-1.2630198,10.930970146561336,1.8093698855024651,walk
05/08/2020, 16:46:35,-10.1189575,-2.9961696,2.1459377,0.46969914,-1.2074697,-1.2630198,10.769186686492581,1.8093698855024651,walk
05/08/2020, 16:46:35,-10.1189575,-2.9961696,2.1459377,0.402504,-1.1952524,-1.2312548,10.769186686492581,1.7625624056197413,walk
05/08/2020, 16:46:35,-9.992022,-2.9865894,2.2273684,0.402504,-1.1952524,-1.2312548,10.664022744290374,1.7625624056197413,walk
05/08/2020, 16:46:35,-9.992022,-2.9865894,2.2273684,0.35119134,-1.1708177,-1.2080419,10.664022744290374,1.7185792881296416,walk
05/08/2020, 16:46:35,-9.850716,-2.907554,2.2537134,0.35119134,-1.1708177,-1.2080419,10.515212421200884,1.7185792881296416,walk
05/08/2020, 16:46:35,-9.850716,-2.907554,2.2537134,0.29865694,-1.1390527,-1.1884942,10.515212421200884,1.6730677239155858,walk
05/08/2020, 16:46:35,-9.764495,-2.811753,2.2369483,0.29865694,-1.1390527,-1.1884942,10.404578472055917,1.6730677239155858,walk
05/08/2020, 16:46:35,-9.764495,-2.811753,2.2369483,0.23390524,-1.1170616,-1.1689466,10.404578472055917,1.6336996427435797,walk
05/08/2020, 16:46:36,-8.600515,-3.776946,4.071533,-0.048314385,-0.2887287,-0.11581527,10.237752134977042,0.31482014890034155,walk
05/08/2020, 16:46:36,-8.52627,-3.8224514,4.0667434,-0.048314385,-0.2887287,-0.11581527,10.190525729327346,0.31482014890034155,walk
05/08/2020, 16:46:36,-8.52627,-3.8224514,4.0667434,-0.042205736,-0.35470214,-0.18178868,10.190525729327346,0.40080177266089345,walk
05/08/2020, 16:46:36,-8.49753,-3.8703518,4.018843,-0.042205736,-0.35470214,-0.18178868,10.165566352492812,0.40080177266089345,walk
05/08/2020, 16:46:36,-8.49753,-3.8703518,4.018843,-0.018992865,-0.40723652,-0.25387076,10.165566352492812,0.4802631255407848,walk
05/08/2020, 16:46:36,-8.566985,-3.8823268,3.9805226,-0.018992865,-0.40723652,-0.25387076,10.213239268453773,0.4802631255407848,walk
05/08/2020, 16:46:36,-8.566985,-3.8823268,3.9805226,0.022545954,-0.45244053,-0.32350937,10.213239268453773,0.5566588387367691,walk
05/08/2020, 16:46:36,-8.62207,-3.894302,3.9134622,0.022545954,-0.45244053,-0.32350937,10.238206375534308,0.5566588387367691,walk
05/08/2020, 16:46:36,-8.62207,-3.894302,3.9134622,0.070193425,-0.49031416,-0.39559144,10.238206375534308,0.6338987884169496,walk
05/08/2020, 16:46:36,-8.715476,-3.9445972,3.8272414,0.070193425,-0.49031416,-0.39559144,10.303744312018761,0.6338987884169496,walk
05/08/2020, 16:46:36,-8.715476,-3.9445972,3.8272414,0.12883647,-0.53063124,-0.46156487,10.303744312018761,0.7149898466142429,walk
05/08/2020, 16:46:36,-8.902288,-3.9637575,3.8224514,0.12883647,-0.53063124,-0.46156487,10.467724079165485,0.7149898466142429,walk
05/08/2020, 16:46:36,-8.902288,-3.9637575,3.8224514,0.1874795,-0.57094836,-0.5275383,10.467724079165485,0.799641951997985,walk
05/08/2020, 16:46:36,-9.026829,-4.028423,3.7985013,0.1874795,-0.57094836,-0.5275383,10.589638325063646,0.799641951997985,walk
05/08/2020, 16:46:36,-9.026829,-4.028423,3.7985013,0.25833985,-0.61615235,-0.59229,10.589638325063646,0.8928553176420305,walk
05/08/2020, 16:46:36,-9.10347,-4.0763235,3.8080812,0.25833985,-0.61615235,-0.59229,10.67665952824946,0.8928553176420305,walk
05/08/2020, 16:46:36,-9.10347,-4.0763235,3.8080812,0.33042192,-0.6589129,-0.65459824,10.67665952824946,0.9858213351883803,walk
05/08/2020, 16:46:36,-9.208851,-4.2032595,3.8176613,0.33042192,-0.6589129,-0.65459824,10.818727375192134,0.9858213351883803,walk
05/08/2020, 16:46:36,-9.208851,-4.2032595,3.8176613,0.40372574,-0.6967865,-0.7132413,10.818727375192134,1.0757411661236083,walk
05/08/2020, 16:46:36,-9.263936,-4.267925,3.796106,0.40372574,-0.6967865,-0.7132413,10.883295204282762,1.0757411661236083,walk
05/08/2020, 16:46:37,-10.31535,-3.9685476,3.412903,-0.42094204,1.0331832,1.1608926,11.567355541258738,1.6100718622954255,walk
05/08/2020, 16:46:37,-10.063872,-3.9901028,3.4488282,-0.42094204,1.0331832,1.1608926,11.36208003028774,1.6100718622954255,walk
05/08/2020, 16:46:37,-10.063872,-3.9901028,3.4488282,-0.37329456,1.0148572,1.1193538,11.36208003028774,1.55635367983515,walk
05/08/2020, 16:46:37,-9.829161,-3.9637575,3.4560134,-0.37329456,1.0148572,1.1193538,11.14754692379474,1.55635367983515,walk
05/08/2020, 16:46:37,-9.829161,-3.9637575,3.4560134,-0.3219819,1.0038617,1.0741497,11.14754692379474,1.5050608725421553,walk
05/08/2020, 16:46:37,-9.697434,-3.9206471,3.4751735,-0.3219819,1.0038617,1.0741497,11.022183954834862,1.5050608725421553,walk
05/08/2020, 16:46:37,-9.697434,-3.9206471,3.4751735,-0.28288653,0.99897474,1.0399413,11.022183954834862,1.4695078270944717,walk
05/08/2020, 16:46:37,-9.651929,-3.8535867,3.5087037,-0.28288653,0.99897474,1.0399413,10.969086720872589,1.4695078270944717,walk
05/08/2020, 16:46:37,-9.651929,-3.8535867,3.5087037,-0.25723022,0.9940878,1.0069546,10.969086720872589,1.4381708657130523,walk
05/08/2020, 16:46:37,-9.81958,-3.779341,3.3554225,-0.25723022,0.9940878,1.0069546,11.043841329186174,1.4381708657130523,walk
05/08/2020, 16:46:37,-9.81958,-3.779341,3.3554225,-0.24379121,0.97087497,0.96785927,11.043841329186174,1.3924022098483275,walk
05/08/2020, 16:46:37,-9.968072,-3.8320315,3.283572,-0.24379121,0.97087497,0.96785927,11.172679548234873,1.3924022098483275,walk
05/08/2020, 16:46:37,-9.968072,-3.8320315,3.283572,-0.23768254,0.9158971,0.9250987,11.172679548234873,1.3233170708310071,walk
05/08/2020, 16:46:37,-9.951306,-3.8056862,3.1997461,-0.23768254,0.9158971,0.9250987,11.124303167610604,1.3233170708310071,walk
05/08/2020, 16:46:37,-9.951306,-3.8056862,3.1997461,-0.24379121,0.8560323,0.8860033,11.124303167610604,1.2558771225596934,walk
05/08/2020, 16:46:37,-9.75252,-3.788921,3.2117214,-0.24379121,0.8560323,0.8860033,10.944529063136764,1.2558771225596934,walk
05/08/2020, 16:46:37,-9.75252,-3.788921,3.2117214,-0.25478676,0.8071631,0.8481297,10.944529063136764,1.1982289282932086,walk
05/08/2020, 16:46:37,-9.484278,-3.7290456,3.293152,-0.25478676,0.8071631,0.8481297,10.70990924282165,1.1982289282932086,walk
05/08/2020, 16:46:37,-9.484278,-3.7290456,3.293152,-0.2682258,0.7692895,0.80659086,10.70990924282165,1.146446774338489,walk
05/08/2020, 16:46:37,-9.359736,-3.7601807,3.3985329,-0.2682258,0.7692895,0.80659086,10.64394902798289,1.146446774338489,walk
05/08/2020, 16:46:38,-7.549102,-2.8380983,2.43813,-0.023879787,0.58847344,0.76016515,8.425450595727442,0.9616248206364534,walk
05/08/2020, 16:46:38,-7.805369,-2.8788135,2.44292,-0.023879787,0.58847344,0.76016515,8.670594492016658,0.9616248206364534,walk
05/08/2020, 16:46:38,-7.805369,-2.8788135,2.44292,-0.018992865,0.66055554,0.84079933,8.670594492016658,1.0694100562895996,walk
05/08/2020, 16:46:38,-8.095166,-2.9794044,2.3926246,-0.018992865,0.66055554,0.84079933,8.951715999636049,1.0694100562895996,walk
05/08/2020, 16:46:38,-8.095166,-2.9794044,2.3926246,-0.0067755673,0.721642,0.9165466,8.951715999636049,1.1665636496433573,walk
05/08/2020, 16:46:38,-8.320298,-3.0201197,2.3566992,-0.0067755673,0.721642,0.9165466,9.159831663722855,1.1665636496433573,walk
05/08/2020, 16:46:38,-8.320298,-3.0201197,2.3566992,0.015215574,0.77539814,0.9861852,9.159831663722855,1.2546055223655743,walk
05/08/2020, 16:46:38,-8.416099,-3.027305,2.2656887,0.015215574,0.77539814,0.9861852,9.226518061141052,1.2546055223655743,walk
05/08/2020, 16:46:38,-8.416099,-3.027305,2.2656887,0.046980552,0.83037597,1.0387195,9.226518061141052,1.3306651325573136,walk
05/08/2020, 16:46:38,-8.490345,-3.0943654,2.2872438,0.046980552,0.83037597,1.0387195,9.321616791545734,1.3306651325573136,walk
05/08/2020, 16:46:38,-8.490345,-3.0943654,2.2872438,0.08241072,0.8902408,1.0802584,9.321616791545734,1.4022404691976993,walk
05/08/2020, 16:46:38,-8.487949,-3.0656252,2.3375392,0.08241072,0.8902408,1.0802584,9.322415557856619,1.4022404691976993,walk
05/08/2020, 16:46:38,-8.487949,-3.0656252,2.3375392,0.120284356,0.9562142,1.118132,9.322415557856619,1.4761548229405683,walk
05/08/2020, 16:46:38,-8.52627,-3.0728102,2.4812403,0.120284356,0.9562142,1.118132,9.396594823341054,1.4761548229405683,walk
05/08/2020, 16:46:38,-8.52627,-3.0728102,2.4812403,0.15327106,1.0270746,1.1572274,9.396594823341054,1.5548470827958196,walk
05/08/2020, 16:46:38,-8.784932,-3.05844,2.6464968,0.15327106,1.0270746,1.1572274,9.671247740699883,1.5548470827958196,walk
05/08/2020, 16:46:38,-8.784932,-3.05844,2.6464968,0.17648393,1.0844958,1.1914358,9.671247740699883,1.6207396394632796,walk
05/08/2020, 16:46:38,-9.261541,-2.9937747,2.7782228,0.17648393,1.0844958,1.1914358,10.122122162729248,1.6207396394632796,walk
05/08/2020, 16:46:38,-9.261541,-2.9937747,2.7782228,0.16060144,1.1089305,1.226866,10.122122162729248,1.6615413941464205,walk
05/08/2020, 16:46:38,-9.83874,-2.7590625,2.811753,0.16060144,1.1089305,1.226866,10.59807495801643,1.6615413941464205,walk
05/08/2020, 16:46:39,-9.8866415,-2.8093581,2.3638844,0.29010484,-1.0596404,-1.5354656,10.54637961250444,1.8880289225296125,walk
05/08/2020, 16:46:39,-9.730965,-2.811753,2.1818628,0.29010484,-1.0596404,-1.5354656,10.3613779859656,1.8880289225296125,walk
05/08/2020, 16:46:39,-9.730965,-2.811753,2.1818628,0.2607833,-1.0303189,-1.5000354,10.3613779859656,1.83838817976,walk
05/08/2020, 16:46:39,-9.587264,-2.9027638,2.1171973,0.2607833,-1.0303189,-1.5000354,10.238368737652516,1.83838817976,walk
05/08/2020, 16:46:39,-9.587264,-2.9027638,2.1171973,0.25345293,-0.99000174,-1.465827,10.238368737652516,1.7868941174340185,walk
05/08/2020, 16:46:39,-9.364527,-2.9530592,2.1411476,0.25345293,-0.99000174,-1.465827,10.049847409144629,1.7868941174340185,walk
05/08/2020, 16:46:39,-9.364527,-2.9530592,2.1411476,0.280331,-0.943576,-1.4267316,10.049847409144629,1.7333447747544113,walk
05/08/2020, 16:46:39,-9.192085,-2.8907888,2.2800586,0.280331,-0.943576,-1.4267316,9.902007812049554,1.7333447747544113,walk
05/08/2020, 16:46:39,-9.192085,-2.8907888,2.2800586,0.3292002,-0.89104164,-1.3839711,9.902007812049554,1.6786017892935057,walk
05/08/2020, 16:46:39,-8.986114,-2.8692336,2.339934,0.3292002,-0.89104164,-1.3839711,9.718952095951034,1.6786017892935057,walk
05/08/2020, 16:46:39,-8.986114,-2.8692336,2.339934,0.36340865,-0.83606374,-1.3424323,9.718952095951034,1.6227115597963926,walk
05/08/2020, 16:46:39,-8.823253,-2.7758276,2.435735,0.36340865,-0.83606374,-1.3424323,9.564926129785398,1.6227115597963926,walk
05/08/2020, 16:46:39,-8.823253,-2.7758276,2.435735,0.3780694,-0.78597283,-1.2947848,9.564926129785398,1.5611397774447757,walk
05/08/2020, 16:46:39,-8.727451,-2.684817,2.327959,0.3780694,-0.78597283,-1.2947848,9.423165218712219,1.5611397774447757,walk
05/08/2020, 16:46:39,-8.727451,-2.684817,2.327959,0.37318248,-0.74199057,-1.2385852,9.423165218712219,1.4912774864492788,walk
05/08/2020, 16:46:39,-8.679551,-2.6345215,2.1243825,0.37318248,-0.74199057,-1.2385852,9.316024482820314,1.4912774864492788,walk
05/08/2020, 16:46:39,-8.679551,-2.6345215,2.1243825,0.3499696,-0.70411694,-1.1738335,9.316024482820314,1.4128497601195893,walk
05/08/2020, 16:46:39,-8.56459,-2.560276,2.0333717,0.3499696,-0.70411694,-1.1738335,9.167432760656693,1.4128497601195893,walk
05/08/2020, 16:46:39,-8.56459,-2.560276,2.0333717,0.3169829,-0.66746503,-1.1078601,9.167432760656693,1.3316687647339684,walk
05/08/2020, 16:46:39,-8.485555,-2.6105714,1.9375709,0.3169829,-0.66746503,-1.1078601,9.087018352803417,1.3316687647339684,walk
05/08/2020, 16:46:40,-9.110655,-4.0356083,3.396138,0.33408713,-0.69923,-0.9038312,10.527293988785331,1.190566098955788,walk
05/08/2020, 16:46:40,-9.14179,-4.174519,3.4655933,0.33408713,-0.69923,-0.9038312,10.630582209775538,1.190566098955788,walk
05/08/2020, 16:46:40,-9.14179,-4.174519,3.4655933,0.4513732,-0.70900387,-0.96125245,10.630582209775538,1.276883124023905,walk
05/08/2020, 16:46:40,-9.230406,-4.3325906,3.5566041,0.4513732,-0.70900387,-0.96125245,10.799128000120312,1.276883124023905,walk
05/08/2020, 16:46:40,-9.230406,-4.3325906,3.5566041,0.58454174,-0.71877766,-1.0101217,10.799128000120312,1.3706481015331125,walk
05/08/2020, 16:46:40,-9.311836,-4.3709106,3.5781593,0.58454174,-0.71877766,-1.0101217,10.891206465770276,1.3706481015331125,walk
05/08/2020, 16:46:40,-9.311836,-4.3709106,3.5781593,0.72015375,-0.7297732,-1.0589908,10.891206465770276,1.4739918489634718,walk
05/08/2020, 16:46:40,-9.354947,-4.375701,3.4560134,0.72015375,-0.7297732,-1.0589908,10.890630044847306,1.4739918489634718,walk
05/08/2020, 16:46:40,-9.354947,-4.375701,3.4560134,0.84110504,-0.7407688,-1.1066383,10.890630044847306,1.5750696650603604,walk
05/08/2020, 16:46:40,-9.419612,-4.2128396,3.4344583,0.84110504,-0.7407688,-1.1066383,10.875321142961635,1.5750696650603604,walk
05/08/2020, 16:46:40,-9.419612,-4.2128396,3.4344583,0.9315131,-0.75420785,-1.1542858,10.875321142961635,1.6640077413953314,walk
05/08/2020, 16:46:40,-9.546548,-4.0978785,3.300337,0.9315131,-0.75420785,-1.1542858,10.900523348356684,1.6640077413953314,walk
05/08/2020, 16:46:40,-9.546548,-4.0978785,3.300337,0.9864909,-0.77131206,-1.1994898,10.900523348356684,1.7340306957700704,walk
05/08/2020, 16:46:40,-9.64714,-3.9469924,3.2308815,0.9864909,-0.77131206,-1.1994898,10.91259114178278,1.7340306957700704,walk
05/08/2020, 16:46:40,-9.64714,-3.9469924,3.2308815,1.0170342,-0.7957467,-1.2434721,10.91259114178278,1.7927058197141976,walk
05/08/2020, 16:46:40,-9.833951,-3.791316,3.151846,1.0170342,-0.7957467,-1.2434721,11.000672808346318,1.7927058197141976,walk
05/08/2020, 16:46:40,-9.833951,-3.791316,3.151846,1.0194776,-0.8299551,-1.2837892,11.000672808346318,1.8374641929364623,walk
05/08/2020, 16:46:40,-9.980047,-3.68354,3.1901662,1.0194776,-0.8299551,-1.2837892,11.106168148833362,1.8374641929364623,walk
05/08/2020, 16:46:40,-9.980047,-3.68354,3.1901662,0.99626476,-0.8702722,-1.3155541,11.106168148833362,1.865636593634649,walk
05/08/2020, 16:46:40,-10.102193,-3.5757644,3.180586,0.99626476,-0.8702722,-1.3155541,11.17839523664152,1.865636593634649,walk
05/08/2020, 16:46:41,-9.857901,-7.180269,4.311035,-1.7966101,0.23661521,1.04605,12.935203449226899,2.092370706511269,walk
05/08/2020, 16:46:41,-9.857901,-7.180269,4.311035,-0.9792727,0.3380188,1.1389015,12.935203449226899,1.5395870686397681,walk
05/08/2020, 16:46:41,-9.239985,-7.048543,4.2272096,-0.9792727,0.3380188,1.1389015,12.366429971249287,1.5395870686397681,walk
05/08/2020, 16:46:41,-9.239985,-7.048543,4.2272096,-0.24623467,0.4895133,1.1572274,12.366429971249287,1.2804022960218275,walk
05/08/2020, 16:46:41,-8.971744,-6.0186844,3.9829175,-0.24623467,0.4895133,1.1572274,11.514355252123279,1.2804022960218275,walk
05/08/2020, 16:46:41,-8.971744,-6.0186844,3.9829175,0.30354387,0.59336036,1.1095799,11.514355252123279,1.2943658683117651,walk
05/08/2020, 16:46:41,-8.921448,-4.893025,3.2859669,0.30354387,0.59336036,1.1095799,10.692590948823055,1.2943658683117651,walk
05/08/2020, 16:46:41,-8.921448,-4.893025,3.2859669,0.53689426,0.6324557,1.0631542,10.692590948823055,1.3485371948667684,walk
05/08/2020, 16:46:41,-8.890313,-3.776946,2.8261232,0.53689426,0.6324557,1.0631542,10.064291432170982,1.3485371948667684,walk
05/08/2020, 16:46:41,-8.890313,-3.776946,2.8261232,0.46114704,0.60924286,1.022837,10.064291432170982,1.2767259169297607,walk
05/08/2020, 16:46:41,-8.765772,-2.6896071,2.5914114,0.46114704,0.60924286,1.022837,9.528281890559587,1.2767259169297607,walk
05/08/2020, 16:46:41,-8.765772,-2.6896071,2.5914114,0.19847508,0.53593904,0.94464636,9.528281890559587,1.1040741602507531,walk
05/08/2020, 16:46:41,-8.698711,-2.071692,2.6057813,0.19847508,0.53593904,0.94464636,9.313945668182809,1.1040741602507531,walk
05/08/2020, 16:46:41,-8.698711,-2.071692,2.6057813,-0.14971799,0.45163968,0.8505732,9.313945668182809,0.9746120335964177,walk
05/08/2020, 16:46:41,-8.784932,-2.1339624,2.7422974,-0.14971799,0.45163968,0.8505732,9.44717011742863,0.9746120335964177,walk
05/08/2020, 16:46:41,-8.784932,-2.1339624,2.7422974,-0.4600374,0.3795576,0.7687172,9.44717011742863,0.9729463379529738,walk
05/08/2020, 16:46:41,-8.974138,-2.6464968,2.914739,-0.4600374,0.3795576,0.7687172,9.799734970557886,0.9729463379529738,walk
05/08/2020, 16:46:41,-8.974138,-2.6464968,2.914739,-0.6506273,0.30869728,0.70885247,9.799734970557886,1.010485892970396,walk
05/08/2020, 16:46:41,-9.024434,-3.2692018,3.056045,-0.6506273,0.30869728,0.70885247,10.073107868851514,1.010485892970396,walk
05/08/2020, 16:46:41,-9.024434,-3.2692018,3.056045,-0.6982748,0.2402804,0.6660919,10.073107868851514,0.9944851941798806,walk
05/08/2020, 16:46:42,-8.059241,-2.794988,2.6321266,-0.014105948,0.5652606,0.99595904,8.927004983970807,1.1452741714151393,walk
05/08/2020, 16:46:42,-8.059241,-2.794988,2.6321266,-0.07274899,0.60435593,1.0655977,8.927004983970807,1.2272069368957395,walk
05/08/2020, 16:46:42,-8.210127,-2.7734327,2.4956105,-0.07274899,0.60435593,1.0655977,9.018103131820865,1.2272069368957395,walk
05/08/2020, 16:46:42,-8.210127,-2.7734327,2.4956105,-0.14360933,0.6348992,1.1205755,9.018103131820865,1.295920595409138,walk
05/08/2020, 16:46:42,-8.310719,-2.8620484,2.4093897,-0.14360933,0.6348992,1.1205755,9.113974020975975,1.295920595409138,walk
05/08/2020, 16:46:42,-8.310719,-2.8620484,2.4093897,-0.2071393,0.6666642,1.1706665,9.113974020975975,1.3630142235921496,walk
05/08/2020, 16:46:42,-8.447234,-3.0225148,2.4045997,-0.2071393,0.6666642,1.1706665,9.288350781626821,1.3630142235921496,walk
05/08/2020, 16:46:42,-8.447234,-3.0225148,2.4045997,-0.25600848,0.70942473,1.2109835,9.288350781626821,1.4266411133327828,walk
05/08/2020, 16:46:42,-8.595725,-3.2021413,2.4788454,-0.25600848,0.70942473,1.2109835,9.501835213039998,1.4266411133327828,walk
05/08/2020, 16:46:42,-8.595725,-3.2021413,2.4788454,-0.28166482,0.74241143,1.2525223,9.501835213039998,1.4830111408667466,walk
05/08/2020, 16:46:42,-8.804092,-3.2644117,2.9746144,-0.28166482,0.74241143,1.2525223,9.849708498382842,1.4830111408667466,walk
05/08/2020, 16:46:42,-8.804092,-3.2644117,2.9746144,-0.330534,0.7582939,1.2891742,9.849708498382842,1.531741664720633,walk
05/08/2020, 16:46:42,-9.0148535,-2.9985645,3.3841627,-0.330534,0.7582939,1.2891742,10.085213389449512,1.531741664720633,walk
05/08/2020, 16:46:42,-9.0148535,-2.9985645,3.3841627,-0.4490418,0.7656243,1.3160523,10.085213389449512,1.5873918226050232,walk
05/08/2020, 16:46:42,-9.263936,-2.794988,3.3817677,-0.4490418,0.7656243,1.3160523,10.250308364834426,1.5873918226050232,walk
05/08/2020, 16:46:42,-9.263936,-2.794988,3.3817677,-0.63718826,0.7411897,1.330713,10.250308364834426,1.65111121664853,walk
05/08/2020, 16:46:42,-9.513018,-2.6584718,3.0943654,-0.63718826,0.7411897,1.330713,10.350848965015134,1.65111121664853,walk
05/08/2020, 16:46:42,-9.513018,-2.6584718,3.0943654,-0.8876429,0.67521626,1.3465955,10.350848965015134,1.7484697474917157,walk
05/08/2020, 16:46:42,-9.656719,-2.6656568,2.8093581,-0.8876429,0.67521626,1.3465955,10.404347413752133,1.7484697474917157,walk
05/08/2020, 16:46:42,-9.656719,-2.6656568,2.8093581,-1.1539801,0.59213865,1.3832475,10.404347413752133,1.8962257155133648,walk
05/08/2020, 16:46:43,-9.623189,-3.0536501,2.572251,0.4061692,-0.8287334,-1.1322947,10.41859015453689,1.460775010733619,walk
05/08/2020, 16:46:43,-9.589659,-3.0225148,2.4836354,0.4061692,-0.8287334,-1.1322947,10.35691051716074,1.460775010733619,walk
05/08/2020, 16:46:43,-9.589659,-3.0225148,2.4836354,0.37196076,-0.8177378,-1.112747,10.35691051716074,1.4301243751910577,walk
05/08/2020, 16:46:43,-9.469908,-2.9674294,2.4716604,0.37196076,-0.8177378,-1.112747,10.227115685661314,1.4301243751910577,walk
05/08/2020, 16:46:43,-9.469908,-2.9674294,2.4716604,0.33653057,-0.80674225,-1.0931993,10.227115685661314,1.3997037144893867,walk
05/08/2020, 16:46:43,-9.386082,-2.926714,2.4453151,0.33653057,-0.80674225,-1.0931993,10.131325192267287,1.3997037144893867,walk
05/08/2020, 16:46:43,-9.386082,-2.926714,2.4453151,0.30720904,-0.78963804,-1.0736517,10.131325192267287,1.3677110611335959,walk
05/08/2020, 16:46:43,-9.239985,-2.9171338,2.3998096,0.30720904,-0.78963804,-1.0736517,9.982288674327448,1.3677110611335959,walk
05/08/2020, 16:46:43,-9.239985,-2.9171338,2.3998096,0.28643966,-0.7652034,-1.0516605,9.982288674327448,1.3317559206589489,walk
05/08/2020, 16:46:43,-9.05557,-2.8931837,2.3854396,0.28643966,-0.7652034,-1.0516605,9.80123338573113,1.3317559206589489,walk
05/08/2020, 16:46:43,-9.05557,-2.8931837,2.3854396,0.27422234,-0.730995,-1.0260042,9.80123338573113,1.2892773913291642,walk
05/08/2020, 16:46:43,-9.002879,-2.8692336,2.318379,0.27422234,-0.730995,-1.0260042,9.729296747413802,1.2892773913291642,walk
05/08/2020, 16:46:43,-9.002879,-2.8692336,2.318379,0.26933542,-0.69800824,-0.99790436,9.729296747413802,1.2472249926447083,walk
05/08/2020, 16:46:43,-8.971744,-2.8955786,2.2704787,0.26933542,-0.69800824,-0.99790436,9.696990880415164,1.2472249926447083,walk
05/08/2020, 16:46:43,-8.971744,-2.8955786,2.2704787,0.26689196,-0.6613564,-0.9710263,9.696990880415164,1.2047886405071424,walk
05/08/2020, 16:46:43,-8.880733,-2.8812087,2.2752686,0.26689196,-0.6613564,-0.9710263,9.60966288220989,1.2047886405071424,walk
05/08/2020, 16:46:43,-8.880733,-2.8812087,2.2752686,0.27300063,-0.622261,-0.94414824,9.60966288220989,1.1632514704085188,walk
05/08/2020, 16:46:43,-8.801697,-2.823728,2.2561085,0.27300063,-0.622261,-0.94414824,9.51490053131268,1.1632514704085188,walk
05/08/2020, 16:46:43,-8.801697,-2.823728,2.2561085,0.27422234,-0.5856091,-0.91238326,9.51490053131268,1.1182929387480736,walk
05/08/2020, 16:46:43,-8.715476,-2.794988,2.3519094,0.27422234,-0.5856091,-0.91238326,9.450024222851267,1.1182929387480736,walk
05/08/2020, 16:46:44,-8.813672,-3.5757644,3.1973512,0.2558964,-0.2679593,-0.58251613,10.034438761555732,0.6903696060524501,walk
05/08/2020, 16:46:44,-8.823253,-3.5805542,3.2524366,0.2558964,-0.2679593,-0.58251613,10.062231393523165,0.6903696060524501,walk
05/08/2020, 16:46:44,-8.823253,-3.5805542,3.2524366,0.3096525,-0.28139833,-0.6411592,10.062231393523165,0.7656074603045528,walk
05/08/2020, 16:46:44,-8.837623,-3.6907253,3.2524366,0.3096525,-0.28139833,-0.6411592,10.114512914169138,0.7656074603045528,walk
05/08/2020, 16:46:44,-8.837623,-3.6907253,3.2524366,0.3853998,-0.29117218,-0.69125015,10.114512914169138,0.8432917627114165,walk
05/08/2020, 16:46:44,-8.856783,-3.791316,3.283572,0.3853998,-0.29117218,-0.69125015,10.178336093695394,0.8432917627114165,walk
05/08/2020, 16:46:44,-8.856783,-3.791316,3.283572,0.47580782,-0.300946,-0.7352324,10.178336093695394,0.9260282240161978,walk
05/08/2020, 16:46:44,-8.866363,-3.7482057,3.3266823,0.47580782,-0.300946,-0.7352324,10.184706488424117,0.9260282240161978,walk
05/08/2020, 16:46:44,-8.866363,-3.7482057,3.3266823,0.57598966,-0.30827639,-0.7804364,10.184706488424117,1.0177816029494695,walk
05/08/2020, 16:46:44,-8.890313,-3.7601807,3.3314724,0.57598966,-0.30827639,-0.7804364,10.211529522766488,1.0177816029494695,walk
05/08/2020, 16:46:44,-8.890313,-3.7601807,3.3314724,0.67250633,-0.3131633,-0.8195318,10.211529522766488,1.1054267929418673,walk
05/08/2020, 16:46:44,-8.969349,-3.7266505,3.3602126,0.67250633,-0.3131633,-0.8195318,10.277556717237054,1.1054267929418673,walk
05/08/2020, 16:46:44,-8.969349,-3.7266505,3.3602126,0.76047087,-0.31560677,-0.85862714,10.277556717237054,1.1896067170857778,walk
05/08/2020, 16:46:44,-9.065149,-3.7625759,3.3218923,0.76047087,-0.31560677,-0.85862714,10.361895449101713,1.1896067170857778,walk
05/08/2020, 16:46:44,-9.065149,-3.7625759,3.3218923,0.84110504,-0.33026752,-0.89650077,10.361895449101713,1.272889607443189,walk
05/08/2020, 16:46:44,-9.16095,-3.7003052,3.1973512,0.84110504,-0.33026752,-0.89650077,10.384522766508596,1.272889607443189,walk
05/08/2020, 16:46:44,-9.16095,-3.7003052,3.1973512,0.91074365,-0.3534804,-0.92826575,10.384522766508596,1.3476200126534903,walk
05/08/2020, 16:46:44,-9.14658,-3.6883302,3.1566358,0.91074365,-0.3534804,-0.92826575,10.355097767893227,1.3476200126534903,walk
05/08/2020, 16:46:44,-9.14658,-3.6883302,3.1566358,0.98038226,-0.37302807,-0.9563655,10.355097767893227,1.419483829601568,walk
05/08/2020, 16:46:44,-9.168135,-3.642825,3.1255007,0.98038226,-0.37302807,-0.9563655,10.348604801737718,1.419483829601568,walk
05/08/2020, 16:46:45,-9.857901,-3.9182522,2.9338992,-0.51745874,0.7326376,1.3844692,11.006301352645252,1.649629111537892,walk
05/08/2020, 16:46:45,-9.850716,-3.9350173,2.8596535,-0.51745874,0.7326376,1.3844692,10.986290460115288,1.649629111537892,walk
05/08/2020, 16:46:45,-9.850716,-3.9350173,2.8596535,-0.5003545,0.7179768,1.3514825,10.986290460115288,1.610077739768476,walk
05/08/2020, 16:46:45,-9.79084,-3.9182522,2.8764186,-0.5003545,0.7179768,1.3514825,10.931012545291889,1.610077739768476,walk
05/08/2020, 16:46:45,-9.79084,-3.9182522,2.8764186,-0.4966893,0.7045378,1.3111653,10.931012545291889,1.5691489109368393,walk
05/08/2020, 16:46:45,-9.740545,-3.9014869,2.8979738,-0.4966893,0.7045378,1.3111653,10.885682066029222,1.5691489109368393,walk
05/08/2020, 16:46:45,-9.740545,-3.9014869,2.8979738,-0.4966893,0.6862118,1.2647396,10.885682066029222,1.5222198451162539,walk
05/08/2020, 16:46:45,-9.690249,-3.923042,2.8812087,-0.4966893,0.6862118,1.2647396,10.844010171382813,1.5222198451162539,walk
05/08/2020, 16:46:45,-9.690249,-3.923042,2.8812087,-0.49302408,0.65811205,1.2122053,10.844010171382813,1.464795508131387,walk
05/08/2020, 16:46:45,-9.541759,-3.9661524,2.9985645,-0.49302408,0.65811205,1.2122053,10.759503242705343,1.464795508131387,walk
05/08/2020, 16:46:45,-9.541759,-3.9661524,2.9985645,-0.48691544,0.631234,1.1572274,10.759503242705343,1.4052466843066853,walk
05/08/2020, 16:46:45,-9.314231,-3.9541774,3.0752053,-0.48691544,0.631234,1.1572274,10.575788583233756,1.4052466843066853,walk
05/08/2020, 16:46:45,-9.314231,-3.9541774,3.0752053,-0.46248084,0.6153515,1.1010278,10.575788583233756,1.3434315445378437,walk
05/08/2020, 16:46:45,-9.101074,-4.0499783,3.1063404,-0.46248084,0.6153515,1.1010278,10.434616741571771,1.3434315445378437,walk
05/08/2020, 16:46:45,-9.101074,-4.0499783,3.1063404,-0.42582896,0.6104646,1.0374979,10.434616741571771,1.2768708423150077,walk
05/08/2020, 16:46:45,-8.971744,-4.0787187,3.1302907,-0.42582896,0.6104646,1.0374979,10.340543941978037,1.2768708423150077,walk
05/08/2020, 16:46:45,-8.971744,-4.0787187,3.1302907,-0.37695974,0.60557765,0.9715244,10.340543941978037,1.2052728435520073,walk
05/08/2020, 16:46:45,-8.904683,-4.148174,3.1973512,-0.37695974,0.60557765,0.9715244,10.330720308931681,1.2052728435520073,walk
05/08/2020, 16:46:45,-8.904683,-4.148174,3.1973512,-0.32809055,0.6006907,0.90799445,10.330720308931681,1.1370693346264382,walk
05/08/2020, 16:46:45,-8.952583,-4.1242237,3.2260914,-0.32809055,0.6006907,0.90799445,10.371385384913559,1.1370693346264382,walk
05/08/2020, 16:46:46,-8.835227,-2.8859987,2.339934,-0.17170912,0.6874336,0.9519768,9.58465005374589,1.186721854208908,walk
05/08/2020, 16:46:46,-8.863968,-2.8668385,2.3638844,-0.17170912,0.6874336,0.9519768,9.61127667217296,1.186721854208908,walk
05/08/2020, 16:46:46,-8.863968,-2.8668385,2.3638844,-0.18514815,0.7253072,1.0020677,9.61127667217296,1.2507957688106845,walk
05/08/2020, 16:46:46,-8.940608,-2.8740237,2.4788454,-0.18514815,0.7253072,1.0020677,9.712834717402995,1.2507957688106845,walk
05/08/2020, 16:46:46,-8.940608,-2.8740237,2.4788454,-0.20225237,0.76440257,1.0484934,9.712834717402995,1.313223396059766,walk
05/08/2020, 16:46:46,-9.14179,-2.8836036,2.555486,-0.20225237,0.76440257,1.0484934,9.920585144616194,1.313223396059766,walk
05/08/2020, 16:46:46,-9.14179,-2.8836036,2.555486,-0.22790872,0.79738927,1.0949192,9.920585144616194,1.3735428983520057,walk
05/08/2020, 16:46:46,-9.307046,-2.8333082,2.5291407,-0.22790872,0.79738927,1.0949192,10.052128743200736,1.3735428983520057,walk
05/08/2020, 16:46:46,-9.307046,-2.8333082,2.5291407,-0.27189097,0.8108283,1.1352363,10.052128743200736,1.4213122984351854,walk
05/08/2020, 16:46:46,-9.429193,-2.8716285,2.5530908,-0.27189097,0.8108283,1.1352363,10.182052596356662,1.4213122984351854,walk
05/08/2020, 16:46:46,-9.429193,-2.8716285,2.5530908,-0.33664265,0.8108283,1.168223,10.182052596356662,1.461340441440289,walk
05/08/2020, 16:46:46,-9.486672,-2.8955786,2.5004005,-0.33664265,0.8108283,1.168223,10.229043537371409,1.461340441440289,walk
05/08/2020, 16:46:46,-9.486672,-2.8955786,2.5004005,-0.40872473,0.8071631,1.1987662,10.229043537371409,1.5018683963932942,walk
05/08/2020, 16:46:46,-9.474698,-2.8859987,2.5411158,-0.40872473,0.8071631,1.1987662,10.22527072555993,1.5018683963932942,walk
05/08/2020, 16:46:46,-9.474698,-2.8859987,2.5411158,-0.47958508,0.8096066,1.2244226,10.22527072555993,1.5442394101383223,walk
05/08/2020, 16:46:46,-9.445957,-2.9027638,2.5291407,-0.47958508,0.8096066,1.2244226,10.200426353119848,1.5442394101383223,walk
05/08/2020, 16:46:46,-9.445957,-2.9027638,2.5291407,-0.5602193,0.8206022,1.2403051,10.200426353119848,1.5892105722649945,walk
05/08/2020, 16:46:46,-9.553733,-2.9506643,2.562671,-0.5602193,0.8206022,1.2403051,10.322185518191429,1.5892105722649945,walk
05/08/2020, 16:46:46,-9.553733,-2.9506643,2.562671,-0.6286362,0.8242673,1.2574092,10.322185518191429,1.6296251133505457,walk
05/08/2020, 16:46:46,-9.687855,-3.0201197,2.6225464,-0.6286362,0.8242673,1.2574092,10.481097394233762,1.6296251133505457,walk
05/08/2020, 16:46:47,-9.316627,-2.8716285,2.2728736,0.35729998,-0.91303277,-1.0980862,10.01058116226279,1.4721024093017727,walk
05/08/2020, 16:46:47,-9.175321,-2.8333082,2.3614893,0.35729998,-0.91303277,-1.0980862,9.88892186950071,1.4721024093017727,walk
05/08/2020, 16:46:47,-9.175321,-2.8333082,2.3614893,0.35852173,-0.87393737,-1.0650995,9.88892186950071,1.4236366292308393,walk
05/08/2020, 16:46:47,-9.16574,-2.8285182,2.3566992,0.35852173,-0.87393737,-1.0650995,9.877516700988012,1.4236366292308393,walk
05/08/2020, 16:46:47,-9.16574,-2.8285182,2.3566992,0.35241306,-0.83606374,-1.0333345,9.877516700988012,1.3751282562511715,walk
05/08/2020, 16:46:47,-9.041199,-2.7231374,2.3447242,0.35241306,-0.83606374,-1.0333345,9.729156342634953,1.3751282562511715,walk
05/08/2020, 16:46:47,-9.041199,-2.7231374,2.3447242,0.33408713,-0.80552053,-0.99790436,9.729156342634953,1.3252511673373117,walk
05/08/2020, 16:46:47,-8.954978,-2.680027,2.3471193,0.33408713,-0.80552053,-0.99790436,9.637590191876544,1.3252511673373117,walk
05/08/2020, 16:46:47,-8.954978,-2.680027,2.3471193,0.31453943,-0.7810859,-0.958809,9.637590191876544,1.276066214658136,walk
05/08/2020, 16:46:47,-8.777747,-2.6704469,2.3662794,0.31453943,-0.7810859,-0.958809,9.475199714540055,1.276066214658136,walk
05/08/2020, 16:46:47,-8.777747,-2.6704469,2.3662794,0.29132658,-0.7468775,-0.91604847,9.475199714540055,1.217309311180589,walk
05/08/2020, 16:46:47,-8.636441,-2.6321266,2.430945,0.29132658,-0.7468775,-0.91604847,9.350171154254166,1.217309311180589,walk
05/08/2020, 16:46:47,-8.636441,-2.6321266,2.430945,0.2754441,-0.7077821,-0.8720662,9.350171154254166,1.1564274254055975,walk
05/08/2020, 16:46:47,-8.509504,-2.6249416,2.440525,0.2754441,-0.7077821,-0.8720662,9.233533701858844,1.1564274254055975,walk
05/08/2020, 16:46:47,-8.509504,-2.6249416,2.440525,0.2607833,-0.6637998,-0.83052737,9.233533701858844,1.0947208985459447,walk
05/08/2020, 16:46:47,-8.435259,-2.6441016,2.3758595,0.2607833,-0.6637998,-0.83052737,9.153664504441117,1.0947208985459447,walk
05/08/2020, 16:46:47,-8.435259,-2.6441016,2.3758595,0.2558964,-0.61737406,-0.7841016,9.153664504441117,1.0302664814798794,walk
05/08/2020, 16:46:47,-8.358619,-2.6033864,2.3614893,0.2558964,-0.61737406,-0.7841016,9.067566356636297,1.0302664814798794,walk
05/08/2020, 16:46:47,-8.358619,-2.6033864,2.3614893,0.25100946,-0.57094836,-0.7340107,9.067566356636297,0.9632027232450554,walk
05/08/2020, 16:46:47,-8.270002,-2.6129665,2.3471193,0.25100946,-0.57094836,-0.7340107,8.98495978847838,0.9632027232450554,walk
05/08/2020, 16:46:48,-8.883128,-3.9781277,3.0967603,0.4513732,-0.41212344,-0.65581995,10.213980142232229,0.8964838524176884,walk
05/08/2020, 16:46:48,-8.8879175,-3.9829175,3.0991554,0.4513732,-0.41212344,-0.65581995,10.22073746656176,0.8964838524176884,walk
05/08/2020, 16:46:48,-8.8879175,-3.9829175,3.0991554,0.5161249,-0.41701037,-0.7034674,10.22073746656176,0.9670310160617063,walk
05/08/2020, 16:46:48,-8.902288,-3.9469924,3.032095,0.5161249,-0.41701037,-0.7034674,10.199170957328837,0.9670310160617063,walk
05/08/2020, 16:46:48,-8.902288,-3.9469924,3.032095,0.5820983,-0.42067555,-0.7486714,10.199170957328837,1.037456136777476,walk
