DATE,TIME,ax,ay,az,gx,gy,gz,ma,mg,label
23/10/2020, 15:42:07,-0.43110353,3.2404616,9.572893,0.011835015,-0.21159378,0.103395805,10.115667287713277,0.23580221897144732,walk
23/10/2020, 15:42:07,-0.4143384,3.1542408,9.596844,0.011835015,-0.21159378,0.103395805,10.110406570097071,0.23580221897144732,walk
23/10/2020, 15:42:07,-0.4143384,3.1542408,9.596844,0.003282905,-0.23480666,0.107061,10.110406570097071,0.25808332181486526,walk
23/10/2020, 15:42:07,-0.3879932,2.9530592,9.659114,0.003282905,-0.23480666,0.107061,10.107896831406022,0.25808332181486526,walk
23/10/2020, 15:42:07,-0.3879932,2.9530592,9.659114,0.025274046,-0.25924128,0.10828273,10.107896831406022,0.2820814949306763,walk
23/10/2020, 15:42:07,0.05508545,2.802173,9.735755,0.025274046,-0.25924128,0.10828273,10.131146634830555,0.2820814949306763,walk
23/10/2020, 15:42:07,0.05508545,2.802173,9.735755,-0.09201204,-0.31421912,0.1363825,10.131146634830555,0.3546830372406926,walk
23/10/2020, 15:42:07,-0.086220704,2.912344,8.464,-0.09201204,-0.31421912,0.1363825,8.951450899109485,0.3546830372406926,walk
23/10/2020, 15:42:07,-0.086220704,2.912344,8.464,-0.041921105,-0.43761384,0.1363825,8.951450899109485,0.46028626314359455,walk
23/10/2020, 15:42:07,1.5783179,3.1925611,12.293635,-0.041921105,-0.43761384,0.1363825,12.799101710515139,0.46028626314359455,walk
23/10/2020, 15:42:07,1.5783179,3.1925611,12.293635,-0.16165064,-0.10530327,0.16814749,12.799101710515139,0.2559165639906279,walk
23/10/2020, 15:42:07,-0.55803955,3.1159205,4.160149,-0.16165064,-0.10530327,0.16814749,5.227543350593641,0.2559165639906279,walk
23/10/2020, 15:42:07,-0.55803955,3.1159205,4.160149,0.057039026,-0.03810812,0.152265,5.227543350593641,0.167003918698571,walk
23/10/2020, 15:42:07,-2.6345215,2.919529,5.654641,0.057039026,-0.03810812,0.152265,6.887620732752152,0.167003918698571,walk
23/10/2020, 15:42:07,-2.6345215,2.919529,5.654641,0.10346477,-0.011230063,0.13393904,6.887620732752152,0.1696193961320042,walk
23/10/2020, 15:42:07,-2.7590625,3.03928,3.7194655,0.10346477,-0.011230063,0.13393904,5.539320548494317,0.1696193961320042,walk
23/10/2020, 15:42:07,-2.7590625,3.03928,3.7194655,0.28550255,-0.07598175,0.15715192,5.539320548494317,0.3346366104166769,walk
23/10/2020, 15:42:07,0.2083667,3.5182838,1.4513819,0.28550255,-0.07598175,0.15715192,3.8115938102476403,0.3346366104166769,walk
23/10/2020, 15:42:07,0.2083667,3.5182838,1.4513819,-0.17386794,-0.18960264,0.18525171,3.8115938102476403,0.31701328094681314,walk
23/10/2020, 15:42:07,3.6140847,3.180586,9.08431,-0.17386794,-0.18960264,0.18525171,10.281168066555974,0.31701328094681314,walk
23/10/2020, 15:42:07,3.6140847,3.180586,9.08431,0.020387124,-0.550013,0.17792132,10.281168066555974,0.5784340404838616,walk
23/10/2020, 15:42:07,0.32332766,2.5243506,18.532661,0.020387124,-0.550013,0.17792132,18.706587794699317,0.5784340404838616,walk
23/10/2020, 15:42:07,0.32332766,2.5243506,18.532661,0.013056746,-0.23358493,0.1400477,18.706587794699317,0.27266417824947686,walk
23/10/2020, 15:42:07,-4.2104445,1.7531544,7.917935,0.013056746,-0.23358493,0.1400477,9.13756454445054,0.27266417824947686,walk
23/10/2020, 15:42:07,-4.2104445,1.7531544,7.917935,0.0680346,-0.07476002,0.20235594,9.13756454445054,0.22619834617921034,walk
23/10/2020, 15:42:07,2.943479,3.0943654,2.1267774,0.0680346,-0.07476002,0.20235594,4.770990264935372,0.22619834617921034,walk
23/10/2020, 15:42:07,2.943479,3.0943654,2.1267774,0.30993715,-0.4889265,0.25489032,4.770990264935372,0.6325181701648862,walk
23/10/2020, 15:42:07,3.0991554,3.3697927,16.549585,0.30993715,-0.4889265,0.25489032,17.171168923518323,0.6325181701648862,walk
23/10/2020, 15:42:07,3.0991554,3.3697927,16.549585,0.21830739,-0.37408388,0.22801226,17.171168923518323,0.48947569505851746,walk
23/10/2020, 15:42:07,-3.5805542,3.1949563,11.757152,0.21830739,-0.37408388,0.22801226,12.69876877193864,0.48947569505851746,walk
23/10/2020, 15:42:08,2.6297317,-0.97956306,9.508228,0.52251816,0.15736869,-0.14705886,9.913699501417359,0.5651693888263775,walk
23/10/2020, 15:42:08,2.560276,-0.58677983,9.4507475,0.52251816,0.15736869,-0.14705886,9.808973037381342,0.5651693888263775,walk
23/10/2020, 15:42:08,2.560276,-0.58677983,9.4507475,0.4993053,0.13293408,-0.14705886,9.808973037381342,0.537218361429089,walk
23/10/2020, 15:42:08,2.44292,-0.50774413,9.683064,0.4993053,0.13293408,-0.14705886,9.999369951845427,0.537218361429089,walk
23/10/2020, 15:42:08,2.44292,-0.50774413,9.683064,0.48220107,0.09872565,-0.15805443,9.999369951845427,0.5169582444618691,walk
23/10/2020, 15:42:08,2.2872438,-0.7783814,9.572893,0.48220107,0.09872565,-0.15805443,9.873076781552289,0.5169582444618691,walk
23/10/2020, 15:42:08,2.2872438,-0.7783814,9.572893,0.4699838,0.08773007,-0.14828059,9.873076781552289,0.5005681358583679,walk
23/10/2020, 15:42:08,2.2872438,-0.8813672,9.632769,0.4699838,0.08773007,-0.14828059,9.939744667170496,0.5005681358583679,walk
23/10/2020, 15:42:08,2.2872438,-0.8813672,9.632769,0.48220107,0.090173535,-0.12995464,9.939744667170496,0.5074813744201512,walk
23/10/2020, 15:42:08,2.320774,-0.7232959,9.536968,0.48220107,0.090173535,-0.12995464,9.841895770828625,0.5074813744201512,walk
23/10/2020, 15:42:08,2.320774,-0.7232959,9.536968,0.48830974,0.097503915,-0.11773733,9.841895770828625,0.5116790944445777,walk
23/10/2020, 15:42:08,2.3519094,-0.55324954,9.505833,0.48830974,0.097503915,-0.11773733,9.808079203535303,0.5116790944445777,walk
23/10/2020, 15:42:08,2.3519094,-0.55324954,9.505833,0.47609243,0.10849948,-0.1042983,9.808079203535303,0.4993138023559942,walk
23/10/2020, 15:42:08,2.335144,-0.37362307,9.292676,0.47609243,0.10849948,-0.1042983,9.58886430305856,0.4993138023559942,walk
23/10/2020, 15:42:08,2.335144,-0.37362307,9.292676,0.4260015,0.124381974,-0.090859264,9.58886430305856,0.45299398471550195,walk
23/10/2020, 15:42:08,2.3064039,-0.1939966,8.959768,0.4260015,0.124381974,-0.090859264,9.253895472703226,0.45299398471550195,walk
23/10/2020, 15:42:08,2.3064039,-0.1939966,8.959768,0.34170213,0.1292689,-0.08719408,9.253895472703226,0.37559766180859905,walk
23/10/2020, 15:42:08,2.4213648,-0.17483643,8.921448,0.34170213,0.1292689,-0.08719408,9.245853406810904,0.37559766180859905,walk
23/10/2020, 15:42:08,2.4213648,-0.17483643,8.921448,0.29894158,0.1414862,-0.09330273,9.245853406810904,0.34364198328076173,walk
23/10/2020, 15:42:08,2.6393116,-0.22992188,9.0076685,0.29894158,0.1414862,-0.09330273,9.389191725462782,0.34364198328076173,walk
23/10/2020, 15:42:08,2.6393116,-0.22992188,9.0076685,0.35391942,0.1537035,-0.08597235,9.389191725462782,0.3953162815675829,walk
23/10/2020, 15:42:08,2.663262,-0.33769777,9.398057,0.35391942,0.1537035,-0.08597235,9.773969447319105,0.3953162815675829,walk
23/10/2020, 15:42:08,2.663262,-0.33769777,9.398057,0.4223363,0.17202945,-0.07375505,9.773969447319105,0.46195443266465624,walk
23/10/2020, 15:42:08,2.6249416,-0.41194338,9.529783,0.4223363,0.17202945,-0.07375505,9.8932696543478,0.46195443266465624,walk
23/10/2020, 15:42:08,2.6249416,-0.41194338,9.529783,0.55428314,0.16714253,-0.048098717,9.8932696543478,0.5809302126243131,walk
23/10/2020, 15:42:08,2.4453151,-0.44547364,10.205178,0.55428314,0.16714253,-0.048098717,10.503507802090411,0.5809302126243131,walk
23/10/2020, 15:42:08,2.4453151,-0.44547364,10.205178,0.6520215,0.17202945,-0.043211795,10.503507802090411,0.6757169993144102,walk
23/10/2020, 15:42:08,2.327959,-0.34967285,10.226734,0.6520215,0.17202945,-0.043211795,10.49417724742689,0.6757169993144102,walk
23/10/2020, 15:42:08,2.327959,-0.34967285,10.226734,0.69600385,0.16836426,-0.034659687,10.49417724742689,0.7169164400440065,walk
23/10/2020, 15:42:08,2.2297633,0.17483643,10.4566555,0.69600385,0.16836426,-0.034659687,10.693178026576403,0.7169164400440065,walk
23/10/2020, 15:42:09,2.8333082,-1.463357,9.860296,-0.07490782,0.05963028,-0.12262425,10.36313134247933,0.15557524679809484,walk
23/10/2020, 15:42:09,2.7710378,-1.5304176,9.81,-0.07490782,0.05963028,-0.12262425,10.308100539322174,0.15557524679809484,walk
23/10/2020, 15:42:09,2.7710378,-1.5304176,9.81,0.0069480953,0.07062586,-0.112850405,10.308100539322174,0.13330979561890036,walk
23/10/2020, 15:42:09,2.7351124,-1.3244458,9.702225,0.0069480953,0.07062586,-0.112850405,10.167013402656302,0.13330979561890036,walk
23/10/2020, 15:42:09,2.7351124,-1.3244458,9.702225,0.043599997,0.07062586,-0.11040695,10.167013402656302,0.138125544185623,walk
23/10/2020, 15:42:09,2.7446926,-1.1975098,9.551338,0.043599997,0.07062586,-0.11040695,10.009766642647838,0.138125544185623,walk
23/10/2020, 15:42:09,2.7446926,-1.1975098,9.551338,0.008169825,0.06085201,-0.12140252,10.009766642647838,0.13604515524331154,walk
23/10/2020, 15:42:09,2.7135572,-0.9508228,9.357342,0.008169825,0.06085201,-0.12140252,9.789142035256303,0.13604515524331154,walk
23/10/2020, 15:42:09,2.7135572,-0.9508228,9.357342,-0.07246436,0.04252606,-0.13361983,9.789142035256303,0.1578410858529459,walk
23/10/2020, 15:42:09,2.675237,-0.9580079,9.2328005,-0.07246436,0.04252606,-0.13361983,9.660190295335118,0.1578410858529459,walk
23/10/2020, 15:42:09,2.675237,-0.9580079,9.2328005,-0.1677593,0.02542184,-0.13972847,9.660190295335118,0.21980331705633618,walk
23/10/2020, 15:42:09,2.6201515,-0.98195803,9.256751,-0.1677593,0.02542184,-0.13972847,9.670412388224067,0.21980331705633618,walk
23/10/2020, 15:42:09,2.6201515,-0.98195803,9.256751,-0.23006752,0.009539349,-0.13850674,9.670412388224067,0.2687120776395454,walk
23/10/2020, 15:42:09,2.572251,-1.1352394,9.316627,-0.23006752,0.009539349,-0.13850674,9.731637800800009,0.2687120776395454,walk
23/10/2020, 15:42:09,2.572251,-1.1352394,9.316627,-0.25450212,0.009539349,-0.14217193,9.731637800800009,0.2916765090765259,walk
23/10/2020, 15:42:09,2.5171657,-1.3028907,9.328602,-0.25450212,0.009539349,-0.14217193,9.749690213956805,0.2916765090765259,walk
23/10/2020, 15:42:09,2.5171657,-1.3028907,9.328602,-0.23006752,0.010761078,-0.13850674,9.749690213956805,0.26875822275657674,walk
23/10/2020, 15:42:09,2.5123756,-1.2478052,9.462723,-0.23006752,0.010761078,-0.13850674,9.869760453627148,0.26875822275657674,walk
23/10/2020, 15:42:09,2.5123756,-1.2478052,9.462723,-0.1640941,0.014426269,-0.13117637,9.869760453627148,0.21057595305837906,walk
23/10/2020, 15:42:09,2.579436,-1.1136842,9.539363,-0.1640941,0.014426269,-0.13117637,9.944507405261998,0.21057595305837906,walk
23/10/2020, 15:42:09,2.579436,-1.1136842,9.539363,-0.11766837,0.02542184,-0.12262425,9.944507405261998,0.1718395210102793,walk
23/10/2020, 15:42:09,2.565066,-0.9484278,9.486672,-0.11766837,0.02542184,-0.12262425,9.87299511951822,0.1718395210102793,walk
23/10/2020, 15:42:09,2.565066,-0.9484278,9.486672,-0.07246436,0.014426269,-0.11529387,9.87299511951822,0.13693749277716535,walk
23/10/2020, 15:42:09,2.5123756,-0.852627,9.534574,-0.07246436,0.014426269,-0.11529387,9.896822558918432,0.13693749277716535,walk
23/10/2020, 15:42:09,2.5123756,-0.852627,9.534574,-0.041921105,0.018091459,-0.112850405,9.896822558918432,0.12173698664583342,walk
23/10/2020, 15:42:09,2.6608667,-0.8861573,9.599238,-0.041921105,0.018091459,-0.112850405,10.00054319954799,0.12173698664583342,walk
23/10/2020, 15:42:09,2.6608667,-0.8861573,9.599238,-0.018708237,0.024200108,-0.106741756,10.00054319954799,0.1110380378646529,walk
23/10/2020, 15:42:09,2.7422974,-0.89573735,9.517808,-0.018708237,0.024200108,-0.106741756,9.945411447672706,0.1110380378646529,walk
23/10/2020, 15:42:09,2.7422974,-0.89573735,9.517808,0.017943665,0.018091459,-0.10063311,9.945411447672706,0.10380895076890305,walk
23/10/2020, 15:42:09,2.8740237,-0.9651929,9.474698,0.017943665,0.018091459,-0.10063311,9.947940133833693,0.10380895076890305,walk
23/10/2020, 15:42:10,1.7387843,-0.71371585,8.032896,-1.0241921,0.044969518,0.78756464,8.24985939417978,1.2927682542980734,walk
23/10/2020, 15:42:10,1.7387843,-0.71371585,8.032896,-1.0620657,0.07795623,0.8523163,8.24985939417978,1.364002887729648,walk
23/10/2020, 15:42:10,1.6070582,-0.977168,8.092772,-1.0620657,0.07795623,0.8523163,8.30845619469346,1.364002887729648,walk
23/10/2020, 15:42:10,1.6070582,-0.977168,8.092772,-1.0987177,0.11460813,0.90729415,8.30845619469346,1.4295097996196438,walk
23/10/2020, 15:42:10,1.5136524,-1.0729688,7.668853,-1.0987177,0.11460813,0.90729415,7.890101977495125,1.4295097996196438,walk
23/10/2020, 15:42:10,1.5136524,-1.0729688,7.668853,-1.1317043,0.13049063,0.95982856,7.890101977495125,1.4896487345694664,walk
23/10/2020, 15:42:10,1.477727,-1.1232642,7.4101906,-1.1317043,0.13049063,0.95982856,7.6391311132107,1.4896487345694664,walk
23/10/2020, 15:42:10,1.477727,-1.1232642,7.4101906,-1.1732432,0.14270793,1.0025891,7.6391311132107,1.5498548299286776,walk
23/10/2020, 15:42:10,1.5998731,-1.2046949,7.096443,-1.1732432,0.14270793,1.0025891,7.37362796078491,1.5498548299286776,walk
23/10/2020, 15:42:10,1.5998731,-1.2046949,7.096443,-1.2294427,0.15248176,1.0416845,7.37362796078491,1.6186064050458575,walk
23/10/2020, 15:42:10,1.7723145,-1.3052857,6.962322,-1.2294427,0.15248176,1.0416845,7.301972370707126,1.6186064050458575,walk
23/10/2020, 15:42:10,1.7723145,-1.3052857,6.962322,-1.3015248,0.16714253,1.0905536,7.301972370707126,1.706226996894817,walk
23/10/2020, 15:42:10,1.954336,-1.4250367,6.9096317,-1.3015248,0.16714253,1.0905536,7.320735586318005,1.706226996894817,walk
23/10/2020, 15:42:10,1.954336,-1.4250367,6.9096317,-1.3736069,0.19890751,1.1406446,7.320735586318005,1.7965049843611063,walk
23/10/2020, 15:42:10,2.1507277,-1.4274317,6.8928666,-1.3736069,0.19890751,1.1406446,7.36035333656311,1.7965049843611063,walk
23/10/2020, 15:42:10,2.1507277,-1.4274317,6.8928666,-1.445689,0.2563288,1.2090615,7.36035333656311,1.9019860004414577,walk
23/10/2020, 15:42:10,2.2776637,-1.4298267,6.806646,-1.445689,0.2563288,1.2090615,7.318646354635689,1.9019860004414577,walk
23/10/2020, 15:42:10,2.2776637,-1.4298267,6.806646,-1.5079972,0.3174153,1.2958043,7.318646354635689,2.013434025908094,walk
23/10/2020, 15:42:10,2.2920337,-1.3723463,6.9072366,-1.5079972,0.3174153,1.2958043,7.405853751646925,2.013434025908094,walk
23/10/2020, 15:42:10,2.2920337,-1.3723463,6.9072366,-1.5031103,0.34918028,1.3764385,7.405853751646925,2.067812939199167,walk
23/10/2020, 15:42:10,2.186653,-1.7148341,7.9562554,-1.5031103,0.34918028,1.3764385,8.42758016466589,2.067812939199167,walk
23/10/2020, 15:42:10,2.186653,-1.7148341,7.9562554,-1.4798974,0.36017585,1.4179773,8.42758016466589,2.080981166071952,walk
23/10/2020, 15:42:10,1.8824854,-2.6776319,8.413704,-1.4798974,0.36017585,1.4179773,9.02794977948473,2.080981166071952,walk
23/10/2020, 15:42:10,1.8824854,-2.6776319,8.413704,-1.5153276,0.41393197,1.4546292,9.02794977948473,2.140911811539459,walk
23/10/2020, 15:42:10,1.6405884,-2.9674294,8.849598,-1.5153276,0.41393197,1.4546292,9.476948405838561,2.140911811539459,walk
23/10/2020, 15:42:10,1.6405884,-2.9674294,8.849598,-1.5409839,0.49700963,1.5242678,9.476948405838561,2.2237451086905238,walk
23/10/2020, 15:42:10,1.6597486,-2.668052,9.110655,-1.5409839,0.49700963,1.5242678,9.637286856927108,2.2237451086905238,walk
23/10/2020, 15:42:10,1.6597486,-2.668052,9.110655,-1.5067755,0.536105,1.5987934,9.637286856927108,2.2613980730267627,walk
23/10/2020, 15:42:10,1.7459693,-2.3806496,9.541759,-1.5067755,0.536105,1.5987934,9.988045710949732,2.2613980730267627,walk
23/10/2020, 15:42:10,1.7459693,-2.3806496,9.541759,-1.4652367,0.53366154,1.6415539,9.988045710949732,2.264158179509134,walk
23/10/2020, 15:42:11,-8.013736,-4.0763235,2.8764186,0.020387124,0.6558345,0.039865844,9.439817703224108,0.6573612450711285,walk
23/10/2020, 15:42:11,-8.073611,-3.9948928,2.8668385,0.020387124,0.6558345,0.039865844,9.453101621434403,0.6573612450711285,walk
23/10/2020, 15:42:11,-8.073611,-3.9948928,2.8668385,0.14989051,0.63506514,-0.030994497,9.453101621434403,0.6532499938384305,walk
23/10/2020, 15:42:11,-8.150251,-3.8799317,2.7973828,0.14989051,0.63506514,-0.030994497,9.450175570267582,0.6532499938384305,walk
23/10/2020, 15:42:11,-8.150251,-3.8799317,2.7973828,0.26595485,0.6069653,-0.1042983,9.450175570267582,0.6708330630751564,walk
23/10/2020, 15:42:11,-8.224498,-3.781736,2.8500733,0.26595485,0.6069653,-0.1042983,9.490353439481177,0.6708330630751564,walk
23/10/2020, 15:42:11,-8.224498,-3.781736,2.8500733,0.38079748,0.58008724,-0.18004556,9.490353439481177,0.7168851597891188,walk
23/10/2020, 15:42:11,-8.394544,-3.6092947,2.8955786,0.38079748,0.58008724,-0.18004556,9.585392350180761,0.7168851597891188,walk
23/10/2020, 15:42:11,-8.394544,-3.6092947,2.8955786,0.48097935,0.54954404,-0.24724072,9.585392350180761,0.7710173544275181,walk
23/10/2020, 15:42:11,-8.586145,-3.412903,2.9482691,0.48097935,0.54954404,-0.24724072,9.698561288729783,0.7710173544275181,walk
23/10/2020, 15:42:11,-8.586145,-3.412903,2.9482691,0.5481745,0.51411384,-0.3193228,9.698561288729783,0.816563147697562,walk
23/10/2020, 15:42:11,-8.780142,-3.2452517,2.9027638,0.5481745,0.51411384,-0.3193228,9.800438092355678,0.816563147697562,walk
23/10/2020, 15:42:11,-8.780142,-3.2452517,2.9027638,0.57138735,0.46890983,-0.3889614,9.800438092355678,0.8352549952874003,walk
23/10/2020, 15:42:11,-8.916658,-2.9482691,2.8979738,0.57138735,0.46890983,-0.3889614,9.828394574409097,0.8352549952874003,walk
23/10/2020, 15:42:11,-8.916658,-2.9482691,2.8979738,0.54573107,0.41393197,-0.45493484,9.828394574409097,0.8222698918433482,walk
23/10/2020, 15:42:11,-8.969349,-2.682422,2.914739,0.54573107,0.41393197,-0.45493484,9.805116522131375,0.8222698918433482,walk
23/10/2020, 15:42:11,-8.969349,-2.682422,2.914739,0.4785359,0.35651067,-0.52090824,9.805116522131375,0.7921122688960044,walk
23/10/2020, 15:42:11,-8.931028,-2.4860303,2.8668385,0.4785359,0.35651067,-0.52090824,9.70373006922942,0.7921122688960044,walk
23/10/2020, 15:42:11,-8.931028,-2.4860303,2.8668385,0.38446268,0.305198,-0.5844382,9.70373006922942,0.7632335150507417,walk
23/10/2020, 15:42:11,-8.847202,-2.339934,2.8764186,0.38446268,0.305198,-0.5844382,9.59281314867798,0.7632335150507417,walk
23/10/2020, 15:42:11,-8.847202,-2.339934,2.8764186,0.27939388,0.25877225,-0.6369726,9.59281314867798,0.7421307981174086,walk
23/10/2020, 15:42:11,-8.928633,-2.335144,2.9099488,0.27939388,0.25877225,-0.6369726,9.67683741769222,0.7421307981174086,walk
23/10/2020, 15:42:11,-8.928633,-2.335144,2.9099488,0.18898587,0.2233421,-0.67973316,9.67683741769222,0.7400233239092741,walk
23/10/2020, 15:42:11,-9.081915,-2.308799,3.0081446,0.18898587,0.2233421,-0.67973316,9.841781610720886,0.7400233239092741,walk
23/10/2020, 15:42:11,-9.081915,-2.308799,3.0081446,0.1132386,0.19524232,-0.71271986,9.841781610720886,0.7476042659755273,walk
23/10/2020, 15:42:11,-9.2184305,-2.3590944,3.1255007,0.1132386,0.19524232,-0.71271986,10.015664832157293,0.7476042659755273,walk
23/10/2020, 15:42:11,-9.2184305,-2.3590944,3.1255007,0.0558173,0.1622556,-0.74204135,10.015664832157293,0.7616218318954938,walk
23/10/2020, 15:42:11,-9.342972,-2.3830445,3.2548318,0.0558173,0.1622556,-0.74204135,10.176637611480455,0.7616218318954938,walk
23/10/2020, 15:42:11,-9.342972,-2.3830445,3.2548318,0.016721934,0.12193851,-0.7713629,10.176637611480455,0.7811205722235283,walk
23/10/2020, 15:42:11,-9.335787,-2.4141798,3.3817677,0.016721934,0.12193851,-0.7713629,10.218685471623077,0.7811205722235283,walk
23/10/2020, 15:42:12,-8.725057,-2.6225464,2.3854396,-0.99242705,0.5532092,2.162011,9.417785597731822,2.4423846997518988,walk
23/10/2020, 15:42:12,-8.950189,-2.7255323,2.411785,-0.99242705,0.5532092,2.162011,9.661837778525676,2.4423846997518988,walk
23/10/2020, 15:42:12,-8.950189,-2.7255323,2.411785,-0.9948705,0.59596974,2.265858,9.661837778525676,2.5453996519180913,walk
23/10/2020, 15:42:12,-9.175321,-2.8093581,2.440525,-0.9948705,0.59596974,2.265858,9.901270835963972,2.5453996519180913,walk
23/10/2020, 15:42:12,-9.175321,-2.8093581,2.440525,-0.9985357,0.6277347,2.3599312,9.901270835963972,2.638256966647177,walk
23/10/2020, 15:42:12,-9.433982,-2.8524685,2.5147705,-0.9985357,0.6277347,2.3599312,10.171561414082417,2.638256966647177,walk
23/10/2020, 15:42:12,-9.433982,-2.8524685,2.5147705,-0.9985357,0.64972585,2.4405653,10.171561414082417,2.7158012504058777,walk
23/10/2020, 15:42:12,-9.642349,-2.9578493,2.574646,-0.9985357,0.64972585,2.4405653,10.409254209680473,2.7158012504058777,walk
23/10/2020, 15:42:12,-9.642349,-2.9578493,2.574646,-1.0034227,0.6631649,2.505317,10.409254209680473,2.779075030641756,walk
23/10/2020, 15:42:12,-9.862691,-3.0536501,2.5842261,-1.0034227,0.6631649,2.505317,10.643104630438764,2.779075030641756,walk
23/10/2020, 15:42:12,-9.862691,-3.0536501,2.5842261,-1.0058662,0.66805184,2.5566297,10.643104630438764,2.827439693096183,walk
23/10/2020, 15:42:12,-10.075848,-3.1326857,2.6249416,-1.0058662,0.66805184,2.5566297,10.873212182566231,2.827439693096183,walk
23/10/2020, 15:42:12,-10.075848,-3.1326857,2.6249416,-1.0095314,0.671717,2.5945034,10.873212182566231,2.8638794009927686,walk
23/10/2020, 15:42:12,-10.236314,-3.2021413,2.6393116,-1.0095314,0.671717,2.5945034,11.045442268043432,2.8638794009927686,walk
23/10/2020, 15:42:12,-10.236314,-3.2021413,2.6393116,-1.010753,0.67293876,2.6152728,11.045442268043432,2.8834215595938533,walk
23/10/2020, 15:42:12,-10.504556,-3.2859669,2.6105714,-1.010753,0.67293876,2.6152728,11.311867739042464,2.8834215595938533,walk
23/10/2020, 15:42:12,-10.504556,-3.2859669,2.6105714,-1.0205269,0.6704953,2.6238248,11.311867739042464,2.8940448853131144,walk
23/10/2020, 15:42:12,-10.861414,-3.3673975,2.459685,-1.0205269,0.6704953,2.6238248,11.634420057872179,2.8940448853131144,walk
23/10/2020, 15:42:12,-10.861414,-3.3673975,2.459685,-1.047405,0.66683006,2.6152728,11.634420057872179,2.895059789959614,walk
23/10/2020, 15:42:12,-11.239827,-3.4703834,2.2585034,-1.047405,0.66683006,2.6152728,11.978234980824478,2.895059789959614,walk
23/10/2020, 15:42:12,-11.239827,-3.4703834,2.2585034,-1.0962741,0.66927356,2.600612,11.978234980824478,2.900504518431779,walk
23/10/2020, 15:42:12,-11.824212,-3.5709743,2.083667,-1.0962741,0.66927356,2.600612,12.52619324929857,2.900504518431779,walk
23/10/2020, 15:42:12,-11.824212,-3.5709743,2.083667,-1.1536955,0.6875995,2.5761774,12.52619324929857,2.905253182112254,walk
23/10/2020, 15:42:12,-12.585828,-3.6859353,1.8537452,-1.1536955,0.6875995,2.5761774,13.244831149670436,2.905253182112254,walk
23/10/2020, 15:42:12,-12.585828,-3.6859353,1.8537452,-1.2245559,0.70103854,2.5334167,13.244831149670436,2.8998607695650196,walk
23/10/2020, 15:42:12,-13.4743805,-3.7314405,1.5519727,-1.2245559,0.70103854,2.5334167,14.0673806238364,2.8998607695650196,walk
23/10/2020, 15:42:12,-13.4743805,-3.7314405,1.5519727,-1.336955,0.6704953,2.4674435,14.0673806238364,2.88535781315671,walk
23/10/2020, 15:42:12,-14.180911,-3.767366,1.3004956,-1.336955,0.6704953,2.4674435,14.730328358452233,2.88535781315671,walk
23/10/2020, 15:42:12,-14.180911,-3.767366,1.3004956,-1.4970016,0.5752003,2.3807006,14.730328358452233,2.870471151580402,walk
23/10/2020, 15:42:12,-14.384488,-3.6907253,1.1639795,-1.4970016,0.5752003,2.3807006,14.89596589174864,2.870471151580402,walk
23/10/2020, 15:42:13,-10.818304,-3.523074,3.4775686,-0.46830487,-0.9287493,-0.67240274,11.897110410259874,1.2385516551644853,walk
23/10/2020, 15:42:13,-10.207574,-3.3506324,3.151846,-0.46830487,-0.9287493,-0.67240274,11.196224148703593,1.2385516551644853,walk
23/10/2020, 15:42:13,-10.207574,-3.3506324,3.151846,-0.5428304,-0.99960965,-0.79701924,11.196224148703593,1.388929075319633,walk
23/10/2020, 15:42:13,-9.726174,-3.2141163,2.9171338,-0.5428304,-0.99960965,-0.79701924,10.650759646340125,1.388929075319633,walk
23/10/2020, 15:42:13,-9.726174,-3.2141163,2.9171338,-0.6149125,-1.0570309,-0.93140954,10.650759646340125,1.5371907753354468,walk
23/10/2020, 15:42:13,-9.314231,-3.0752053,2.7662477,-0.6149125,-1.0570309,-0.93140954,10.191364580786924,1.5371907753354468,walk
23/10/2020, 15:42:13,-9.314231,-3.0752053,2.7662477,-0.6772207,-1.102235,-1.0682433,10.191364580786924,1.6777048188407844,walk
23/10/2020, 15:42:13,-8.957374,-2.8740237,2.703977,-0.6772207,-1.102235,-1.0682433,9.788056315843345,1.6777048188407844,walk
23/10/2020, 15:42:13,-8.957374,-2.8740237,2.703977,-0.72120297,-1.1303347,-1.2124075,9.788056315843345,1.8076842116234648,walk
23/10/2020, 15:42:13,-8.701106,-2.7566676,2.7159522,-0.72120297,-1.1303347,-1.2124075,9.522859829137376,1.8076842116234648,walk
23/10/2020, 15:42:13,-8.701106,-2.7566676,2.7159522,-0.73586375,-1.1413304,-1.3492413,9.522859829137376,1.914309905452492,walk
23/10/2020, 15:42:13,-8.672366,-2.668052,2.7111623,-0.73586375,-1.1413304,-1.3492413,9.469891072728851,1.914309905452492,walk
23/10/2020, 15:42:13,-8.672366,-2.668052,2.7111623,-0.7114292,-1.1449956,-1.4738576,9.469891072728851,1.9973489125958535,walk
23/10/2020, 15:42:13,-8.854387,-2.694397,2.7518775,-0.7114292,-1.1449956,-1.4738576,9.65571225955173,1.9973489125958535,walk
23/10/2020, 15:42:13,-8.854387,-2.694397,2.7518775,-0.67111206,-1.1547694,-1.5813699,9.65571225955173,2.069931037514157,walk
23/10/2020, 15:42:13,-9.144185,-2.7854078,2.7231374,-0.67111206,-1.1547694,-1.5813699,9.939320611509343,2.069931037514157,walk
23/10/2020, 15:42:13,-9.144185,-2.7854078,2.7231374,-0.6234646,-1.1694301,-1.6742214,9.939320611509343,2.1352499190573972,walk
23/10/2020, 15:42:13,-9.515413,-2.8692336,2.7614577,-0.6234646,-1.1694301,-1.6742214,10.315097672699476,2.1352499190573972,walk
23/10/2020, 15:42:13,-9.515413,-2.8692336,2.7614577,-0.56482154,-1.192643,-1.7548555,10.315097672699476,2.195663608825348,walk
23/10/2020, 15:42:13,-9.848321,-3.0656252,2.816543,-0.56482154,-1.192643,-1.7548555,10.692071764060717,2.195663608825348,walk
23/10/2020, 15:42:13,-9.848321,-3.0656252,2.816543,-0.47807872,-1.2207428,-1.8257159,10.692071764060717,2.2476678686197062,walk
23/10/2020, 15:42:13,-10.186019,-3.2859669,2.7638526,-0.47807872,-1.2207428,-1.8257159,11.054023764617284,2.2476678686197062,walk
23/10/2020, 15:42:13,-10.186019,-3.2859669,2.7638526,-0.36567956,-1.2390687,-1.8819155,11.054023764617284,2.282677958486642,walk
23/10/2020, 15:42:13,-10.626702,-3.4967287,2.799778,-0.36567956,-1.2390687,-1.8819155,11.532244795890088,2.282677958486642,walk
23/10/2020, 15:42:13,-10.626702,-3.4967287,2.799778,-0.22029369,-1.2463992,-1.9234543,11.532244795890088,2.3025456715831396,walk
23/10/2020, 15:42:13,-11.053016,-3.7003052,2.6608667,-0.22029369,-1.2463992,-1.9234543,11.955819787974706,2.3025456715831396,walk
23/10/2020, 15:42:13,-11.053016,-3.7003052,2.6608667,-0.06513398,-1.2476208,-1.9576627,11.955819787974706,2.3223357642224585,walk
23/10/2020, 15:42:13,-11.53202,-3.8176613,2.5962012,-0.06513398,-1.2476208,-1.9576627,12.421846669040452,2.3223357642224585,walk
23/10/2020, 15:42:13,-11.53202,-3.8176613,2.5962012,0.094912656,-1.2476208,-1.9711018,12.421846669040452,2.334696613454432,walk
23/10/2020, 15:42:13,-11.996654,-3.8152664,2.4189699,0.094912656,-1.2476208,-1.9711018,12.819023725405298,2.334696613454432,walk
23/10/2020, 15:42:14,-7.5012016,0.80233157,1.8537452,-3.137785,-0.3129974,-0.21058881,7.768406090056206,3.1603812211354008,walk
23/10/2020, 15:42:14,-7.32876,0.13891114,1.9447559,-3.137785,-0.3129974,-0.21058881,7.583673064937906,3.1603812211354008,walk
23/10/2020, 15:42:14,-7.32876,0.13891114,1.9447559,-3.4664302,-0.28978452,-0.13361983,7.583673064937906,3.4810871247948247,walk
23/10/2020, 15:42:14,-7.4054008,-0.5604346,2.189048,-3.4664302,-0.28978452,-0.13361983,7.7424788410674426,3.4810871247948247,walk
23/10/2020, 15:42:14,-7.4054008,-0.5604346,2.189048,-3.6228118,-0.2690151,-0.043211795,7.7424788410674426,3.633043033325609,walk
23/10/2020, 15:42:14,-7.4964113,-1.4058765,2.5866213,-3.6228118,-0.2690151,-0.043211795,8.053774343936086,3.633043033325609,walk
23/10/2020, 15:42:14,-7.4964113,-1.4058765,2.5866213,-3.6386943,-0.25068915,0.037422385,8.053774343936086,3.6475116989218743,walk
23/10/2020, 15:42:14,-7.5706573,-2.2177882,2.8836036,-3.6386943,-0.25068915,0.037422385,8.399321722501554,3.6475116989218743,walk
23/10/2020, 15:42:14,-7.5706573,-2.2177882,2.8836036,-3.5238516,-0.23358493,0.09973062,8.399321722501554,3.53299284538839,walk
23/10/2020, 15:42:14,-7.6449027,-2.9027638,3.2236965,-3.5238516,-0.23358493,0.09973062,8.789925724950978,3.53299284538839,walk
23/10/2020, 15:42:14,-7.6449027,-2.9027638,3.2236965,-3.2746186,-0.2079286,0.13760424,8.789925724950978,3.284097497206966,walk
23/10/2020, 15:42:14,-7.7335186,-3.5637891,3.5757644,-3.2746186,-0.2079286,0.13760424,9.235474761594675,3.284097497206966,walk
23/10/2020, 15:42:14,-7.7335186,-3.5637891,3.5757644,-2.8873303,-0.17127669,0.16326056,9.235474761594675,2.897009827483357,walk
23/10/2020, 15:42:14,-7.92991,-4.1242237,3.8008962,-2.8873303,-0.17127669,0.16326056,9.712852742140752,2.897009827483357,walk
23/10/2020, 15:42:14,-7.92991,-4.1242237,3.8008962,-2.3668733,-0.13340306,0.18402998,9.712852742140752,2.377762069799458,walk
23/10/2020, 15:42:14,-8.198153,-4.4906616,3.8679566,-2.3668733,-0.13340306,0.18402998,10.116167033762727,2.377762069799458,walk
23/10/2020, 15:42:14,-8.198153,-4.4906616,3.8679566,-1.7389041,-0.10530327,0.19869074,10.116167033762727,1.753383678419227,walk
23/10/2020, 15:42:14,-8.346643,-4.5936475,3.8631666,-1.7389041,-0.10530327,0.19869074,10.28066680567335,1.753383678419227,walk
23/10/2020, 15:42:14,-8.346643,-4.5936475,3.8631666,-1.0449615,-0.07476002,0.20602112,10.28066680567335,1.0676976152622617,walk
23/10/2020, 15:42:14,-8.396939,-4.4667115,3.8440065,-1.0449615,-0.07476002,0.20602112,10.258483675128565,1.0676976152622617,walk
23/10/2020, 15:42:14,-8.396939,-4.4667115,3.8440065,-0.33391458,-0.018560443,0.20846458,10.258483675128565,0.3940823716138523,walk
23/10/2020, 15:42:14,-8.272398,-4.030818,3.6811452,-0.33391458,-0.018560443,0.20846458,9.91114988983365,0.3940823716138523,walk
23/10/2020, 15:42:14,-8.272398,-4.030818,3.6811452,0.32337618,0.05596509,0.20357767,9.91114988983365,0.3861969844278828,walk
23/10/2020, 15:42:14,-8.234077,-3.4248781,3.65959,0.32337618,0.05596509,0.20357767,9.639627620554018,0.3861969844278828,walk
23/10/2020, 15:42:14,-8.234077,-3.4248781,3.65959,0.88048506,0.12193851,0.17303441,9.639627620554018,0.9055737663818411,walk
23/10/2020, 15:42:14,-8.349038,-2.8955786,3.4512234,0.88048506,0.12193851,0.17303441,9.486925525771209,0.9055737663818411,walk
23/10/2020, 15:42:14,-8.349038,-2.8955786,3.4512234,1.3141992,0.16469906,0.13393904,9.486925525771209,1.3312343933014539,walk
23/10/2020, 15:42:14,-8.52627,-2.5123756,3.4009278,1.3141992,0.16469906,0.13393904,9.51712243929657,1.3312343933014539,walk
23/10/2020, 15:42:14,-8.52627,-2.5123756,3.4009278,1.6281838,0.19035539,0.089956775,9.51712243929657,1.6417399362975353,walk
23/10/2020, 15:42:14,-8.689131,-2.1650977,3.3171022,1.6281838,0.19035539,0.089956775,9.54944023692957,1.6417399362975353,walk
23/10/2020, 15:42:15,-8.169412,-1.84177,2.684817,0.061925948,1.1139833,1.7539531,8.794296249050394,2.078736402485252,walk
23/10/2020, 15:42:15,-8.538245,-1.7914747,2.7279274,0.061925948,1.1139833,1.7539531,9.140711179529351,2.078736402485252,walk
23/10/2020, 15:42:15,-8.538245,-1.7914747,2.7279274,-0.043142837,1.1396396,1.8736826,9.140711179529351,2.1934735722717176,walk
23/10/2020, 15:42:15,-8.897498,-1.7962648,2.6441016,-0.043142837,1.1396396,1.8736826,9.454274878511704,2.1934735722717176,walk
23/10/2020, 15:42:15,-8.897498,-1.7962648,2.6441016,-0.16287237,1.1555221,1.9885253,9.454274878511704,2.3056434042468865,walk
23/10/2020, 15:42:15,-9.239985,-1.7555494,2.6488917,-0.16287237,1.1555221,1.9885253,9.771177635661065,2.3056434042468865,walk
23/10/2020, 15:42:15,-9.239985,-1.7555494,2.6488917,-0.2935975,1.160409,2.0911505,9.771177635661065,2.409493510835283,walk
23/10/2020, 15:42:15,-9.539363,-1.698069,2.6201515,-0.2935975,1.160409,2.0911505,10.03733415377134,2.409493510835283,walk
23/10/2020, 15:42:15,-9.539363,-1.698069,2.6201515,-0.44631374,1.1640742,2.1876671,10.03733415377134,2.5179658722393365,walk
23/10/2020, 15:42:15,-9.927357,-1.6789087,2.5866213,-0.44631374,1.1640742,2.1876671,10.395275636413448,2.5179658722393365,walk
23/10/2020, 15:42:15,-9.927357,-1.6789087,2.5866213,-0.6246863,1.1909523,2.2854056,10.395275636413448,2.651731373644151,walk
23/10/2020, 15:42:15,-10.391991,-1.7411792,2.3423293,-0.6246863,1.1909523,2.2854056,10.794057689032806,2.651731373644151,walk
23/10/2020, 15:42:15,-10.391991,-1.7411792,2.3423293,-0.80916756,1.2557039,2.4026916,10.794057689032806,2.829217459687343,walk
23/10/2020, 15:42:15,-11.163186,-1.9351759,2.2848487,-0.80916756,1.2557039,2.4026916,11.557774984433618,2.829217459687343,walk
23/10/2020, 15:42:15,-11.163186,-1.9351759,2.2848487,-0.96310556,1.3375598,2.537082,11.557774984433618,3.0254625174156007,walk
23/10/2020, 15:42:15,-12.3415365,-2.1171973,2.198628,-0.96310556,1.3375598,2.537082,12.713379286433,3.0254625174156007,walk
23/10/2020, 15:42:15,-12.3415365,-2.1171973,2.198628,-1.110935,1.418194,2.6653636,12.713379286433,3.217081557496941,walk
23/10/2020, 15:42:15,-13.622871,-2.3375392,2.088457,-1.110935,1.418194,2.6653636,13.978854306938912,3.217081557496941,walk
23/10/2020, 15:42:15,-13.622871,-2.3375392,2.088457,-1.2941945,1.4695067,2.7667673,13.978854306938912,3.3896003378786297,walk
23/10/2020, 15:42:15,-14.980847,-2.5267458,2.0190015,-1.2941945,1.4695067,2.7667673,15.326010534234591,3.3896003378786297,walk
23/10/2020, 15:42:15,-14.980847,-2.5267458,2.0190015,-1.5189928,1.4695067,2.8364058,15.326010534234591,3.537228679783618,walk
23/10/2020, 15:42:15,-16.231049,-2.565066,1.9711012,-1.5189928,1.4695067,2.8364058,16.550279213073793,3.537228679783618,walk
23/10/2020, 15:42:15,-16.231049,-2.565066,1.9711012,-1.780443,1.3974247,2.8730578,16.550279213073793,3.657490158626921,walk
23/10/2020, 15:42:15,-17.06691,-2.694397,1.9088306,-1.780443,1.3974247,2.8730578,17.38340643401349,3.657490158626921,walk
23/10/2020, 15:42:15,-17.06691,-2.694397,1.9088306,-2.073658,1.2410432,2.8938272,17.38340643401349,3.7702097514163304,walk
23/10/2020, 15:42:15,-17.1196,-2.924319,2.0261867,-2.073658,1.2410432,2.8938272,17.48535926539879,3.7702097514163304,walk
23/10/2020, 15:42:15,-17.1196,-2.924319,2.0261867,-2.3839774,1.024797,2.9011576,17.48535926539879,3.8923351144725453,walk
23/10/2020, 15:42:15,-16.310083,-3.175796,2.2297633,-2.3839774,1.024797,2.9011576,16.765331635239903,3.8923351144725453,walk
23/10/2020, 15:42:15,-16.310083,-3.175796,2.2297633,-2.6833014,0.8171029,2.8852751,16.765331635239903,4.024000047109856,walk
23/10/2020, 15:42:15,-14.894628,-3.422483,2.562671,-2.6833014,0.8171029,2.8852751,15.496147989807893,4.024000047109856,walk
23/10/2020, 15:42:16,-12.111614,-2.562671,0.9915381,1.2286781,-1.2390687,-2.4060376,12.419405355624857,2.972197509191394,walk
23/10/2020, 15:42:16,-11.960728,-2.4836354,1.1280543,1.2286781,-1.2390687,-2.4060376,12.267842445074665,2.972197509191394,walk
23/10/2020, 15:42:16,-11.960728,-2.4836354,1.1280543,1.1443787,-1.2415122,-2.4035943,12.267842445074665,2.9373832502155093,walk
23/10/2020, 15:42:16,-11.749967,-2.2944288,1.0825489,1.1443787,-1.2415122,-2.4035943,12.020733391350754,2.9373832502155093,walk
23/10/2020, 15:42:16,-11.749967,-2.2944288,1.0825489,1.0222057,-1.2439556,-2.3925986,12.020733391350754,2.8838963710507697,walk
23/10/2020, 15:42:16,-11.577525,-2.1507277,1.1280543,1.0222057,-1.2439556,-2.3925986,11.829506524230446,2.8838963710507697,walk
23/10/2020, 15:42:16,-11.577525,-2.1507277,1.1280543,0.8694895,-1.2402905,-2.3706076,11.829506524230446,2.813203337359772,walk
23/10/2020, 15:42:16,-11.297308,-2.074087,1.1304493,0.8694895,-1.2402905,-2.3706076,11.541616846143446,2.813203337359772,walk
23/10/2020, 15:42:16,-11.297308,-2.074087,1.1304493,0.6972256,-1.2329601,-2.3437295,11.541616846143446,2.738499966627414,walk
23/10/2020, 15:42:16,-10.914104,-1.9711012,1.1496094,0.6972256,-1.2329601,-2.3437295,11.150090487602792,2.738499966627414,walk
23/10/2020, 15:42:16,-10.914104,-1.9711012,1.1496094,0.5139661,-1.219521,-2.319295,11.150090487602792,2.6703036692310222,walk
23/10/2020, 15:42:16,-10.605147,-2.0166066,1.0466236,0.5139661,-1.219521,-2.319295,10.84579520155112,2.6703036692310222,walk
23/10/2020, 15:42:16,-10.605147,-2.0166066,1.0466236,0.33315003,-1.1963083,-2.2850864,10.84579520155112,2.600723400997432,walk
23/10/2020, 15:42:16,-10.207574,-2.1100123,1.0202783,0.33315003,-1.1963083,-2.2850864,10.473188840555384,2.600723400997432,walk
23/10/2020, 15:42:16,-10.207574,-2.1100123,1.0202783,0.18043377,-1.1620997,-2.2447693,10.473188840555384,2.534170765163483,walk
23/10/2020, 15:42:16,-9.884246,-2.2441335,1.0729688,0.18043377,-1.1620997,-2.2447693,10.192434137291196,2.534170765163483,walk
23/10/2020, 15:42:16,-9.884246,-2.2441335,1.0729688,0.060704216,-1.1193392,-2.191013,10.192434137291196,2.4611265109840406,walk
23/10/2020, 15:42:16,-9.462723,-2.315984,1.0035132,0.060704216,-1.1193392,-2.191013,9.79356641340537,2.4611265109840406,walk
23/10/2020, 15:42:16,-9.462723,-2.315984,1.0035132,-0.027260344,-1.0668048,-2.133592,9.79356641340537,2.385587955000259,walk
23/10/2020, 15:42:16,-9.072334,-2.43813,0.974773,-0.027260344,-1.0668048,-2.133592,9.444676239097634,2.385587955000259,walk
23/10/2020, 15:42:16,-9.072334,-2.43813,0.974773,-0.08468166,-1.0130486,-2.070062,9.444676239097634,2.3062079068576185,walk
23/10/2020, 15:42:16,-8.638836,-2.4692652,1.0059083,-0.08468166,-1.0130486,-2.070062,9.040940657702935,2.3062079068576185,walk
23/10/2020, 15:42:16,-8.638836,-2.4692652,1.0059083,-0.11400318,-0.95440567,-2.0040884,9.040940657702935,2.2226689411004337,walk
23/10/2020, 15:42:16,-8.236472,-2.548301,0.9364527,-0.11400318,-0.95440567,-2.0040884,8.672384601269988,2.2226689411004337,walk
23/10/2020, 15:42:16,-8.236472,-2.548301,0.9364527,-0.11033799,-0.89698434,-1.9332281,8.672384601269988,2.1340399241469363,walk
23/10/2020, 15:42:16,-7.800579,-2.5219557,1.0226734,-0.11033799,-0.89698434,-1.9332281,8.261667831548229,2.1340399241469363,walk
23/10/2020, 15:42:16,-7.800579,-2.5219557,1.0226734,-0.08590339,-0.82978916,-1.8623679,8.261667831548229,2.040672321272614,walk
23/10/2020, 15:42:16,-7.3096,-2.5315359,1.0226734,-0.08590339,-0.82978916,-1.8623679,7.802870305327375,2.040672321272614,walk
23/10/2020, 15:42:16,-7.3096,-2.5315359,1.0226734,-0.039477646,-0.7515985,-1.7878423,7.802870305327375,1.939803791987459,walk
23/10/2020, 15:42:16,-6.9240017,-2.5147705,1.0753639,-0.039477646,-0.7515985,-1.7878423,7.444614001015707,1.939803791987459,walk
23/10/2020, 15:42:17,-9.16095,-3.7218604,3.6140847,-0.015043045,0.14392966,0.037422385,10.527908282511774,0.14947399519222507,walk
23/10/2020, 15:42:17,-9.16095,-3.7218604,3.6140847,0.07780843,0.118273325,-0.004116436,10.527908282511774,0.1416321878969981,walk
23/10/2020, 15:42:17,-9.295072,-3.8104763,3.6404297,0.07780843,0.118273325,-0.004116436,10.685074374900148,0.1416321878969981,walk
23/10/2020, 15:42:17,-9.295072,-3.8104763,3.6404297,0.165773,0.08650834,-0.06275948,10.685074374900148,0.19723877544754623,walk
23/10/2020, 15:42:17,-9.393267,-3.772156,3.5877395,0.165773,0.08650834,-0.06275948,10.739389845713985,0.19723877544754623,walk
23/10/2020, 15:42:17,-9.393267,-3.772156,3.5877395,0.24396372,0.03641741,-0.12995464,10.739389845713985,0.27880590216231,walk
23/10/2020, 15:42:17,-9.445957,-3.6763551,3.4560134,0.24396372,0.03641741,-0.12995464,10.70914202997119,0.27880590216231,walk
23/10/2020, 15:42:17,-9.445957,-3.6763551,3.4560134,0.29527637,-0.022225633,-0.2057019,10.70914202997119,0.36054873219953826,walk
23/10/2020, 15:42:17,-9.469908,-3.5805542,3.2141163,0.29527637,-0.022225633,-0.2057019,10.622149760007758,0.36054873219953826,walk
23/10/2020, 15:42:17,-9.469908,-3.5805542,3.2141163,0.30993715,-0.07476002,-0.2875578,10.622149760007758,0.42934786766735245,walk
23/10/2020, 15:42:17,-9.381292,-3.4775686,2.9841945,0.30993715,-0.07476002,-0.2875578,10.440667914214156,0.42934786766735245,walk
23/10/2020, 15:42:17,-9.381292,-3.4775686,2.9841945,0.3087154,-0.09797289,-0.37430063,10.440667914214156,0.49497964453607524,walk
23/10/2020, 15:42:17,-9.560919,-3.4488282,2.7399025,0.3087154,-0.09797289,-0.37430063,10.52675877162064,0.49497964453607524,walk
23/10/2020, 15:42:17,-9.560919,-3.4488282,2.7399025,0.31848925,-0.08453386,-0.4500479,10.52675877162064,0.5577853530262372,walk
23/10/2020, 15:42:17,-10.162068,-3.6164796,2.6417067,0.31848925,-0.08453386,-0.4500479,11.105186750500982,0.5577853530262372,walk
23/10/2020, 15:42:17,-10.162068,-3.6164796,2.6417067,0.3453673,-0.06376445,-0.517243,11.105186750500982,0.6252078339599878,walk
23/10/2020, 15:42:17,-11.03625,-3.7937112,2.562671,0.3453673,-0.06376445,-0.517243,11.948152305910726,0.6252078339599878,walk
23/10/2020, 15:42:17,-11.03625,-3.7937112,2.562671,0.378354,-0.07109483,-0.5795513,11.948152305910726,0.6957628332080187,walk
23/10/2020, 15:42:17,-11.9056425,-3.8895118,2.567461,0.378354,-0.07109483,-0.5795513,12.785322907411027,0.6957628332080187,walk
23/10/2020, 15:42:17,-11.9056425,-3.8895118,2.567461,0.4052321,-0.11263365,-0.64185953,12.785322907411027,0.7673871604790982,walk
23/10/2020, 15:42:17,-12.564273,-4.0020776,2.6441016,0.4052321,-0.11263365,-0.64185953,13.448749062450418,0.7673871604790982,walk
23/10/2020, 15:42:17,-12.564273,-4.0020776,2.6441016,0.41989285,-0.17738535,-0.702946,13.448749062450418,0.837799888506471,walk
23/10/2020, 15:42:17,-13.043277,-4.0020776,2.804568,0.41989285,-0.17738535,-0.702946,13.928721989093056,0.837799888506471,walk
23/10/2020, 15:42:17,-13.043277,-4.0020776,2.804568,0.41622767,-0.25679782,-0.76158905,13.928721989093056,0.9051013612281015,walk
23/10/2020, 15:42:17,-13.263618,-3.9829175,2.8883936,0.41622767,-0.25679782,-0.76158905,14.146731951518172,0.9051013612281015,walk
23/10/2020, 15:42:17,-13.263618,-3.9829175,2.8883936,0.38812786,-0.3337668,-0.825119,14.146731951518172,0.9710123078872475,walk
23/10/2020, 15:42:17,-13.328284,-3.9685476,2.8428884,0.38812786,-0.3337668,-0.825119,14.194172942712475,0.9710123078872475,walk
23/10/2020, 15:42:17,-13.328284,-3.9685476,2.8428884,0.34292385,-0.39363158,-0.89597934,14.194172942712475,1.0369771318420282,walk
23/10/2020, 15:42:17,-13.543836,-4.018843,2.8883936,0.34292385,-0.39363158,-0.89597934,14.419757353080355,1.0369771318420282,walk
23/10/2020, 15:42:17,-13.543836,-4.018843,2.8883936,0.29894158,-0.4473877,-0.96928316,14.419757353080355,1.108617008153058,walk
23/10/2020, 15:42:18,-11.218272,-4.133804,-0.64186525,0.8389462,-0.19448957,0.34652007,11.972884221730755,0.9282958117360071,walk
23/10/2020, 15:42:18,-11.184742,-3.7027004,-0.6945557,0.8389462,-0.19448957,0.34652007,11.802154494861377,0.9282958117360071,walk
23/10/2020, 15:42:18,-11.184742,-3.7027004,-0.6945557,0.66057366,-0.23602839,0.30742472,11.802154494861377,0.7658831001124302,walk
23/10/2020, 15:42:18,-11.060201,-3.168611,-0.6730005,0.66057366,-0.23602839,0.30742472,11.52480216778741,0.7658831001124302,walk
23/10/2020, 15:42:18,-11.060201,-3.168611,-0.6730005,0.37468883,-0.2848976,0.2829901,11.52480216778741,0.5492192256811577,walk
23/10/2020, 15:42:18,-10.693763,-2.6345215,-0.43589357,0.37468883,-0.2848976,0.2829901,11.022126338895534,0.5492192256811577,walk
23/10/2020, 15:42:18,-10.693763,-2.6345215,-0.43589357,-0.0028257454,-0.33987546,0.2573338,11.022126338895534,0.42631442619040183,walk
23/10/2020, 15:42:18,-10.197993,-2.069297,-0.17244141,-0.0028257454,-0.33987546,0.2573338,10.407247154427278,0.42631442619040183,walk
23/10/2020, 15:42:18,-10.197993,-2.069297,-0.17244141,-0.46219623,-0.382636,0.21946014,10.407247154427278,0.6389040832363675,walk
23/10/2020, 15:42:18,-9.553733,-1.6525636,0.047900394,-0.46219623,-0.382636,0.21946014,9.695724449296607,0.6389040832363675,walk
23/10/2020, 15:42:18,-9.553733,-1.6525636,0.047900394,-0.97532284,-0.4070706,0.1766996,9.695724449296607,1.0715334211933232,walk
23/10/2020, 15:42:18,-8.974138,-1.3627661,0.1939966,-0.97532284,-0.4070706,0.1766996,9.079092672524942,1.0715334211933232,walk
23/10/2020, 15:42:18,-8.974138,-1.3627661,0.1939966,-1.5104407,-0.41195753,0.1278304,9.079092672524942,1.5708216798009111,walk
23/10/2020, 15:42:18,-8.499925,-1.2741505,0.39278322,-1.5104407,-0.41195753,0.1278304,8.603862932176964,1.5708216798009111,walk
23/10/2020, 15:42:18,-8.499925,-1.2741505,0.39278322,-2.0296757,-0.4070706,0.09362197,8.603862932176964,2.072210194245167,walk
23/10/2020, 15:42:18,-8.121511,-1.3723463,0.5724097,-2.0296757,-0.4070706,0.09362197,8.256508678288053,2.072210194245167,walk
23/10/2020, 15:42:18,-8.121511,-1.3723463,0.5724097,-2.531807,-0.40096197,0.069187365,8.256508678288053,2.5642940159001575,walk
23/10/2020, 15:42:18,-7.767049,-1.6453785,0.58677983,-2.531807,-0.40096197,0.069187365,7.961069557549777,2.5642940159001575,walk
23/10/2020, 15:42:18,-7.767049,-1.6453785,0.58677983,-2.9936209,-0.39729676,0.050861415,7.961069557549777,3.0202975887270407,walk
23/10/2020, 15:42:18,-7.460486,-1.9878663,0.7544312,-2.9936209,-0.39729676,0.050861415,7.7575530397171795,3.0202975887270407,walk
23/10/2020, 15:42:18,-7.460486,-1.9878663,0.7544312,-3.354031,-0.3863012,0.044752765,7.7575530397171795,3.3765005471328546,walk
23/10/2020, 15:42:18,-7.199429,-2.3998096,0.86220706,-3.354031,-0.3863012,0.044752765,7.637687185897451,3.3765005471328546,walk
23/10/2020, 15:42:18,-7.199429,-2.3998096,0.86220706,-3.5702775,-0.3618666,0.053304877,7.637687185897451,3.5889650219700275,walk
23/10/2020, 15:42:18,-7.038963,-2.936294,1.0178833,-3.5702775,-0.3618666,0.053304877,7.6944725101087865,3.5889650219700275,walk
23/10/2020, 15:42:18,-7.038963,-2.936294,1.0178833,-3.635029,-0.33132333,0.07773948,7.6944725101087865,3.6509252206674736,walk
23/10/2020, 15:42:18,-6.964717,-3.3769777,1.0466236,-3.635029,-0.33132333,0.07773948,7.810677362073135,3.6509252206674736,walk
23/10/2020, 15:42:18,-6.964717,-3.3769777,1.0466236,-3.571499,-0.28978452,0.11439138,7.810677362073135,3.5850615536750547,walk
23/10/2020, 15:42:18,-6.9024467,-3.8104763,1.0681788,-3.571499,-0.28978452,0.11439138,7.95641292544528,3.5850615536750547,walk
23/10/2020, 15:42:18,-6.9024467,-3.8104763,1.0681788,-3.409009,-0.23602839,0.15593019,7.95641292544528,3.4207259242594086,walk
23/10/2020, 15:42:18,-6.844966,-4.1074586,1.0226734,-3.409009,-0.23602839,0.15593019,8.04802059807553,3.4207259242594086,walk
23/10/2020, 15:42:19,-6.5072684,-2.1219873,1.4298267,0.21830739,-0.69295543,-0.8715448,6.992265525844049,1.1346522161009047,walk
23/10/2020, 15:42:19,-6.5072684,-2.1219873,1.4298267,0.21219875,-0.6343124,-0.7469283,6.992265525844049,1.0026377044238288,walk
23/10/2020, 15:42:19,-6.351592,-2.1555176,1.4298267,0.21219875,-0.6343124,-0.7469283,6.858088820664218,1.0026377044238288,walk
23/10/2020, 15:42:19,-6.351592,-2.1555176,1.4298267,0.21219875,-0.5707824,-0.61009455,6.858088820664218,0.8619954989407518,walk
23/10/2020, 15:42:19,-6.2941117,-2.1171973,1.4106666,0.21219875,-0.5707824,-0.61009455,6.788839883872498,0.8619954989407518,walk
23/10/2020, 15:42:19,-6.2941117,-2.1171973,1.4106666,0.2146422,-0.5023655,-0.46470866,6.788839883872498,0.71721442608425,walk
23/10/2020, 15:42:19,-6.3923073,-2.1339624,1.4274317,0.2146422,-0.5023655,-0.46470866,6.888610102232861,0.71721442608425,walk
23/10/2020, 15:42:19,-6.3923073,-2.1339624,1.4274317,0.21219875,-0.4473877,-0.3034403,6.888610102232861,0.5807409717945103,walk
23/10/2020, 15:42:19,-6.5168486,-2.0213966,1.4034815,0.21219875,-0.4473877,-0.3034403,6.965997404993464,0.5807409717945103,walk
23/10/2020, 15:42:19,-6.5168486,-2.0213966,1.4034815,0.20120317,-0.4070706,-0.1409502,6.965997404993464,0.4754536290079228,walk
23/10/2020, 15:42:19,-6.595884,-1.9351759,1.5088624,0.20120317,-0.4070706,-0.1409502,7.037560311021924,0.4754536290079228,walk
23/10/2020, 15:42:19,-6.595884,-1.9351759,1.5088624,0.17065993,-0.37652734,0.028870275,7.037560311021924,0.41440456261303327,walk
23/10/2020, 15:42:19,-6.605464,-1.8585353,1.590293,0.17065993,-0.37652734,0.028870275,7.043815714523725,0.41440456261303327,walk
23/10/2020, 15:42:19,-6.605464,-1.8585353,1.590293,0.11812553,-0.34964928,0.20602112,7.043815714523725,0.4226735850640485,walk
23/10/2020, 15:42:19,-6.550379,-1.7794995,1.5615528,0.11812553,-0.34964928,0.20602112,6.96509354049245,0.4226735850640485,walk
23/10/2020, 15:42:19,-6.550379,-1.7794995,1.5615528,0.04848692,-0.32521468,0.38683715,6.96509354049245,0.5076992772624617,walk
23/10/2020, 15:42:19,-6.3994923,-1.7315992,1.5926881,0.04848692,-0.32521468,0.38683715,6.81825435108505,0.5076992772624617,walk
23/10/2020, 15:42:19,-6.3994923,-1.7315992,1.5926881,-0.039477646,-0.29589316,0.5700967,6.81825435108505,0.6435226982144056,walk
23/10/2020, 15:42:19,-6.241421,-1.6525636,1.6190332,-0.039477646,-0.29589316,0.5700967,6.656393452720227,0.6435226982144056,walk
23/10/2020, 15:42:19,-6.241421,-1.6525636,1.6190332,-0.15065508,-0.25068915,0.75213444,6.656393452720227,0.8069995171080225,walk
23/10/2020, 15:42:19,-6.1144853,-1.6310084,1.5687379,-0.15065508,-0.25068915,0.75213444,6.519820310884588,0.8069995171080225,walk
23/10/2020, 15:42:19,-6.1144853,-1.6310084,1.5687379,-0.277715,-0.1957113,0.9329505,6.519820310884588,0.9928872856256045,walk
23/10/2020, 15:42:19,-6.090535,-1.6908839,1.4968873,-0.277715,-0.1957113,0.9329505,6.4957200161556194,0.9928872856256045,walk
23/10/2020, 15:42:19,-6.090535,-1.6908839,1.4968873,-0.41943568,-0.13584653,1.1174318,6.4957200161556194,1.2012636288266048,walk
23/10/2020, 15:42:19,-6.1504107,-1.7339942,1.4322218,-0.41943568,-0.13584653,1.1174318,6.548705706704355,1.2012636288266048,walk
23/10/2020, 15:42:19,-6.1504107,-1.7339942,1.4322218,-0.56482154,-0.07720348,1.3043565,6.548705706704355,1.423492014383953,walk
23/10/2020, 15:42:19,-6.332432,-1.7531544,1.3651612,-0.56482154,-0.07720348,1.3043565,6.710954313969479,1.423492014383953,walk
23/10/2020, 15:42:19,-6.332432,-1.7531544,1.3651612,-0.7089857,-0.021003902,1.4912812,6.710954313969479,1.6513695349339372,walk
23/10/2020, 15:42:19,-6.5455885,-1.829795,1.341211,-0.7089857,-0.021003902,1.4912812,6.927606030934263,1.6513695349339372,walk
23/10/2020, 15:42:19,-6.5455885,-1.829795,1.341211,-0.8458195,0.03275222,1.6745406,6.927606030934263,1.8763181075317992,walk
23/10/2020, 15:42:20,-9.307046,-2.6129665,2.548301,-0.9985357,-0.77847654,-0.85932744,9.997126391322892,1.5302100798584415,walk
23/10/2020, 15:42:20,-9.307046,-2.6129665,2.548301,-1.074283,-0.78214175,-1.0364783,9.997126391322892,1.6852646405566152,walk
23/10/2020, 15:42:20,-8.660391,-2.687212,2.4860303,-1.074283,-0.78214175,-1.0364783,9.402330821423174,1.6852646405566152,walk
23/10/2020, 15:42:20,-8.660391,-2.687212,2.4860303,-1.0669527,-0.7613723,-1.2087423,9.402330821423174,1.7830125491528432,walk
23/10/2020, 15:42:20,-8.109536,-2.6776319,2.5123756,-1.0669527,-0.7613723,-1.2087423,8.902040236951494,1.7830125491528432,walk
23/10/2020, 15:42:20,-8.109536,-2.6776319,2.5123756,-0.9850967,-0.72960734,-1.3748975,8.902040236951494,1.8420329668926716,walk
23/10/2020, 15:42:20,-7.814949,-2.5147705,2.6441016,-0.9850967,-0.72960734,-1.3748975,8.624892608728139,1.8420329668926716,walk
23/10/2020, 15:42:20,-7.814949,-2.5147705,2.6441016,-0.8665889,-0.703951,-1.5349442,8.624892608728139,1.8980455586678031,walk
23/10/2020, 15:42:20,-7.5970025,-2.4764502,2.5866213,-0.8665889,-0.703951,-1.5349442,8.398682180348862,1.8980455586678031,walk
23/10/2020, 15:42:20,-7.5970025,-2.4764502,2.5866213,-0.748081,-0.69051194,-1.6827735,8.398682180348862,1.966763463499562,walk
23/10/2020, 15:42:20,-7.5970025,-2.4764502,2.5866213,-0.6295732,-0.6856251,-1.820829,8.398682180348862,2.04496028387466,walk
23/10/2020, 15:42:20,-7.4892263,-2.5219557,2.5938063,-0.6295732,-0.6856251,-1.820829,8.317247311263351,2.04496028387466,walk
23/10/2020, 15:42:20,-7.568262,-2.6608667,2.6488917,-0.6295732,-0.6856251,-1.820829,8.448398083848934,2.04496028387466,walk
23/10/2020, 15:42:20,-7.568262,-2.6608667,2.6488917,-0.47685698,-0.68073815,-1.9405586,8.448398083848934,2.111057674062892,walk
23/10/2020, 15:42:20,-7.8580594,-2.9770093,2.6560767,-0.47685698,-0.68073815,-1.9405586,8.812855681269028,2.111057674062892,walk
23/10/2020, 15:42:20,-7.8580594,-2.9770093,2.6560767,-0.2691629,-0.6697426,-2.0346317,8.812855681269028,2.1588724060079008,walk
23/10/2020, 15:42:20,-8.387359,-3.3985329,2.6967921,-0.2691629,-0.6697426,-2.0346317,9.443013226901343,2.1588724060079008,walk
23/10/2020, 15:42:20,-8.387359,-3.3985329,2.6967921,-0.013821316,-0.66119045,-2.0944965,9.443013226901343,2.196424226062902,walk
23/10/2020, 15:42:20,-8.971744,-3.7122805,2.6249416,-0.013821316,-0.66119045,-2.0944965,10.058008146124658,2.196424226062902,walk
23/10/2020, 15:42:20,-8.971744,-3.7122805,2.6249416,0.27328524,-0.6526383,-2.1299267,10.058008146124658,2.244372799408308,walk
23/10/2020, 15:42:20,-9.536968,-3.9134622,2.5962012,0.27328524,-0.6526383,-2.1299267,10.630578992267981,2.244372799408308,walk
23/10/2020, 15:42:20,-9.536968,-3.9134622,2.5962012,0.5884916,-0.64408624,-2.1384788,10.630578992267981,2.309601883795288,walk
23/10/2020, 15:42:20,-10.032737,-4.026028,2.5243506,0.5884916,-0.64408624,-2.1384788,11.101218678443004,2.309601883795288,walk
23/10/2020, 15:42:20,-10.032737,-4.026028,2.5243506,0.91591525,-0.6379776,-2.1384788,11.101218678443004,2.412261916643357,walk
23/10/2020, 15:42:20,-10.547667,-4.0499783,2.3782544,0.91591525,-0.6379776,-2.1384788,11.546068056919813,2.412261916643357,walk
23/10/2020, 15:42:20,-10.547667,-4.0499783,2.3782544,1.2445606,-0.6355341,-2.123818,11.546068056919813,2.5423290990055656,walk
23/10/2020, 15:42:20,-10.890154,-4.040398,2.1435425,1.2445606,-0.6355341,-2.123818,11.811648622514323,2.5423290990055656,walk
23/10/2020, 15:42:20,-10.890154,-4.040398,2.1435425,1.5292237,-0.64164275,-2.1079354,11.811648622514323,2.682092886900207,walk
23/10/2020, 15:42:20,-11.218272,-4.014053,2.064507,1.5292237,-0.64164275,-2.1079354,12.092329840424277,2.682092886900207,walk
23/10/2020, 15:42:20,-11.218272,-4.014053,2.064507,1.7442482,-0.6636339,-2.0712836,12.092329840424277,2.788014922800374,walk
23/10/2020, 15:42:21,-7.790999,-1.9878663,0.9268726,-3.082807,-0.06620791,-0.27289703,8.093847639419131,3.095570330801482,walk
23/10/2020, 15:42:21,-7.479646,-2.3471193,1.1615845,-3.082807,-0.06620791,-0.27289703,7.924856785053823,3.095570330801482,walk
23/10/2020, 15:42:21,-7.479646,-2.3471193,1.1615845,-3.2941663,0.019313188,-0.28022742,7.924856785053823,3.3061204143949596,walk
23/10/2020, 15:42:21,-7.4652762,-2.7901978,1.3124708,-3.2941663,0.019313188,-0.28022742,8.077012627291452,3.3061204143949596,walk
23/10/2020, 15:42:21,-7.4652762,-2.7901978,1.3124708,-3.3821309,0.110942945,-0.27411878,8.077012627291452,3.395034404244562,walk
23/10/2020, 15:42:21,-7.6257424,-3.3147073,1.4849122,-3.3821309,0.110942945,-0.27411878,8.446549363669261,3.395034404244562,walk
23/10/2020, 15:42:21,-7.6257424,-3.3147073,1.4849122,-3.3295965,0.18669021,-0.25579283,8.446549363669261,3.344621979761967,walk
23/10/2020, 15:42:21,-7.8197393,-3.8511915,1.7747096,-3.3295965,0.18669021,-0.25579283,8.895481639761984,3.344621979761967,walk
23/10/2020, 15:42:21,-7.8197393,-3.8511915,1.7747096,-3.132898,0.24166806,-0.22402784,8.895481639761984,3.1501813252723334,walk
23/10/2020, 15:42:21,-8.006551,-4.3541455,1.9687061,-3.132898,0.24166806,-0.22402784,9.324121547597416,3.1501813252723334,walk
23/10/2020, 15:42:21,-8.006551,-4.3541455,1.9687061,-2.8176916,0.28931552,-0.18981941,9.324121547597416,2.838859037127361,walk
23/10/2020, 15:42:21,-8.013736,-4.742139,2.1171973,-2.8176916,0.28931552,-0.18981941,9.549364706853758,2.838859037127361,walk
23/10/2020, 15:42:21,-8.013736,-4.742139,2.1171973,-2.4120772,0.3381847,-0.1568327,9.549364706853758,2.4407133708126727,walk
23/10/2020, 15:42:21,-7.9706254,-4.996011,2.201023,-2.4120772,0.3381847,-0.1568327,9.661029742614886,2.4407133708126727,walk
23/10/2020, 15:42:21,-7.9706254,-4.996011,2.201023,-1.9588156,0.39804947,-0.13361983,9.661029742614886,2.003311283353353,walk
23/10/2020, 15:42:21,-7.824529,-5.1157618,2.193838,-1.9588156,0.39804947,-0.13361983,9.60245800560985,2.003311283353353,walk
23/10/2020, 15:42:21,-7.824529,-5.1157618,2.193838,-1.4798974,0.4628012,-0.11773733,9.60245800560985,1.5550380296897583,walk
23/10/2020, 15:42:21,-7.668853,-5.113367,2.0812721,-1.4798974,0.4628012,-0.11773733,9.449313198464818,1.5550380296897583,walk
23/10/2020, 15:42:21,-7.668853,-5.113367,2.0812721,-1.0046444,0.53366154,-0.11040695,9.449313198464818,1.1429324987766407,walk
23/10/2020, 15:42:21,-7.589817,-4.984036,1.9734962,-1.0046444,0.53366154,-0.11040695,9.29196559361585,1.1429324987766407,walk
23/10/2020, 15:42:21,-7.589817,-4.984036,1.9734962,-0.5550477,0.6118522,-0.10185484,9.29196559361585,0.8323553910101632,walk
23/10/2020, 15:42:21,-7.553892,-4.8259645,1.7555494,-0.5550477,0.6118522,-0.10185484,9.134176103046505,0.8323553910101632,walk
23/10/2020, 15:42:21,-7.553892,-4.8259645,1.7555494,-0.16898103,0.69737333,-0.09452446,9.134176103046505,0.723753427687449,walk
23/10/2020, 15:42:21,-7.709568,-4.536167,1.7627344,-0.16898103,0.69737333,-0.09452446,9.117098446787045,0.723753427687449,walk
23/10/2020, 15:42:21,-7.709568,-4.536167,1.7627344,0.19142933,0.77067715,-0.08963754,9.117098446787045,0.799139128178245,walk
23/10/2020, 15:42:21,-7.9394903,-4.277505,1.8872755,0.19142933,0.77067715,-0.08963754,9.213813733477727,0.799139128178245,walk
23/10/2020, 15:42:21,-7.9394903,-4.277505,1.8872755,0.51763123,0.8293202,-0.08719408,9.213813733477727,0.9814870766877853,walk
23/10/2020, 15:42:21,-8.260423,-4.038003,2.0501368,0.51763123,0.8293202,-0.08719408,9.42035626595488,0.9814870766877853,walk
23/10/2020, 15:42:21,-8.260423,-4.038003,2.0501368,0.79129875,0.8794111,-0.083528884,9.42035626595488,1.1859572786093895,walk
23/10/2020, 15:42:21,-8.571775,-3.796106,2.2680836,0.79129875,0.8794111,-0.083528884,9.645203924568499,1.1859572786093895,walk
23/10/2020, 15:42:22,-6.6916847,-1.9639161,1.9136207,0.108351685,0.14881657,0.2707728,7.231704844473995,0.3274207943463713,walk
23/10/2020, 15:42:22,-6.706055,-1.9232007,1.9639161,0.108351685,0.14881657,0.2707728,7.247540493526075,0.3274207943463713,walk
23/10/2020, 15:42:22,-6.706055,-1.9232007,1.9639161,0.054595567,0.20623788,0.39905447,7.247540493526075,0.45250326879253566,walk
23/10/2020, 15:42:22,-6.6916847,-1.9399658,1.9854712,0.054595567,0.20623788,0.39905447,7.244598538656736,0.45250326879253566,walk
23/10/2020, 15:42:22,-6.6916847,-1.9399658,1.9854712,-0.004047475,0.26365918,0.5273361,7.244598538656736,0.5895896275628634,walk
23/10/2020, 15:42:22,-6.6773148,-1.9327809,1.9974464,-0.004047475,0.26365918,0.5273361,7.232701185130545,0.5895896275628634,walk
23/10/2020, 15:42:22,-6.6773148,-1.9327809,1.9974464,-0.06757744,0.32718915,0.6531743,7.232701185130545,0.7336593825976768,walk
23/10/2020, 15:42:22,-6.68929,-1.9687061,1.9902613,-0.06757744,0.32718915,0.6531743,7.251451252411006,0.7336593825976768,walk
23/10/2020, 15:42:22,-6.68929,-1.9687061,1.9902613,-0.1274422,0.3943843,0.78634286,7.251451252411006,0.8888844568280141,walk
23/10/2020, 15:42:22,-6.799461,-2.0333717,1.9950514,-0.1274422,0.3943843,0.78634286,7.3720756105810015,0.8888844568280141,walk
23/10/2020, 15:42:22,-6.799461,-2.0333717,1.9950514,-0.18486351,0.45913598,0.92195493,7.3720756105810015,1.0464135209010563,walk
23/10/2020, 15:42:22,-7.0174074,-2.0932472,1.949546,-0.18486351,0.45913598,0.92195493,7.578022177526043,1.0464135209010563,walk
23/10/2020, 15:42:22,-7.0174074,-2.0932472,1.949546,-0.23861964,0.5251094,1.0600104,7.578022177526043,1.2067731120949012,walk
23/10/2020, 15:42:22,-7.3000197,-2.1339624,1.8968556,-0.23861964,0.5251094,1.0600104,7.838503993327963,1.2067731120949012,walk
23/10/2020, 15:42:22,-7.3000197,-2.1339624,1.8968556,-0.2899323,0.58741766,1.2041745,7.838503993327963,1.3708233021535805,walk
23/10/2020, 15:42:22,-7.6137676,-2.2465284,1.8202149,-0.2899323,0.58741766,1.2041745,8.14429428427541,1.3708233021535805,walk
23/10/2020, 15:42:22,-7.6137676,-2.2465284,1.8202149,-0.3351363,0.6472824,1.347117,8.14429428427541,1.5316706364170583,walk
23/10/2020, 15:42:22,-7.9538603,-2.2944288,1.8010547,-0.3351363,0.6472824,1.347117,8.471841306647082,1.5316706364170583,walk
23/10/2020, 15:42:22,-7.9538603,-2.2944288,1.8010547,-0.3803403,0.703482,1.4839507,8.471841306647082,1.6857210375496618,walk
23/10/2020, 15:42:22,-8.265213,-2.3423293,1.8369801,-0.3803403,0.703482,1.4839507,8.78491596026308,1.6857210375496618,walk
23/10/2020, 15:42:22,-8.265213,-2.3423293,1.8369801,-0.42554432,0.75357294,1.6244497,8.78491596026308,1.8405969335445211,walk
23/10/2020, 15:42:22,-8.56459,-2.4093897,1.84177,-0.42554432,0.75357294,1.6244497,9.08567473916385,1.8405969335445211,walk
23/10/2020, 15:42:22,-8.56459,-2.4093897,1.84177,-0.47197008,0.8012204,1.75884,9.08567473916385,1.9895295766427157,walk
23/10/2020, 15:42:22,-8.8951025,-2.4453151,1.8824854,-0.47197008,0.8012204,1.75884,9.415209280366577,1.9895295766427157,walk
23/10/2020, 15:42:22,-8.8951025,-2.4453151,1.8824854,-0.5306131,0.84398097,1.8871217,9.415209280366577,2.1342638982576663,walk
23/10/2020, 15:42:22,-9.153765,-2.4908204,1.9208057,-0.5306131,0.84398097,1.8871217,9.679105818668923,2.1342638982576663,walk
23/10/2020, 15:42:22,-9.153765,-2.4908204,1.9208057,-0.5965865,0.8745242,2.0044076,9.679105818668923,2.2667946579635196,walk
23/10/2020, 15:42:22,-9.441168,-2.5195606,1.961521,-0.5965865,0.8745242,2.0044076,9.96651394739698,2.2667946579635196,walk
23/10/2020, 15:42:22,-9.441168,-2.5195606,1.961521,-0.67355555,0.90140224,2.1058114,9.96651394739698,2.3876022586707975,walk
23/10/2020, 15:42:22,-9.733359,-2.562671,1.949546,-0.67355555,0.90140224,2.1058114,10.252136162019196,2.3876022586707975,walk
23/10/2020, 15:42:23,-9.390872,-3.0752053,2.6560767,0.319711,-0.807798,-1.0218176,10.232307072414098,1.341217325210319,walk
23/10/2020, 15:42:23,-8.677156,-3.056045,2.4572902,0.319711,-0.807798,-1.0218176,9.522117957797125,1.341217325210319,walk
23/10/2020, 15:42:23,-8.677156,-3.056045,2.4572902,0.37591058,-0.81146324,-1.1659817,9.522117957797125,1.4694538298040416,walk
23/10/2020, 15:42:23,-8.200547,-3.0871804,2.3064039,0.37591058,-0.81146324,-1.1659817,9.060858468735775,1.4694538298040416,walk
23/10/2020, 15:42:23,-8.200547,-3.0871804,2.3064039,0.487088,-0.79191554,-1.2979286,9.060858468735775,1.5965598980220042,walk
23/10/2020, 15:42:23,-8.097562,-3.2476466,2.2177882,0.487088,-0.79191554,-1.2979286,9.002016469829538,1.5965598980220042,walk
23/10/2020, 15:42:23,-8.097562,-3.2476466,2.2177882,0.64713466,-0.7528202,-1.4176581,9.002016469829538,1.7306865621203968,walk
23/10/2020, 15:42:23,-8.303533,-3.5182838,2.074087,0.64713466,-0.7528202,-1.4176581,9.253583702565619,1.7306865621203968,walk
23/10/2020, 15:42:23,-8.303533,-3.5182838,2.074087,0.8377245,-0.70639443,-1.5105096,9.253583702565619,1.8661229134681765,walk
23/10/2020, 15:42:23,-8.727451,-3.661985,1.9998415,0.8377245,-0.70639443,-1.5105096,9.67356738802021,1.8661229134681765,walk
23/10/2020, 15:42:23,-8.727451,-3.661985,1.9998415,1.0441968,-0.6880685,-1.5850351,9.67356738802021,2.0189406988018836,walk
23/10/2020, 15:42:23,-9.206455,-3.7290456,1.9279908,1.0441968,-0.6880685,-1.5850351,10.118386616673316,2.0189406988018836,walk
23/10/2020, 15:42:23,-9.206455,-3.7290456,1.9279908,1.2494475,-0.69662064,-1.6497868,10.118386616673316,2.183619901075008,walk
23/10/2020, 15:42:23,-9.532178,-3.7482057,1.8106349,1.2494475,-0.69662064,-1.6497868,10.401435489595176,2.183619901075008,walk
23/10/2020, 15:42:23,-9.532178,-3.7482057,1.8106349,1.4363722,-0.71250314,-1.7072082,10.401435489595176,2.342089962454569,walk
23/10/2020, 15:42:23,-9.764495,-3.6500099,1.7747096,1.4363722,-0.71250314,-1.7072082,10.57438067828617,2.342089962454569,walk
23/10/2020, 15:42:23,-9.764495,-3.6500099,1.7747096,1.6049709,-0.72594213,-1.7475252,10.57438067828617,2.4812835495624412,walk
23/10/2020, 15:42:23,-9.929751,-3.6308498,1.7483643,1.6049709,-0.72594213,-1.7475252,10.716333849129292,2.4812835495624412,walk
23/10/2020, 15:42:23,-9.929751,-3.6308498,1.7483643,1.7515786,-0.72960734,-1.7744032,10.716333849129292,2.5978570261340015,walk
23/10/2020, 15:42:23,-10.128538,-3.5254688,1.6765138,1.7515786,-0.72960734,-1.7744032,10.85481062121528,2.5978570261340015,walk
23/10/2020, 15:42:23,-10.128538,-3.5254688,1.6765138,1.8737515,-0.72716385,-1.7817336,10.85481062121528,2.685942435190566,walk
23/10/2020, 15:42:23,-10.37283,-3.412903,1.5711329,1.8737515,-0.72716385,-1.7817336,11.032315091199468,2.685942435190566,walk
23/10/2020, 15:42:23,-10.37283,-3.412903,1.5711329,1.9604944,-0.7234987,-1.7731816,11.032315091199468,2.740649831164809,walk
23/10/2020, 15:42:23,-10.669812,-3.288362,1.4058765,1.9604944,-0.7234987,-1.7731816,11.253208699431557,2.740649831164809,walk
23/10/2020, 15:42:23,-10.669812,-3.288362,1.4058765,2.0130289,-0.7210552,-1.7548555,11.253208699431557,2.766174918624027,walk
23/10/2020, 15:42:23,-10.92608,-3.1159205,1.3004956,2.0130289,-0.7210552,-1.7548555,11.435885116973505,2.766174918624027,walk
23/10/2020, 15:42:23,-10.92608,-3.1159205,1.3004956,2.021581,-0.72716385,-1.7267557,11.435885116973505,2.7563095111075984,walk
23/10/2020, 15:42:23,-11.120076,-2.955454,1.2502003,2.021581,-0.72716385,-1.7267557,11.573841365766134,2.7563095111075984,walk
23/10/2020, 15:42:23,-11.120076,-2.955454,1.2502003,1.9885942,-0.74426806,-1.6901039,11.573841365766134,2.7138336148510493,walk
23/10/2020, 15:42:23,-11.292518,-2.816543,1.2070899,1.9885942,-0.74426806,-1.6901039,11.700894676203687,2.7138336148510493,walk
23/10/2020, 15:42:48,-9.766891,-2.2585034,1.3723463,0.96600616,-0.857889,-1.3981104,10.118118532423718,1.9036423227697954,walk
23/10/2020, 15:42:48,-9.410032,-2.2273684,1.3100758,0.96600616,-0.857889,-1.3981104,9.75839001326843,1.9036423227697954,walk
23/10/2020, 15:42:48,-9.410032,-2.2273684,1.3100758,0.78152496,-0.8505586,-1.3687888,9.75839001326843,1.791037140193442,walk
23/10/2020, 15:42:48,-9.038804,-2.2441335,1.2022998,0.78152496,-0.8505586,-1.3687888,9.390507902270077,1.791037140193442,walk
23/10/2020, 15:42:48,-9.038804,-2.2441335,1.2022998,0.6178131,-0.8371196,-1.3406891,9.390507902270077,1.697029579364052,walk
23/10/2020, 15:42:48,-8.804092,-2.2417383,1.1591895,0.6178131,-0.8371196,-1.3406891,9.158665515127364,1.697029579364052,walk
23/10/2020, 15:42:48,-8.804092,-2.2417383,1.1591895,0.4797576,-0.8212371,-1.3138111,9.158665515127364,1.6219424238264142,walk
23/10/2020, 15:42:48,-8.473579,-2.2848487,1.0346485,0.4797576,-0.8212371,-1.3138111,8.837000571182301,1.6219424238264142,walk
23/10/2020, 15:42:48,-8.473579,-2.2848487,1.0346485,0.36369327,-0.8041329,-1.295485,8.837000571182301,1.5675407221185043,walk
23/10/2020, 15:42:48,-8.186177,-2.2752686,0.9268726,0.36369327,-0.8041329,-1.295485,8.546896387720567,1.5675407221185043,walk
23/10/2020, 15:42:48,-8.186177,-2.2752686,0.9268726,0.27328524,-0.77603304,-1.2747157,8.546896387720567,1.5171724115886414,walk
23/10/2020, 15:42:48,-7.8820095,-2.3016138,0.8143067,0.27328524,-0.77603304,-1.2747157,8.251460194361679,1.5171724115886414,walk
23/10/2020, 15:42:48,-7.8820095,-2.3016138,0.8143067,0.20486836,-0.72960734,-1.2502811,8.251460194361679,1.4620194045234172,walk
23/10/2020, 15:42:48,-7.6329274,-2.3064039,0.8334668,0.20486836,-0.72960734,-1.2502811,8.017215648472389,1.4620194045234172,walk
23/10/2020, 15:42:48,-7.6329274,-2.3064039,0.8334668,0.16210781,-0.6660774,-1.2160727,8.017215648472389,1.3959838006853553,walk
23/10/2020, 15:42:48,-7.5323367,-2.315984,0.8334668,0.16210781,-0.6660774,-1.2160727,7.924300930186129,1.3959838006853553,walk
23/10/2020, 15:42:48,-7.5323367,-2.315984,0.8334668,0.1535557,-0.58910835,-1.1696469,7.924300930186129,1.3185984133200115,walk
23/10/2020, 15:42:48,-7.5227566,-2.4764502,0.8861573,0.1535557,-0.58910835,-1.1696469,7.969312821168734,1.3185984133200115,walk
23/10/2020, 15:42:48,-7.5227566,-2.4764502,0.8861573,0.17188165,-0.5133611,-1.1097821,7.969312821168734,1.234787117016338,walk
23/10/2020, 15:42:48,-7.6664577,-2.5411158,1.0250684,0.17188165,-0.5133611,-1.1097821,8.141413113527584,1.234787117016338,walk
23/10/2020, 15:42:48,-7.6664577,-2.5411158,1.0250684,0.21097702,-0.4559398,-1.0474739,8.141413113527584,1.161720271716217,walk
23/10/2020, 15:42:48,-7.685618,-2.5914114,1.1352394,0.21097702,-0.4559398,-1.0474739,8.189804886345796,1.161720271716217,walk
23/10/2020, 15:42:48,-7.685618,-2.5914114,1.1352394,0.25373757,-0.40584886,-0.98516566,8.189804886345796,1.0952841734510586,walk
23/10/2020, 15:42:48,-7.668853,-2.6009912,1.2478052,0.25373757,-0.40584886,-0.98516566,8.193502105370754,1.0952841734510586,walk
23/10/2020, 15:42:48,-7.668853,-2.6009912,1.2478052,0.3001633,-0.35575795,-0.91919225,8.193502105370754,1.0303281647173415,walk
23/10/2020, 15:42:48,-7.668853,-2.6009912,1.2478052,-0.19952427,0.4811271,0.7912298,8.193502105370754,0.9472791587221246,walk
23/10/2020, 15:42:48,-7.668853,-2.6009912,1.2478052,-0.28138018,0.47746193,0.74846923,8.193502105370754,0.9313167537266976,walk
23/10/2020, 15:42:48,-7.668853,-2.6009912,1.2478052,-0.32169726,0.47746193,0.70082176,8.193502105370754,0.9069785908627404,walk
23/10/2020, 15:42:48,-7.668853,-2.6009912,1.2478052,-0.32536247,0.47868368,0.65439606,8.193502105370754,0.8736320762636911,walk
23/10/2020, 15:42:48,-7.668853,-2.6009912,1.2478052,-0.30581477,0.4799054,0.609192,8.193502105370754,0.8336346769879279,walk
23/10/2020, 15:43:01,-7.173084,-2.3590944,1.7411792,0.27084178,-0.18349399,-0.18737595,7.749203981691354,0.3770080335155452,walk
23/10/2020, 15:43:01,-7.1347637,-2.3255641,1.7507594,0.27084178,-0.18349399,-0.18737595,7.705729053880157,0.3770080335155452,walk
23/10/2020, 15:43:01,-7.180269,-2.2225783,1.8010547,0.27084178,-0.18349399,-0.18737595,7.729159842001945,0.3770080335155452,walk
23/10/2020, 15:43:01,-7.220984,-2.179468,1.7794995,0.27084178,-0.18349399,-0.18737595,7.749794103628713,0.3770080335155452,walk
23/10/2020, 15:43:01,-7.206614,-2.1100123,1.9136207,0.27084178,-0.18349399,-0.18737595,7.749153611603697,0.3770080335155452,walk
23/10/2020, 15:43:01,-7.1635036,-2.1076174,1.9782863,0.27084178,-0.18349399,-0.18737595,7.724729902269521,0.3770080335155452,walk
23/10/2020, 15:43:01,-7.046148,-2.074087,2.0261867,0.27084178,-0.18349399,-0.18737595,7.6194139012025195,0.3770080335155452,walk
23/10/2020, 15:43:01,-6.861731,-2.0621119,2.1435425,0.27084178,-0.18349399,-0.18737595,7.478665182112348,0.3770080335155452,walk
23/10/2020, 15:43:01,-6.8114357,-2.0573218,2.1531227,0.27084178,-0.18349399,-0.18737595,7.433987249569309,0.3770080335155452,walk
23/10/2020, 15:43:01,-6.71324,-2.0405567,2.1219873,0.27084178,-0.18349399,-0.18737595,7.330368003717709,0.3770080335155452,walk
23/10/2020, 15:43:01,-6.6773148,-2.0166066,2.1483326,0.27084178,-0.18349399,-0.18737595,7.298531864629398,0.3770080335155452,walk
23/10/2020, 15:43:01,-6.6533647,-1.9854712,2.1579127,0.27084178,-0.18349399,-0.18737595,7.270897105002142,0.3770080335155452,walk
23/10/2020, 15:43:01,-6.71803,-1.951941,2.2632935,0.27084178,-0.18349399,-0.18737595,7.35285644936717,0.3770080335155452,walk
23/10/2020, 15:43:01,-6.835386,-1.951941,2.198628,0.27084178,-0.18349399,-0.18737595,7.440869411793544,0.3770080335155452,walk
23/10/2020, 15:43:01,-6.950347,-1.9447559,2.2656887,0.27084178,-0.18349399,-0.18737595,7.56457158933804,0.3770080335155452,walk
23/10/2020, 15:43:01,-7.079678,-1.8609302,2.2489235,0.27084178,-0.18349399,-0.18737595,7.657843020633642,0.3770080335155452,walk
23/10/2020, 15:43:01,-7.199429,-1.83219,2.184258,0.27084178,-0.18349399,-0.18737595,7.743363720303711,0.3770080335155452,walk
23/10/2020, 15:43:01,-7.199429,-1.83219,2.184258,0.23663335,-0.12973787,-0.083528884,7.743363720303711,0.2824966004126716,walk
23/10/2020, 15:43:01,-7.199429,-1.83219,2.184258,0.2024249,-0.07231656,0.020318165,7.743363720303711,0.2159128340748531,walk
23/10/2020, 15:43:01,-7.199429,-1.83219,2.184258,0.1779903,-0.016116982,0.12538694,7.743363720303711,0.21831671767817104,walk
23/10/2020, 15:43:01,-7.199429,-1.83219,2.184258,0.15844262,0.041304328,0.2341209,7.743363720303711,0.28569688225583156,walk
23/10/2020, 15:43:01,-7.199429,-1.83219,2.184258,0.13522975,0.1011691,0.34529835,7.743363720303711,0.38438681464669305,walk
23/10/2020, 15:43:01,-7.199429,-1.83219,2.184258,0.107129954,0.15981214,0.4576975,7.743363720303711,0.49649144766809805,walk
23/10/2020, 15:43:01,-7.199429,-1.83219,2.184258,0.07047805,0.21845518,0.5713184,7.743363720303711,0.615706522743046,walk
23/10/2020, 15:43:01,-7.199429,-1.83219,2.184258,0.017943665,0.27221128,0.68249583,7.743363720303711,0.7349976321491208,walk
23/10/2020, 15:43:01,-7.199429,-1.83219,2.184258,-0.045586295,0.3210805,0.794895,7.743363720303711,0.8585038450396736,walk
23/10/2020, 15:43:01,-7.199429,-1.83219,2.184258,-0.1188901,0.3699497,0.91095936,7.743363720303711,0.990375987231053,walk
23/10/2020, 15:43:01,-7.199429,-1.83219,2.184258,-0.19952427,0.4188189,1.0282454,7.743363720303711,1.1280549192073703,walk
23/10/2020, 15:43:01,-7.199429,-1.83219,2.184258,-0.27649325,0.47013155,1.147975,7.743363720303711,1.2709518936097406,walk
23/10/2020, 15:43:01,-7.199429,-1.83219,2.184258,-0.3510188,0.5251094,1.265261,7.743363720303711,1.414156856952504,walk
23/10/2020, 15:43:02,-7.7215433,-2.0190015,1.8274,-0.22518061,0.45424905,1.5987934,8.187672975842748,1.6772563329581154,walk
23/10/2020, 15:43:02,-7.7215433,-2.0190015,1.8274,-0.28138018,0.53366154,1.7893833,8.187672975842748,1.8883490180682212,walk
23/10/2020, 15:43:02,-7.7215433,-2.0190015,1.8274,-0.35346225,0.6118522,1.9787514,8.187672975842748,2.101132051347545,walk
23/10/2020, 15:43:02,-7.7215433,-2.0190015,1.8274,-0.43898335,0.68149084,2.1607893,8.187672975842748,2.3078445212141188,walk
23/10/2020, 15:43:02,-7.7215433,-2.0190015,1.8274,-0.5452739,0.7437991,2.3354967,8.187672975842748,2.5109968898208836,walk
23/10/2020, 15:43:02,-7.7215433,-2.0190015,1.8274,-0.6686686,0.7975552,2.50043,8.187672975842748,2.708387484174803,walk
23/10/2020, 15:43:02,-7.7215433,-2.0190015,1.8274,-0.80794585,0.8427592,2.640929,8.187672975842748,2.887477349708463,walk
23/10/2020, 15:43:02,-7.7215433,-2.0190015,1.8274,-0.9569969,0.88551974,2.7716541,8.187672975842748,3.063014026522924,walk
23/10/2020, 15:43:02,-7.7215433,-2.0190015,1.8274,-1.1146002,0.92217165,2.890162,8.187672975842748,3.2319917165775,walk
23/10/2020, 15:43:02,-7.7215433,-2.0190015,1.8274,-1.2746468,0.9649322,2.9976742,8.187672975842748,3.397332672414019,walk
23/10/2020, 15:43:02,-7.7215433,-2.0190015,1.8274,-1.4383585,1.0309056,3.1051865,8.187672975842748,3.574048773623539,walk
23/10/2020, 15:43:02,-7.7215433,-2.0190015,1.8274,-1.5678619,1.1249789,3.2188075,8.187672975842748,3.7529308501534486,walk
23/10/2020, 15:43:02,-7.7215433,-2.0190015,1.8274,-1.65827,1.2202737,3.3336499,8.187672975842748,3.9181818311576215,walk
23/10/2020, 15:43:02,-7.7215433,-2.0190015,1.8274,-1.7364607,1.2801386,3.4277232,8.187672975842748,4.050103295476562,walk
23/10/2020, 15:43:02,-7.7215433,-2.0190015,1.8274,-1.8329774,1.2984645,3.4765923,8.187672975842748,4.13914367837887,walk
23/10/2020, 15:43:02,-7.7215433,-2.0190015,1.8274,-1.9527069,1.2947993,3.4888096,8.187672975842748,4.20254232459903,walk
23/10/2020, 15:43:02,-7.7215433,-2.0190015,1.8274,-2.0614407,1.2508171,3.4936967,8.187672975842748,4.244996780107526,walk
23/10/2020, 15:43:02,-7.7215433,-2.0190015,1.8274,-2.17384,1.1506351,3.4778142,8.187672975842748,4.259663522481595,walk
23/10/2020, 15:43:02,-7.7215433,-2.0190015,1.8274,-2.3216693,0.9637105,3.4216146,8.187672975842748,4.24574295258397,walk
23/10/2020, 15:43:02,-7.7215433,-2.0190015,1.8274,-2.4975984,0.75112945,3.3324282,8.187672975842748,4.231698368881402,walk
23/10/2020, 15:43:02,-7.7215433,-2.0190015,1.8274,-2.644206,0.5935263,3.220029,8.187672975842748,4.208644270827623,walk
23/10/2020, 15:43:02,-7.7215433,-2.0190015,1.8274,-2.707736,0.5055617,3.0734215,8.187672975842748,4.127147508119384,walk
23/10/2020, 15:43:02,-7.7215433,-2.0190015,1.8274,-2.6515365,0.47868368,2.8926055,8.187672975842748,3.953093790634513,walk
23/10/2020, 15:43:02,-8.159832,-2.0285816,1.7962648,-2.6515365,0.47868368,2.8926055,8.597939798677153,3.953093790634513,walk
23/10/2020, 15:43:02,-8.499925,-2.0980372,1.7148341,-2.6515365,0.47868368,2.8926055,8.921386409282364,3.953093790634513,walk
23/10/2020, 15:43:02,-8.844808,-2.1267774,1.6501685,-2.6515365,0.47868368,2.8926055,9.245369666918497,3.953093790634513,walk
23/10/2020, 15:43:02,-9.187295,-2.1627028,1.5998731,-2.6515365,0.47868368,2.8926055,9.57304893467685,3.953093790634513,walk
23/10/2020, 15:43:02,-9.592053,-2.2944288,1.5088624,-2.6515365,0.47868368,2.8926055,9.977402366870189,3.953093790634513,walk
23/10/2020, 15:43:02,-9.994417,-2.4189699,1.4226416,-2.6515365,0.47868368,2.8926055,10.380929603381531,3.953093790634513,walk
23/10/2020, 15:43:02,-10.571617,-2.6033864,1.3004956,-2.6515365,0.47868368,2.8926055,10.96485286252462,3.953093790634513,walk
23/10/2020, 15:43:03,-13.186978,-3.4416432,1.81782,-1.01564,1.0443447,2.9598005,13.749391815752812,3.2988784941933096,walk
23/10/2020, 15:43:03,-13.186978,-3.4416432,1.81782,-1.0290791,1.101766,2.9830134,13.749391815752812,3.3423436303367398,walk
23/10/2020, 15:43:03,-13.186978,-3.4416432,1.81782,-1.0755048,1.1225353,2.9683528,13.749391815752812,3.350808029754584,walk
23/10/2020, 15:43:03,-13.186978,-3.4416432,1.81782,-1.1683563,1.1078746,2.9207053,13.749391815752812,3.3351105228377382,walk
23/10/2020, 15:43:03,-13.186978,-3.4416432,1.81782,-1.3088552,1.0467881,2.8547318,13.749391815752812,3.310341497487255,walk
23/10/2020, 15:43:03,-13.186978,-3.4416432,1.81782,-1.5006669,0.90628916,2.7753193,13.749391815752812,3.2826450438633077,walk
23/10/2020, 15:43:03,-13.186978,-3.4416432,1.81782,-1.7462345,0.69859505,2.672694,13.749391815752812,3.2681283849662726,walk
23/10/2020, 15:43:03,-13.186978,-3.4416432,1.81782,-1.9844719,0.51044863,2.546856,13.749391815752812,3.268816560924512,walk
23/10/2020, 15:43:03,-13.186978,-3.4416432,1.81782,-2.1359663,0.4114885,2.4136872,13.749391815752812,3.249240044584094,walk
23/10/2020, 15:43:03,-13.186978,-3.4416432,1.81782,-2.1848354,0.3772801,2.2585275,13.749391815752812,3.1649317028137465,walk
23/10/2020, 15:43:03,-13.186978,-3.4416432,1.81782,-2.1335227,0.3699497,2.080155,13.749391815752812,3.002636589749858,walk
23/10/2020, 15:43:03,-14.54256,-3.5757644,1.8010547,-2.1335227,0.3699497,2.080155,15.083631183184748,3.002636589749858,walk
23/10/2020, 15:43:03,-15.90293,-3.5566041,1.7699195,-2.1335227,0.3699497,2.080155,16.39162099950895,3.002636589749858,walk
23/10/2020, 15:43:03,-17.078884,-3.6548,1.5543678,-2.1335227,0.3699497,2.080155,17.53459166142033,3.002636589749858,walk
23/10/2020, 15:43:03,-17.869242,-3.666775,1.4441968,-2.1335227,0.3699497,2.080155,18.29865412318546,3.002636589749858,walk
23/10/2020, 15:43:03,-17.871637,-3.65959,1.4010864,-2.1335227,0.3699497,2.080155,18.296203530206764,3.002636589749858,walk
23/10/2020, 15:43:03,-16.561562,-3.652405,1.5423926,-2.1335227,0.3699497,2.080155,17.029514365962875,3.002636589749858,walk
23/10/2020, 15:43:03,-14.774877,-3.642825,1.9567311,-2.1335227,0.3699497,2.080155,15.342618683708388,3.002636589749858,walk
23/10/2020, 15:43:03,-12.954661,-3.781736,2.2848487,-2.1335227,0.3699497,2.080155,13.687414333077594,3.002636589749858,walk
23/10/2020, 15:43:03,-11.414663,-3.9182522,2.548301,-2.1335227,0.3699497,2.080155,12.33454810759524,3.002636589749858,walk
23/10/2020, 15:43:03,-10.111773,-3.9805226,2.7375073,-2.1335227,0.3699497,2.080155,11.206536071771637,3.002636589749858,walk
23/10/2020, 15:43:03,-8.978929,-3.906277,2.8213332,-2.1335227,0.3699497,2.080155,10.19019521848669,3.002636589749858,walk
23/10/2020, 15:43:03,-8.018526,-3.791316,2.8380983,-2.1335227,0.3699497,2.080155,9.312660178458778,3.002636589749858,walk
23/10/2020, 15:43:03,-7.4101906,-3.657195,2.8476784,-2.1335227,0.3699497,2.080155,8.740438936432026,3.002636589749858,walk
23/10/2020, 15:43:03,-7.077283,-3.4775686,2.794988,-2.1335227,0.3699497,2.080155,8.3662042966222,3.002636589749858,walk
23/10/2020, 15:43:03,-7.082073,-3.4440382,2.7279274,-2.1335227,0.3699497,2.080155,8.334191497998043,3.002636589749858,walk
23/10/2020, 15:43:03,-7.2545147,-3.396138,2.7087672,-2.1335227,0.3699497,2.080155,8.455717358985918,3.002636589749858,walk
23/10/2020, 15:43:03,-7.4820414,-3.515889,2.5171657,-2.1335227,0.3699497,2.080155,8.641674653957653,3.002636589749858,walk
23/10/2020, 15:43:03,-7.8269243,-3.523074,2.3566992,-2.1335227,0.3699497,2.080155,8.900945197778485,3.002636589749858,walk
23/10/2020, 15:43:03,-8.159832,-3.5925295,2.1387525,-2.1335227,0.3699497,2.080155,9.168608881904698,3.002636589749858,walk
23/10/2020, 15:43:04,-7.30481,-4.351751,2.4093897,-0.8641454,0.5422136,0.31719854,8.837598326633078,1.0683434814121457,walk
23/10/2020, 15:43:04,-7.1227884,-4.495452,2.4740553,-0.8641454,0.5422136,0.31719854,8.778619060917947,1.0683434814121457,walk
23/10/2020, 15:43:04,-7.0078273,-4.670288,2.550696,-0.8641454,0.5422136,0.31719854,8.799277446128682,1.0683434814121457,walk
23/10/2020, 15:43:04,-6.947952,-4.6894484,2.5530908,-0.8641454,0.5422136,0.31719854,8.76260421933593,1.0683434814121457,walk
23/10/2020, 15:43:04,-6.8976564,-4.5649076,2.4908204,-0.8641454,0.5422136,0.31719854,8.638300274134854,1.0683434814121457,walk
23/10/2020, 15:43:04,-6.969507,-4.191284,2.4333398,-0.8641454,0.5422136,0.31719854,8.488936133412663,1.0683434814121457,walk
23/10/2020, 15:43:04,-7.089258,-3.779341,2.2848487,-0.8641454,0.5422136,0.31719854,8.352337010600154,1.0683434814121457,walk
23/10/2020, 15:43:04,-7.3479204,-3.5087037,2.1195924,-0.8641454,0.5422136,0.31719854,8.414012612476304,1.0683434814121457,walk
23/10/2020, 15:43:04,-7.573052,-3.2668068,2.1459377,-0.8641454,0.5422136,0.31719854,8.522217492755207,1.0683434814121457,walk
23/10/2020, 15:43:04,-7.91075,-2.936294,2.2920337,-0.8641454,0.5422136,0.31719854,8.743866733134363,1.0683434814121457,walk
23/10/2020, 15:43:04,-8.274793,-2.6464968,2.3638844,-0.8641454,0.5422136,0.31719854,9.003559774217903,1.0683434814121457,walk
23/10/2020, 15:43:04,-8.619676,-2.4069948,2.5123756,-0.8641454,0.5422136,0.31719854,9.295400112845618,1.0683434814121457,walk
23/10/2020, 15:43:04,-8.926238,-2.2058132,2.680027,-0.8641454,0.5422136,0.31719854,9.577363019449072,1.0683434814121457,walk
23/10/2020, 15:43:04,-9.158555,-2.0357666,2.7973828,-0.8641454,0.5422136,0.31719854,9.79024139717853,1.0683434814121457,walk
23/10/2020, 15:43:04,-9.295072,-2.0142114,3.0129347,-0.8641454,0.5422136,0.31719854,9.976631652404874,1.0683434814121457,walk
23/10/2020, 15:43:04,-9.285491,-2.0812721,3.3458424,-0.8641454,0.5422136,0.31719854,10.08695680998562,1.0683434814121457,walk
23/10/2020, 15:43:04,-9.196876,-2.2321582,3.6380348,-0.8641454,0.5422136,0.31719854,10.139050636268873,1.0683434814121457,walk
23/10/2020, 15:43:04,-9.06994,-2.4740553,3.9541774,-0.8641454,0.5422136,0.31719854,10.1990329403408,1.0683434814121457,walk
23/10/2020, 15:43:04,-9.029224,-2.684817,4.2176294,-0.8641454,0.5422136,0.31719854,10.32102388091239,1.0683434814121457,walk
23/10/2020, 15:43:04,-9.129815,-2.8692336,4.4762917,-0.8641454,0.5422136,0.31719854,10.56518870075304,1.0683434814121457,walk
23/10/2020, 15:43:04,-9.299861,-3.1302907,4.631968,-0.8641454,0.5422136,0.31719854,10.85086455905888,1.0683434814121457,walk
23/10/2020, 15:43:04,-9.405242,-3.2236965,4.782854,-0.8641454,0.5422136,0.31719854,11.032972787445942,1.0683434814121457,walk
23/10/2020, 15:43:04,-9.515413,-3.3051271,4.87626,-0.8641454,0.5422136,0.31719854,11.19128522923207,1.0683434814121457,walk
23/10/2020, 15:43:04,-9.515413,-3.3051271,4.87626,-0.85437155,0.54710054,0.30742472,11.19128522923207,1.060084764405844,walk
23/10/2020, 15:43:04,-9.515413,-3.3051271,4.87626,-0.7774026,0.55076575,0.29154223,11.19128522923207,0.9963405836184936,walk
23/10/2020, 15:43:04,-9.515413,-3.3051271,4.87626,-0.65278614,0.54710054,0.26466417,11.19128522923207,0.8919057510089317,walk
23/10/2020, 15:43:04,-9.515413,-3.3051271,4.87626,-0.4927395,0.53488326,0.23900783,11.19128522923207,0.7655175107070269,walk
23/10/2020, 15:43:04,-9.515413,-3.3051271,4.87626,-0.31192344,0.51411384,0.20968631,11.19128522923207,0.6368497682556454,walk
23/10/2020, 15:43:04,-9.515413,-3.3051271,4.87626,-0.12133356,0.47868368,0.1766996,11.19128522923207,0.5244832174728108,walk
23/10/2020, 15:43:04,-9.515413,-3.3051271,4.87626,0.0643694,0.43836656,0.13516077,11.19128522923207,0.46322467295945796,walk
23/10/2020, 15:43:05,-6.1240654,-2.42855,2.3830445,0.699669,0.4029364,0.15837365,7.00577855342603,0.8227859200979473,walk
23/10/2020, 15:43:05,-6.2917166,-2.4045997,2.4572902,0.699669,0.4029364,0.15837365,7.169802787859488,0.8227859200979473,walk
23/10/2020, 15:43:05,-6.449788,-2.4069948,2.5459058,0.699669,0.4029364,0.15837365,7.339960967277977,0.8227859200979473,walk
23/10/2020, 15:43:05,-6.600674,-2.4069948,2.6105714,0.699669,0.4029364,0.15837365,7.495172198209013,0.8227859200979473,walk
23/10/2020, 15:43:05,-6.72761,-2.320774,2.6345215,0.699669,0.4029364,0.15837365,7.5886384538516625,0.8227859200979473,walk
23/10/2020, 15:43:05,-6.847361,-2.2513185,2.4644752,0.699669,0.4029364,0.15837365,7.617639164490093,0.8227859200979473,walk
23/10/2020, 15:43:05,-7.247329,-2.1387525,2.2321582,0.699669,0.4029364,0.15837365,7.879122621677915,0.8227859200979473,walk
23/10/2020, 15:43:05,-7.247329,-2.1387525,2.2321582,0.6972256,0.46890983,0.351407,7.879122621677915,0.9107616585062983,walk
23/10/2020, 15:43:05,-7.247329,-2.1387525,2.2321582,0.6850083,0.5263311,0.53711,7.879122621677915,1.0172256041644387,walk
23/10/2020, 15:43:05,-7.247329,-2.1387525,2.2321582,0.66423887,0.5788655,0.7130391,7.879122621677915,1.1334563664348554,walk
23/10/2020, 15:43:05,-7.247329,-2.1387525,2.2321582,0.6385825,0.626513,0.8828595,7.879122621677915,1.256879920859305,walk
23/10/2020, 15:43:05,-7.247329,-2.1387525,2.2321582,0.6055958,0.671717,1.0453496,7.879122621677915,1.3822828219227554,walk
23/10/2020, 15:43:05,-7.247329,-2.1387525,2.2321582,0.55794835,0.71692103,1.1992877,7.879122621677915,1.5045175313751487,walk
23/10/2020, 15:43:05,-7.247329,-2.1387525,2.2321582,0.500527,0.7657902,1.3434517,7.879122621677915,1.625369048126891,walk
23/10/2020, 15:43:05,-7.247329,-2.1387525,2.2321582,0.42111456,0.8280985,1.4925028,7.879122621677915,1.7580242306062268,walk
23/10/2020, 15:43:05,-7.247329,-2.1387525,2.2321582,0.31115887,0.9270586,1.6672102,7.879122621677915,1.9328340249124767,walk
23/10/2020, 15:43:05,-7.247329,-2.1387525,2.2321582,0.17921203,1.0809965,1.894452,7.879122621677915,2.188519751715497,walk
23/10/2020, 15:43:05,-8.138277,-2.076482,2.1387525,0.17921203,1.0809965,1.894452,8.667040626855801,2.188519751715497,walk
23/10/2020, 15:43:05,-8.138277,-2.076482,2.1387525,0.049708646,1.27403,2.1681194,8.667040626855801,2.515226665620632,walk
23/10/2020, 15:43:05,-9.484278,-2.047742,1.9279908,0.049708646,1.27403,2.1681194,9.892518350724437,2.515226665620632,walk
23/10/2020, 15:43:05,-9.484278,-2.047742,1.9279908,-0.09812069,1.4719502,2.4576695,9.892518350724437,2.8664271029975703,walk
23/10/2020, 15:43:05,-11.105706,-2.071692,1.695674,-0.09812069,1.4719502,2.4576695,11.423831596810334,2.8664271029975703,walk
23/10/2020, 15:43:05,-11.105706,-2.071692,1.695674,-0.3021496,1.6368837,2.7374458,11.423831596810334,3.203793442218863,walk
23/10/2020, 15:43:05,-12.727135,-2.0166066,1.4729371,-0.3021496,1.6368837,2.7374458,12.969818948833128,3.203793442218863,walk
23/10/2020, 15:43:05,-12.727135,-2.0166066,1.4729371,-0.5770388,1.7382873,2.9744613,12.969818948833128,3.4931413902463766,walk
23/10/2020, 15:43:05,-14.195281,-1.9447559,1.3004956,-0.5770388,1.7382873,2.9744613,14.386777537418178,3.4931413902463766,walk
23/10/2020, 15:43:05,-14.195281,-1.9447559,1.3004956,-0.9215667,1.757835,3.1540556,14.386777537418178,3.7265716042666583,walk
23/10/2020, 15:43:05,-15.337706,-1.9423609,1.3004956,-0.9215667,1.757835,3.1540556,15.51480802639145,3.7265716042666583,walk
23/10/2020, 15:43:05,-15.337706,-1.9423609,1.3004956,-1.3381767,1.685753,3.2823374,15.51480802639145,3.9250756776344446,walk
23/10/2020, 15:43:05,-15.778389,-2.047742,1.3292359,-1.3381767,1.685753,3.2823374,15.966141477109058,3.9250756776344446,walk
23/10/2020, 15:43:06,-10.748848,-2.2968237,3.6116896,-1.1598041,-0.6013257,-1.1268864,11.569677321471177,1.7252857838673625,walk
23/10/2020, 15:43:06,-10.049502,-2.3519094,3.5805542,-1.1598041,-0.6013257,-1.1268864,10.92448371668017,1.7252857838673625,walk
23/10/2020, 15:43:06,-10.049502,-2.3519094,3.5805542,-1.0962741,-0.62820375,-1.2209595,10.92448371668017,1.7570427269011057,walk
23/10/2020, 15:43:06,-9.295072,-2.4860303,3.5182838,-1.0962741,-0.62820375,-1.2209595,10.244853544249702,1.7570427269011057,walk
23/10/2020, 15:43:06,-9.295072,-2.4860303,3.5182838,-0.9875401,-0.6428645,-1.3125893,10.244853544249702,1.7639163632119534,walk
23/10/2020, 15:43:06,-8.681946,-2.7446926,3.537444,-0.9875401,-0.6428645,-1.3125893,9.768471273600507,1.7639163632119534,walk
23/10/2020, 15:43:06,-8.681946,-2.7446926,3.537444,-0.8189414,-0.64530796,-1.3920017,9.768471273600507,1.7391826435542581,walk
23/10/2020, 15:43:06,-8.253238,-3.06802,3.5613942,-0.8189414,-0.64530796,-1.3920017,9.498010794518185,1.7391826435542581,walk
23/10/2020, 15:43:06,-8.253238,-3.06802,3.5613942,-0.5929213,-0.64164275,-1.4640838,9.498010794518185,1.7049347353697772,walk
23/10/2020, 15:43:06,-8.056846,-3.4608033,3.63564,-0.5929213,-0.64164275,-1.4640838,9.492512779599434,1.7049347353697772,walk
23/10/2020, 15:43:06,-8.056846,-3.4608033,3.63564,-0.3143669,-0.6343124,-1.5337224,9.492512779599434,1.6892256107984507,walk
23/10/2020, 15:43:06,-7.9849954,-3.7050953,3.6092947,-0.3143669,-0.6343124,-1.5337224,9.513931363505625,1.6892256107984507,walk
23/10/2020, 15:43:06,-7.9849954,-3.7050953,3.6092947,8.394448E-4,-0.62453854,-1.6009176,9.513931363505625,1.7184254957345522,walk
23/10/2020, 15:43:06,-8.128696,-3.8751419,3.6045046,8.394448E-4,-0.62453854,-1.6009176,9.699736263089891,1.7184254957345522,walk
23/10/2020, 15:43:06,-8.128696,-3.8751419,3.6045046,0.32215443,-0.6159864,-1.6644475,9.699736263089891,1.803776140537175,walk
23/10/2020, 15:43:06,-8.361013,-3.906277,3.4631984,0.32215443,-0.6159864,-1.6644475,9.856941115045021,1.803776140537175,walk
23/10/2020, 15:43:06,-8.361013,-3.906277,3.4631984,0.6141479,-0.6184299,-1.7194254,9.856941115045021,1.9277077134135803,walk
23/10/2020, 15:43:06,-8.638836,-3.796106,3.1494508,0.6141479,-0.6184299,-1.7194254,9.947811194426178,1.9277077134135803,walk
23/10/2020, 15:43:06,-8.638836,-3.796106,3.1494508,0.86338085,-0.6330907,-1.7670729,9.947811194426178,2.06610188137719,walk
23/10/2020, 15:43:06,-8.971744,-3.68354,2.9338992,0.86338085,-0.6330907,-1.7670729,10.132542373371233,2.06610188137719,walk
23/10/2020, 15:43:06,-8.971744,-3.68354,2.9338992,1.0820705,-0.65752524,-1.8012813,10.132542373371233,2.2017789138070016,walk
23/10/2020, 15:43:06,-9.4435625,-3.6284547,2.804568,1.0820705,-0.65752524,-1.8012813,10.498197854778256,2.2017789138070016,walk
23/10/2020, 15:43:06,-9.4435625,-3.6284547,2.804568,1.2677734,-0.67829466,-1.8293811,10.498197854778256,2.326793555784558,walk
23/10/2020, 15:43:06,-10.080638,-3.68354,2.7854078,1.2677734,-0.67829466,-1.8293811,11.088111892180237,2.326793555784558,walk
23/10/2020, 15:43:06,-10.080638,-3.68354,2.7854078,1.414381,-0.69417715,-1.8367115,11.088111892180237,2.419889426439091,walk
23/10/2020, 15:43:06,-10.935659,-3.5637891,2.8668385,1.414381,-0.69417715,-1.8367115,11.853607146613957,2.419889426439091,walk
23/10/2020, 15:43:06,-10.935659,-3.5637891,2.8668385,1.5255585,-0.7186118,-1.8330463,11.853607146613957,2.4907409212815486,walk
23/10/2020, 15:43:06,-11.852952,-3.5110989,2.8812087,1.5255585,-0.7186118,-1.8330463,12.693370306800349,2.4907409212815486,walk
23/10/2020, 15:43:06,-11.852952,-3.5110989,2.8812087,1.5695407,-0.7723679,-1.839155,12.693370306800349,2.5382082772017065,walk
23/10/2020, 15:43:06,-12.808565,-3.3697927,2.6896071,1.5695407,-0.7723679,-1.839155,13.514763422468873,2.5382082772017065,walk
23/10/2020, 15:43:07,-12.197835,-5.5564456,1.9399658,0.115682065,0.6313999,2.0508335,13.543438746755038,2.148945347602265,walk
23/10/2020, 15:43:07,-12.073294,-5.2810183,1.5974782,0.115682065,0.6313999,2.0508335,13.274242377722196,2.148945347602265,walk
23/10/2020, 15:43:07,-12.073294,-5.2810183,1.5974782,0.378354,0.63262165,1.8272569,13.274242377722196,1.9703374711537147,walk
23/10/2020, 15:43:07,-11.826607,-4.974456,1.1136842,0.378354,0.63262165,1.8272569,12.878436648773764,1.9703374711537147,walk
23/10/2020, 15:43:07,-11.826607,-4.974456,1.1136842,0.5665004,0.626513,1.6183411,12.878436648773764,1.8255051778983025,walk
23/10/2020, 15:43:07,-11.658956,-4.641548,0.84544194,0.5665004,0.626513,1.6183411,12.577360074286288,1.8255051778983025,walk
23/10/2020, 15:43:07,-11.658956,-4.641548,0.84544194,0.6911169,0.61673915,1.4350815,12.577360074286288,1.7080599091719606,walk
23/10/2020, 15:43:07,-11.508069,-4.2343946,0.61073,0.6911169,0.61673915,1.4350815,12.27757066050893,1.7080599091719606,walk
23/10/2020, 15:43:07,-11.508069,-4.2343946,0.61073,0.72776884,0.6094088,1.2713697,12.27757066050893,1.5866340049441054,walk
23/10/2020, 15:43:07,-11.383529,-3.8176613,0.5556446,0.72776884,0.6094088,1.2713697,12.019484367400851,1.5866340049441054,walk
23/10/2020, 15:43:07,-11.383529,-3.8176613,0.5556446,0.6630171,0.5898611,1.1394229,12.019484367400851,1.4442341599408746,walk
23/10/2020, 15:43:07,-11.294912,-3.3338673,0.57719976,0.6630171,0.5898611,1.1394229,11.790796221589156,1.4442341599408746,walk
23/10/2020, 15:43:07,-11.294912,-3.3338673,0.57719976,0.48097935,0.5556527,1.0367975,11.790796221589156,1.2708422960816597,walk
23/10/2020, 15:43:07,-11.151212,-2.8261232,0.6730005,0.48097935,0.5556527,1.0367975,11.523429415129561,1.2708422960816597,walk
23/10/2020, 15:43:07,-11.151212,-2.8261232,0.6730005,0.17188165,0.50434,0.95616335,11.523429415129561,1.0946006004219981,walk
23/10/2020, 15:43:07,-10.868599,-2.3135889,0.7807764,0.17188165,0.50434,0.95616335,11.139512917312967,1.0946006004219981,walk
23/10/2020, 15:43:07,-10.868599,-2.3135889,0.7807764,-0.23861964,0.44203177,0.8828595,11.139512917312967,1.015761963078411,walk
23/10/2020, 15:43:07,-10.47821,-1.9663111,0.9508228,-0.23861964,0.44203177,0.8828595,10.703426436891874,1.015761963078411,walk
23/10/2020, 15:43:07,-10.47821,-1.9663111,0.9508228,-0.7138726,0.37361488,0.8132209,10.703426436891874,1.1447840162697134,walk
23/10/2020, 15:43:07,-10.071057,-1.7555494,1.0873389,-0.7138726,0.37361488,0.8132209,10.280586329396652,1.1447840162697134,walk
23/10/2020, 15:43:07,-10.071057,-1.7555494,1.0873389,-1.1927909,0.30397627,0.76313,10.280586329396652,1.4482814063302833,walk
23/10/2020, 15:43:07,-9.673484,-1.8609302,1.3507911,-1.1927909,0.30397627,0.76313,9.94303714068721,1.4482814063302833,walk
23/10/2020, 15:43:07,-9.673484,-1.8609302,1.3507911,-1.626505,0.24533324,0.717926,9.94303714068721,1.794749215780386,walk
23/10/2020, 15:43:07,-9.223221,-2.2752686,1.4609619,-1.626505,0.24533324,0.717926,9.611402559994639,1.794749215780386,walk
23/10/2020, 15:43:07,-9.223221,-2.2752686,1.4609619,-1.9905806,0.20257269,0.6886045,9.611402559994639,2.1160394081388154,walk
23/10/2020, 15:43:07,-9.017249,-2.7782228,1.6884888,-1.9905806,0.20257269,0.6886045,9.585421115064793,2.1160394081388154,walk
23/10/2020, 15:43:07,-9.017249,-2.7782228,1.6884888,-2.2349265,0.16958599,0.6800524,9.585421115064793,2.3422482713994293,walk
23/10/2020, 15:43:07,-8.760982,-3.178191,1.9902613,-2.2349265,0.16958599,0.6800524,9.529786759965514,2.3422482713994293,walk
23/10/2020, 15:43:07,-8.760982,-3.178191,1.9902613,-2.349769,0.1414862,0.6763872,9.529786759965514,2.449271906497815,walk
23/10/2020, 15:43:07,-8.566985,-3.5182838,2.189048,-2.349769,0.1414862,0.6763872,9.516485002515505,2.449271906497815,walk
23/10/2020, 15:43:08,-5.4199295,-2.090852,1.9830762,0.50663567,0.24655499,0.2585555,6.138394683049485,0.6199354856431426,walk
23/10/2020, 15:43:08,-5.5636306,-2.0860622,2.076482,0.50663567,0.24655499,0.2585555,6.294236923478666,0.6199354856431426,walk
23/10/2020, 15:43:08,-5.5636306,-2.0860622,2.076482,0.44799265,0.30275455,0.4540323,6.294236923478666,0.7060474957530771,walk
23/10/2020, 15:43:08,-5.688172,-2.066902,2.071692,0.44799265,0.30275455,0.4540323,6.3968187723634,0.7060474957530771,walk
23/10/2020, 15:43:08,-5.688172,-2.066902,2.071692,0.36613673,0.3626193,0.6617264,6.3968187723634,0.8387077666253447,walk
23/10/2020, 15:43:08,-5.9252787,-2.0381618,2.1315675,0.36613673,0.3626193,0.6617264,6.618656245319961,0.8387077666253447,walk
23/10/2020, 15:43:08,-5.9252787,-2.0381618,2.1315675,0.2830591,0.42370582,0.8804161,6.618656245319961,1.0172421384172918,walk
23/10/2020, 15:43:08,-6.12646,-2.047742,2.1459377,0.2830591,0.42370582,0.8804161,6.806747272718629,1.0172421384172918,walk
23/10/2020, 15:43:08,-6.12646,-2.047742,2.1459377,0.1938728,0.47624022,1.1039927,6.806747272718629,1.2178634111914368,walk
23/10/2020, 15:43:08,-6.3060865,-2.069297,2.2297633,0.1938728,0.47624022,1.1039927,7.001468565677716,1.2178634111914368,walk
23/10/2020, 15:43:08,-6.3060865,-2.069297,2.2297633,0.09857784,0.5202225,1.3190172,7.001468565677716,1.4213216823030843,walk
23/10/2020, 15:43:08,-6.4593678,-1.9998415,2.3375392,0.09857784,0.5202225,1.3190172,7.154501176264478,1.4213216823030843,walk
23/10/2020, 15:43:08,-6.4593678,-1.9998415,2.3375392,0.0057263654,0.5556527,1.5315982,7.154501176264478,1.6292868893303978,walk
23/10/2020, 15:43:08,-6.5144534,-1.9639161,2.543511,0.0057263654,0.5556527,1.5315982,7.263918867802192,1.6292868893303978,walk
23/10/2020, 15:43:08,-6.5144534,-1.9639161,2.543511,-0.07735128,0.5910828,1.7392923,7.263918867802192,1.8386135237961376,walk
23/10/2020, 15:43:08,-6.559959,-1.9112257,2.7806177,-0.07735128,0.5910828,1.7392923,7.376833987810464,1.8386135237961376,walk
23/10/2020, 15:43:08,-6.559959,-1.9112257,2.7806177,-0.14576815,0.6387303,1.944543,7.376833987810464,2.0519435246945843,walk
23/10/2020, 15:43:08,-6.6509695,-1.8633252,2.8931837,-0.14576815,0.6387303,1.944543,7.488517094413455,2.0519435246945843,walk
23/10/2020, 15:43:08,-6.6509695,-1.8633252,2.8931837,-0.23251098,0.7108124,2.1510153,7.488517094413455,2.277319115369817,walk
23/10/2020, 15:43:08,-6.912027,-1.84177,2.823728,-0.23251098,0.7108124,2.1510153,7.690362334975868,2.277319115369817,walk
23/10/2020, 15:43:08,-6.912027,-1.84177,2.823728,-0.33269286,0.825655,2.3745918,7.690362334975868,2.5359568290219103,walk
23/10/2020, 15:43:08,-7.599397,-1.8681153,2.8093581,-0.33269286,0.825655,2.3745918,8.314636815832783,2.5359568290219103,walk
23/10/2020, 15:43:08,-7.599397,-1.8681153,2.8093581,-0.42554432,0.9685974,2.618938,8.314636815832783,2.8245539475987114,walk
23/10/2020, 15:43:08,-8.713081,-1.9303858,2.7494826,-0.42554432,0.9685974,2.618938,9.33829914762527,2.8245539475987114,walk
23/10/2020, 15:43:08,-8.713081,-1.9303858,2.7494826,-0.51717407,1.1115398,2.8755012,9.33829914762527,3.125939335367619,walk
23/10/2020, 15:43:08,-10.066268,-2.0261867,2.4812403,-0.51717407,1.1115398,2.8755012,10.563699003662945,3.125939335367619,walk
23/10/2020, 15:43:08,-10.066268,-2.0261867,2.4812403,-0.63812536,1.2410432,3.1406167,10.563699003662945,3.4366939345992433,walk
23/10/2020, 15:43:08,-11.53681,-2.1219873,2.2489235,-0.63812536,1.2410432,3.1406167,11.94397214212362,3.4366939345992433,walk
23/10/2020, 15:43:08,-11.53681,-2.1219873,2.2489235,-0.7859547,1.3632162,3.4045103,11.94397214212362,3.7505697198810455,walk
23/10/2020, 15:43:08,-13.091177,-2.1746778,1.9902613,-0.7859547,1.3632162,3.4045103,13.41898948320044,3.7505697198810455,walk
23/10/2020, 15:43:09,-9.15137,-3.915857,3.0225148,1.1175007,-0.48281786,-1.6791083,10.402745130369684,2.073963686166482,walk
23/10/2020, 15:43:09,-9.630374,-3.9350173,2.929109,1.1175007,-0.48281786,-1.6791083,10.807781647126331,2.073963686166482,walk
23/10/2020, 15:43:09,-9.630374,-3.9350173,2.929109,1.4546981,-0.47793093,-1.6815518,10.807781647126331,2.2742429512179396,walk
23/10/2020, 15:43:09,-10.150093,-3.8248463,2.8428884,1.4546981,-0.47793093,-1.6815518,11.213199930282995,2.2742429512179396,walk
23/10/2020, 15:43:09,-10.150093,-3.8248463,2.8428884,1.7393612,-0.4889265,-1.6827735,11.213199930282995,2.469038870873236,walk
23/10/2020, 15:43:09,-10.557246,-3.6380348,2.7135572,1.7393612,-0.4889265,-1.6827735,11.491481095527503,2.469038870873236,walk
23/10/2020, 15:43:09,-10.557246,-3.6380348,2.7135572,1.9604944,-0.51946974,-1.6705562,11.491481095527503,2.627573990113362,walk
23/10/2020, 15:43:09,-10.962005,-3.3458424,2.6584718,1.9604944,-0.51946974,-1.6705562,11.765529301312135,2.627573990113362,walk
23/10/2020, 15:43:09,-10.962005,-3.3458424,2.6584718,2.1388671,-0.5536782,-1.6436782,11.765529301312135,2.7537229696948766,walk
23/10/2020, 15:43:09,-11.247012,-3.163821,2.5099807,2.1388671,-0.5536782,-1.6436782,11.95010662100205,2.7537229696948766,walk
23/10/2020, 15:43:09,-11.247012,-3.163821,2.5099807,2.2952485,-0.5829997,-1.6192435,11.95010662100205,2.868798336208619,walk
23/10/2020, 15:43:09,-11.567945,-3.1302907,2.411785,2.2952485,-0.5829997,-1.6192435,12.224269592644394,2.868798336208619,walk
23/10/2020, 15:43:09,-11.567945,-3.1302907,2.411785,2.3978739,-0.61109954,-1.5984741,12.224269592644394,2.9459058671924456,walk
23/10/2020, 15:43:09,-11.896063,-3.0728102,2.2848487,2.3978739,-0.61109954,-1.5984741,12.49715996735476,2.9459058671924456,walk
23/10/2020, 15:43:09,-11.896063,-3.0728102,2.2848487,2.4589603,-0.64164275,-1.5557135,12.49715996735476,2.979670409582925,walk
23/10/2020, 15:43:09,-12.25292,-2.8788135,2.1435425,2.4589603,-0.64164275,-1.5557135,12.76778735679703,2.979670409582925,walk
23/10/2020, 15:43:09,-12.25292,-2.8788135,2.1435425,2.4675124,-0.6672991,-1.504401,12.76778735679703,2.965995219830061,walk
23/10/2020, 15:43:09,-12.499607,-2.7973828,1.9806812,2.4675124,-0.6672991,-1.504401,12.9610426261119,2.965995219830061,walk
23/10/2020, 15:43:09,-12.499607,-2.7973828,1.9806812,2.401539,-0.71372485,-1.4640838,12.9610426261119,2.9017812629544726,walk
23/10/2020, 15:43:09,-12.674444,-2.6153615,1.8130299,2.401539,-0.71372485,-1.4640838,13.067850956976237,2.9017812629544726,walk
23/10/2020, 15:43:09,-12.674444,-2.6153615,1.8130299,2.2732573,-0.78091997,-1.440871,13.067850956976237,2.8024353315495287,walk
23/10/2020, 15:43:09,-12.655284,-2.3758595,1.6621436,2.2732573,-0.78091997,-1.440871,12.98320611260709,2.8024353315495287,walk
23/10/2020, 15:43:09,-12.655284,-2.3758595,1.6621436,2.0961065,-0.85178035,-1.4262102,12.98320611260709,2.6745593636796507,walk
23/10/2020, 15:43:09,-12.502003,-2.1722827,1.5399976,2.0961065,-0.85178035,-1.4262102,12.782428429764309,2.6745593636796507,walk
23/10/2020, 15:43:09,-12.502003,-2.1722827,1.5399976,1.8749733,-0.91775376,-1.4103277,12.782428429764309,2.5192897742735125,walk
23/10/2020, 15:43:09,-12.20502,-1.954336,1.3196558,1.8749733,-0.91775376,-1.4103277,12.430745462502452,2.5192897742735125,walk
23/10/2020, 15:43:09,-12.20502,-1.954336,1.3196558,1.6232969,-0.9812837,-1.395667,12.430745462502452,2.3549727573234764,walk
23/10/2020, 15:43:09,-11.840977,-1.8537452,1.0849439,1.6232969,-0.9812837,-1.395667,12.034209743949535,2.3549727573234764,walk
23/10/2020, 15:43:09,-11.840977,-1.8537452,1.0849439,1.3447424,-1.0399268,-1.3871149,12.034209743949535,2.194052767733328,walk
23/10/2020, 15:43:09,-11.383529,-1.705254,0.8885523,1.3447424,-1.0399268,-1.3871149,11.544788527550715,2.194052767733328,walk
23/10/2020, 15:43:10,-7.8700347,-3.4751735,2.8836036,0.23174642,0.34918028,0.53222305,9.073557534429066,0.6774176278826143,walk
23/10/2020, 15:43:10,-8.315508,-2.9841945,2.8931837,0.23174642,0.34918028,0.53222305,9.296429440061274,0.6774176278826143,walk
23/10/2020, 15:43:10,-8.315508,-2.9841945,2.8931837,0.5359572,0.37605834,0.550549,9.296429440061274,0.8554380064988338,walk
23/10/2020, 15:43:10,-8.657996,-2.567461,2.8572583,0.5359572,0.37605834,0.550549,9.471888881122768,0.8554380064988338,walk
23/10/2020, 15:43:10,-8.657996,-2.567461,2.8572583,0.7473165,0.37239316,0.5432186,9.471888881122768,0.9961149774804403,walk
23/10/2020, 15:43:10,-9.024434,-2.2321582,2.8452833,0.7473165,0.37239316,0.5432186,9.722066533568306,0.9961149774804403,walk
23/10/2020, 15:43:10,-9.024434,-2.2321582,2.8452833,0.8487201,0.35528892,0.5236709,9.722066533568306,1.0586723789775823,walk
23/10/2020, 15:43:10,-9.16095,-1.9591261,2.7782228,0.8487201,0.35528892,0.5236709,9.771371274861139,1.0586723789775823,walk
23/10/2020, 15:43:10,-9.16095,-1.9591261,2.7782228,0.86460257,0.32718915,0.50045806,9.771371274861139,1.051212921566035,walk
23/10/2020, 15:43:10,-9.2256155,-1.6214283,2.7854078,0.86460257,0.32718915,0.50045806,9.772384942456496,1.051212921566035,walk
23/10/2020, 15:43:10,-9.2256155,-1.6214283,2.7854078,0.81328994,0.29542416,0.47235826,9.772384942456496,0.9858185867237939,walk
23/10/2020, 15:43:10,-9.14658,-1.4226416,2.7279274,0.81328994,0.29542416,0.47235826,9.650151209113885,0.9858185867237939,walk
23/10/2020, 15:43:10,-9.14658,-1.4226416,2.7279274,0.7167733,0.27221128,0.44059327,9.650151209113885,0.8842993482892694,walk
23/10/2020, 15:43:10,-9.065149,-1.1879297,2.682422,0.7167733,0.27221128,0.44059327,9.528037385724705,0.8842993482892694,walk
23/10/2020, 15:43:10,-9.065149,-1.1879297,2.682422,0.5970437,0.25022015,0.41493696,9.528037385724705,0.7689239073759474,walk
23/10/2020, 15:43:10,-8.950189,-0.96040285,2.7255323,0.5970437,0.25022015,0.41493696,9.40514627973013,0.7689239073759474,walk
23/10/2020, 15:43:10,-8.950189,-0.96040285,2.7255323,0.47242725,0.2270073,0.39416754,9.40514627973013,0.6558108501555091,walk
23/10/2020, 15:43:10,-8.859178,-0.8286768,2.7494826,0.47242725,0.2270073,0.39416754,9.312968784143113,0.6558108501555091,walk
23/10/2020, 15:43:10,-8.859178,-0.8286768,2.7494826,0.35636288,0.20379442,0.3636243,9.312968784143113,0.5484061470304051,walk
23/10/2020, 15:43:10,-8.854387,-0.8143067,2.823728,0.35636288,0.20379442,0.3636243,9.32934669855705,0.5484061470304051,walk
23/10/2020, 15:43:10,-8.854387,-0.8143067,2.823728,0.25007236,0.18180329,0.32941586,9.32934669855705,0.451778073226237,walk
23/10/2020, 15:43:10,-8.909473,-0.92208254,2.8620484,0.25007236,0.18180329,0.32941586,9.40320550645286,0.451778073226237,walk
23/10/2020, 15:43:10,-8.909473,-0.92208254,2.8620484,0.16210781,0.15859042,0.2952074,9.40320550645286,0.37225969347138077,walk
23/10/2020, 15:43:10,-9.045989,-1.0753639,2.9578493,0.16210781,0.15859042,0.2952074,9.577849308764888,0.37225969347138077,walk
23/10/2020, 15:43:10,-9.045989,-1.0753639,2.9578493,0.10590822,0.124381974,0.26710764,9.577849308764888,0.3131036828299578,walk
23/10/2020, 15:43:10,-9.2328005,-1.2789404,3.0344899,0.10590822,0.124381974,0.26710764,9.80247020860185,0.3131036828299578,walk
23/10/2020, 15:43:10,-9.2328005,-1.2789404,3.0344899,0.08513881,0.08528661,0.24755993,9.80247020860185,0.27533315198601854,walk
23/10/2020, 15:43:10,-9.374106,-1.5184424,3.1231055,0.08513881,0.08528661,0.24755993,9.99666576204748,0.27533315198601854,walk
23/10/2020, 15:43:10,-9.374106,-1.5184424,3.1231055,0.09002573,0.0400826,0.2341209,9.99666576204748,0.2540154430439616,walk
23/10/2020, 15:43:10,-9.491463,-1.6453785,3.2045362,0.09002573,0.0400826,0.2341209,10.152053333858674,0.2540154430439616,walk
23/10/2020, 15:43:11,-14.338983,-1.8944606,1.6741188,-1.517771,1.572132,3.4167275,14.560153704961703,4.0557681055663,walk
23/10/2020, 15:43:11,-15.059883,-2.0237916,1.83219,-1.517771,1.572132,3.4167275,15.305317118347979,4.0557681055663,walk
23/10/2020, 15:43:11,-15.059883,-2.0237916,1.83219,-1.7731127,1.5293715,3.546231,15.305317118347979,4.249548234748883,walk
23/10/2020, 15:43:11,-15.558047,-2.2393434,2.191443,-1.7731127,1.5293715,3.546231,15.87041010123143,4.249548234748883,walk
23/10/2020, 15:43:11,-15.558047,-2.2393434,2.191443,-2.0382278,1.4218593,3.6305304,15.87041010123143,4.399637143453066,walk
23/10/2020, 15:43:11,-15.526913,-2.574646,2.6776319,-2.0382278,1.4218593,3.6305304,15.96507225209113,4.399637143453066,walk
23/10/2020, 15:43:11,-15.526913,-2.574646,2.6776319,-2.2850173,1.2935776,3.6574085,15.96507225209113,4.502364210482149,walk
23/10/2020, 15:43:11,-14.894628,-2.8931837,3.1470559,-2.2850173,1.2935776,3.6574085,15.49594795630557,4.502364210482149,walk
23/10/2020, 15:43:11,-14.894628,-2.8931837,3.1470559,-2.4878244,1.165296,3.6354172,15.49594795630557,4.556692166509566,walk
23/10/2020, 15:43:11,-13.912669,-3.1901662,3.5733693,-2.4878244,1.165296,3.6354172,14.714227545842085,4.556692166509566,walk
23/10/2020, 15:43:11,-13.912669,-3.1901662,3.5733693,-2.6283236,1.0528967,3.577996,14.714227545842085,4.5627548408842955,walk
23/10/2020, 15:43:11,-12.789405,-3.3434474,3.7697608,-2.6283236,1.0528967,3.577996,13.746221829258035,4.5627548408842955,walk
23/10/2020, 15:43:11,-12.789405,-3.3434474,3.7697608,-2.7028491,0.95882356,3.4936967,13.746221829258035,4.520027954275052,walk
23/10/2020, 15:43:11,-11.61345,-3.4344583,3.894302,-2.7028491,0.95882356,3.4936967,12.721372284603241,4.520027954275052,walk
23/10/2020, 15:43:11,-11.61345,-3.4344583,3.894302,-2.699184,0.8806328,3.3812973,12.721372284603241,4.415232709051351,walk
23/10/2020, 15:43:11,-10.538086,-3.4895437,3.8248463,-2.699184,0.8806328,3.3812973,11.741278434097945,4.415232709051351,walk
23/10/2020, 15:43:11,-10.538086,-3.4895437,3.8248463,-2.5892282,0.8219898,3.2579026,11.741278434097945,4.241898055714819,walk
23/10/2020, 15:43:11,-9.644744,-3.661985,3.8320315,-2.5892282,0.8219898,3.2579026,11.005257114510654,4.241898055714819,walk
23/10/2020, 15:43:11,-9.644744,-3.661985,3.8320315,-2.3656516,0.79022485,3.1247342,11.005257114510654,3.9980903482994705,walk
23/10/2020, 15:43:11,-9.1202345,-3.9805226,3.8487966,-2.3656516,0.79022485,3.1247342,10.669417645113912,3.9980903482994705,walk
23/10/2020, 15:43:11,-9.1202345,-3.9805226,3.8487966,-2.0321193,0.78289443,2.9817917,10.669417645113912,3.692358918894041,walk
23/10/2020, 15:43:11,-8.842413,-4.239185,3.781736,-2.0321193,0.78289443,2.9817917,10.510018144404796,3.692358918894041,walk
23/10/2020, 15:43:11,-8.842413,-4.239185,3.781736,-1.6155094,0.78778136,2.826632,10.510018144404796,3.3496744098717905,walk
23/10/2020, 15:43:11,-8.847202,-4.528982,3.755391,-1.6155094,0.78778136,2.826632,10.624858994998265,3.3496744098717905,walk
23/10/2020, 15:43:11,-8.847202,-4.528982,3.755391,-1.1488086,0.80244213,2.6568115,10.624858994998265,3.0037179946235106,walk
23/10/2020, 15:43:11,-9.096285,-4.6774735,3.6308498,-1.1488086,0.80244213,2.6568115,10.853765599197361,3.0037179946235106,walk
23/10/2020, 15:43:11,-9.096285,-4.6774735,3.6308498,-0.66622514,0.8171029,2.4723303,10.853765599197361,2.687737034110845,walk
23/10/2020, 15:43:11,-9.575289,-4.7397437,3.396138,-0.66622514,0.8171029,2.4723303,11.210935665910641,2.687737034110845,walk
23/10/2020, 15:43:11,-9.575289,-4.7397437,3.396138,-0.21907195,0.8305419,2.2780752,11.210935665910641,2.4346291469541628,walk
23/10/2020, 15:43:11,-10.051897,-4.653523,3.0919704,-0.21907195,0.8305419,2.2780752,11.500269193544542,2.4346291469541628,walk
23/10/2020, 15:43:25,-11.60866,-3.784131,1.7579445,0.717995,0.7816727,1.4998332,12.33576092518748,1.8373972744963014,walk
23/10/2020, 15:43:25,-12.082874,-3.4943337,1.346001,0.717995,0.7816727,1.4998332,12.649819697864869,1.8373972744963014,walk
23/10/2020, 15:43:25,-12.082874,-3.4943337,1.346001,0.70822114,0.7279166,1.3275692,12.649819697864869,1.6714903103056498,walk
23/10/2020, 15:43:25,-12.379856,-3.1326857,1.0298585,0.70822114,0.7279166,1.3275692,12.811524703002503,1.6714903103056498,walk
23/10/2020, 15:43:25,-12.379856,-3.1326857,1.0298585,0.5982654,0.65216935,1.1760747,12.811524703002503,1.4718689339901392,walk
23/10/2020, 15:43:25,-12.525952,-2.8093581,0.81191164,0.5982654,0.65216935,1.1760747,12.8627825747285,1.4718689339901392,walk
23/10/2020, 15:43:25,-12.525952,-2.8093581,0.81191164,0.39545825,0.55076575,1.0429062,12.8627825747285,1.2439386689755165,walk
23/10/2020, 15:43:25,-12.377461,-2.4740553,0.8047266,0.39545825,0.55076575,1.0429062,12.647928131375235,1.2439386689755165,walk
23/10/2020, 15:43:25,-12.377461,-2.4740553,0.8047266,0.10957342,0.44081002,0.9329505,12.647928131375235,1.0376494787438812,walk
23/10/2020, 15:43:25,-11.931988,-2.2225783,0.9532178,0.10957342,0.44081002,0.9329505,12.174596929195166,1.0376494787438812,walk
23/10/2020, 15:43:25,-11.931988,-2.2225783,0.9532178,-0.23984137,0.35895413,0.83887726,12.174596929195166,0.9434442276595412,walk
23/10/2020, 15:43:25,-11.376344,-1.9950514,1.1783496,-0.23984137,0.35895413,0.83887726,11.609906736715738,0.9434442276595412,walk
23/10/2020, 15:43:25,-11.376344,-1.9950514,1.1783496,-0.59780824,0.30764148,0.7582431,11.609906736715738,1.0133856849086587,walk
23/10/2020, 15:43:25,-10.909314,-1.8944606,1.477727,-0.59780824,0.30764148,0.7582431,11.170756169794684,1.0133856849086587,walk
23/10/2020, 15:43:25,-10.909314,-1.8944606,1.477727,-0.9374492,0.2758765,0.6800524,11.170756169794684,1.190541951966151,walk
23/10/2020, 15:43:25,-10.454261,-2.0142114,1.5543678,-0.9374492,0.2758765,0.6800524,10.759399437111643,1.190541951966151,walk
23/10/2020, 15:43:25,-10.454261,-2.0142114,1.5543678,-1.2746468,0.24899845,0.6128572,10.759399437111643,1.4360774919155488,walk
23/10/2020, 15:43:25,-10.140513,-2.1339624,1.6669337,-1.2746468,0.24899845,0.6128572,10.49583135010651,1.4360774919155488,walk
23/10/2020, 15:43:25,-10.140513,-2.1339624,1.6669337,-1.5825227,0.21479,0.5578794,10.49583135010651,1.6916685285921365,walk
23/10/2020, 15:43:25,-9.707015,-2.2968237,1.8681153,-1.5825227,0.21479,0.5578794,10.148467619683029,1.6916685285921365,walk
23/10/2020, 15:43:25,-9.707015,-2.2968237,1.8681153,-1.8232036,0.18302502,0.51267534,10.148467619683029,1.902736293066712,walk
23/10/2020, 15:43:25,-9.333391,-2.548301,2.1028273,-1.8232036,0.18302502,0.51267534,9.900904589385247,1.902736293066712,walk
23/10/2020, 15:43:25,-9.333391,-2.548301,2.1028273,-1.9881371,0.16103387,0.47846693,9.900904589385247,2.0512317615881757,walk
23/10/2020, 15:43:25,-8.959768,-2.9219239,2.2800586,-1.9881371,0.16103387,0.47846693,9.696069015981159,2.0512317615881757,walk
23/10/2020, 15:43:25,-8.959768,-2.9219239,2.2800586,-2.0626626,0.14515139,0.46014097,9.696069015981159,2.1183426657022104,walk
23/10/2020, 15:43:25,-8.660391,-3.3338673,2.435735,-2.0626626,0.14515139,0.46014097,9.594261093002244,2.1183426657022104,walk
23/10/2020, 15:43:25,-8.660391,-3.3338673,2.435735,-2.0443366,0.14026447,0.46258444,9.594261093002244,2.100707128750664,walk
23/10/2020, 15:43:25,-8.660391,-3.3338673,2.435735,0.4382188,-0.47304404,-2.1775742,9.594261093002244,2.2710428425454925,walk
23/10/2020, 15:43:25,-8.660391,-3.3338673,2.435735,0.55917007,-0.4192879,-2.1458092,9.594261093002244,2.256761065881346,walk
23/10/2020, 15:43:25,-8.660391,-3.3338673,2.435735,0.6630171,-0.36919698,-2.1006052,9.594261093002244,2.2334816972305966,walk
23/10/2020, 15:43:26,-8.978929,-2.3566992,1.2861255,-1.0889438,-0.13340306,0.24755993,9.371729208213804,1.124669277241305,walk
23/10/2020, 15:43:26,-8.978929,-2.3566992,1.2861255,-1.3894894,-0.15295075,0.18525171,9.371729208213804,1.4101038811269027,walk
23/10/2020, 15:43:26,-8.978929,-2.3566992,1.2861255,-1.6680439,-0.16516805,0.124165215,9.371729208213804,1.6807937934061288,walk
23/10/2020, 15:43:26,-8.978929,-2.3566992,1.2861255,-1.9099463,-0.16394632,0.07407428,9.371729208213804,1.9184004661326814,walk
23/10/2020, 15:43:26,-8.978929,-2.3566992,1.2861255,-2.105423,-0.1395117,0.033757195,9.371729208213804,2.11031015772182,walk
23/10/2020, 15:43:26,-8.978929,-2.3566992,1.2861255,-2.2447002,-0.10163808,-0.004116436,9.371729208213804,2.2470038278468025,walk
23/10/2020, 15:43:26,-8.978929,-2.3566992,1.2861255,-2.3167822,-0.058877535,-0.03221623,9.371729208213804,2.317754167083663,walk
23/10/2020, 15:43:26,-8.978929,-2.3566992,1.2861255,-2.3131173,-0.016116982,-0.051763907,9.371729208213804,2.3137525243812025,walk
23/10/2020, 15:43:26,-8.978929,-2.3566992,1.2861255,-2.2239308,0.019313188,-0.05298564,9.371729208213804,2.2246457783654425,walk
23/10/2020, 15:43:26,-8.978929,-2.3566992,1.2861255,-2.051667,0.052299898,-0.039546605,9.371729208213804,2.052714444271109,walk
23/10/2020, 15:43:26,-8.978929,-2.3566992,1.2861255,-1.8060993,0.08650834,-0.013890276,9.371729208213804,1.8082232435379049,walk
23/10/2020, 15:43:26,-8.978929,-2.3566992,1.2861255,-1.517771,0.1256037,0.0081008645,9.371729208213804,1.522980873290777,walk
23/10/2020, 15:43:26,-8.978929,-2.3566992,1.2861255,-1.2062299,0.17202945,0.027648546,9.371729208213804,1.218749033344259,walk
23/10/2020, 15:43:26,-8.978929,-2.3566992,1.2861255,-0.88613653,0.22578557,0.047196224,9.371729208213804,0.9156661834493307,walk
23/10/2020, 15:43:26,-8.978929,-2.3566992,1.2861255,-0.5868127,0.27954167,0.067965634,9.371729208213804,0.6535380547048045,walk
23/10/2020, 15:43:26,-8.978929,-2.3566992,1.2861255,-0.3461319,0.33207607,0.089956775,9.371729208213804,0.4880307628157766,walk
23/10/2020, 15:43:26,-8.600515,-2.5004005,1.4705421,-0.3461319,0.33207607,0.089956775,9.076528048743581,0.4880307628157766,walk
23/10/2020, 15:43:26,-8.284373,-2.574646,1.6286134,-0.3461319,0.33207607,0.089956775,8.82677880976543,0.4880307628157766,walk
23/10/2020, 15:43:26,-8.071217,-2.7255323,1.8010547,-0.3461319,0.33207607,0.089956775,8.707287838708032,0.4880307628157766,walk
23/10/2020, 15:43:26,-7.9634404,-2.924319,1.9327809,-0.3461319,0.33207607,0.089956775,8.700785420718278,0.4880307628157766,walk
23/10/2020, 15:43:26,-7.893985,-3.2644117,1.9926564,-0.3461319,0.33207607,0.089956775,8.77166226750404,0.4880307628157766,walk
23/10/2020, 15:43:26,-7.846084,-3.4703834,2.1195924,-0.3461319,0.33207607,0.089956775,8.837265925000064,0.4880307628157766,walk
23/10/2020, 15:43:26,-7.704778,-3.7506008,2.189048,-0.3461319,0.33207607,0.089956775,8.844351014669618,0.4880307628157766,walk
23/10/2020, 15:43:26,-7.5012016,-3.8775368,2.2513185,-0.3461319,0.33207607,0.089956775,8.739093322788763,0.4880307628157766,walk
23/10/2020, 15:43:26,-7.278465,-3.9445972,2.3303542,-0.3461319,0.33207607,0.089956775,8.600374872099083,0.4880307628157766,walk
23/10/2020, 15:43:26,-7.1203933,-3.9924977,2.299219,-0.3461319,0.33207607,0.089956775,8.480946036348982,0.4880307628157766,walk
23/10/2020, 15:43:26,-6.9719024,-3.9278321,2.2872438,-0.3461319,0.33207607,0.089956775,8.322666175914755,0.4880307628157766,walk
23/10/2020, 15:43:26,-6.926397,-3.8152664,2.215393,-0.3461319,0.33207607,0.089956775,8.212137188186595,0.4880307628157766,walk
23/10/2020, 15:43:26,-6.9790874,-3.5901344,2.2369483,-0.3461319,0.33207607,0.089956775,8.160922903743383,0.4880307628157766,walk
23/10/2020, 15:43:26,-7.103628,-3.319497,2.2129982,-0.3461319,0.33207607,0.089956775,8.147266712712184,0.4880307628157766,walk
23/10/2020, 15:43:27,-9.692644,-3.7577858,4.045188,-0.4157705,0.27831995,-0.25579283,11.154902494940043,0.5619226608192782,walk
23/10/2020, 15:43:27,-9.692644,-3.7577858,4.045188,-0.26549768,0.2526636,-0.33031836,11.154902494940043,0.49339450892267084,walk
23/10/2020, 15:43:27,-9.692644,-3.7577858,4.045188,-0.14332469,0.21112481,-0.4048439,11.154902494940043,0.4785543137736562,walk
23/10/2020, 15:43:27,-9.692644,-3.7577858,4.045188,-0.046808027,0.18669021,-0.47936943,11.154902494940043,0.5165648830895172,walk
23/10/2020, 15:43:27,-9.692644,-3.7577858,4.045188,0.047265187,0.20012924,-0.5465646,11.154902494940043,0.5839679356996526,walk
23/10/2020, 15:43:27,-9.692644,-3.7577858,4.045188,0.16821647,0.21845518,-0.5844382,11.154902494940043,0.6462100748405428,walk
23/10/2020, 15:43:27,-9.692644,-3.7577858,4.045188,0.26351142,0.20012924,-0.6052076,11.154902494940043,0.6897581075218512,walk
23/10/2020, 15:43:27,-9.692644,-3.7577858,4.045188,0.29527637,0.13904274,-0.63086396,11.154902494940043,0.710288927678334,walk
23/10/2020, 15:43:27,-9.692644,-3.7577858,4.045188,0.27206352,0.05352163,-0.6614072,11.154902494940043,0.7171768078546492,walk
23/10/2020, 15:43:27,-9.692644,-3.7577858,4.045188,0.2060901,-0.036886394,-0.69195044,11.154902494940043,0.7229309402255816,walk
23/10/2020, 15:43:27,-9.692644,-3.7577858,4.045188,0.123012446,-0.12485095,-0.7188285,11.154902494940043,0.7398879869737878,walk
23/10/2020, 15:43:27,-9.692644,-3.7577858,4.045188,0.04848692,-0.21281551,-0.7395979,11.154902494940043,0.7711332569870205,walk
23/10/2020, 15:43:27,-9.692644,-3.7577858,4.045188,-0.024816886,-0.30322355,-0.76403254,11.154902494940043,0.822378334826476,walk
23/10/2020, 15:43:27,-9.692644,-3.7577858,4.045188,-0.09567723,-0.38996637,-0.8055713,11.154902494940043,0.900096132798819,walk
23/10/2020, 15:43:27,-9.692644,-3.7577858,4.045188,-0.1640941,-0.48281786,-0.8715448,11.154902494940043,1.0097674289282388,walk
23/10/2020, 15:43:27,-9.692644,-3.7577858,4.045188,-0.22273715,-0.581778,-0.9570659,11.154902494940043,1.1419512099917248,walk
23/10/2020, 15:43:27,-9.778865,-3.7170706,4.0763235,-0.22273715,-0.581778,-0.9570659,11.227609941816999,1.1419512099917248,walk
23/10/2020, 15:43:27,-9.826766,-3.5661843,4.1050634,-0.22273715,-0.581778,-0.9570659,11.230963737124851,1.1419512099917248,walk
23/10/2020, 15:43:27,-9.68067,-3.4057178,4.054768,-0.22273715,-0.581778,-0.9570659,11.034284108016447,1.1419512099917248,walk
