DATE,TIME,ax,ay,az,gx,gy,gz,ma,mg,label
10/07/2020, 15:05:00,-3.2757742,-0.85902333,8.394022,-0.31016225,0.48966557,1.01108,9.051421053858215,1.1654423227213857,walk
10/07/2020, 15:05:00,-3.2757742,-0.85902333,8.394022,-0.3309211,0.48356003,0.9866578,9.051421053858215,1.147533307894967,walk
10/07/2020, 15:05:00,-3.3092737,-0.66999036,8.439486,-0.3309211,0.48356003,0.9866578,9.089834761060274,1.147533307894967,walk
10/07/2020, 15:05:00,-3.3092737,-0.66999036,8.439486,-0.38953447,0.4591378,0.97566783,9.089834761060274,1.1465044028676643,walk
10/07/2020, 15:05:00,-3.359523,-0.63170516,8.396415,-0.38953447,0.4591378,0.97566783,9.065606839035931,1.1465044028676643,walk
10/07/2020, 15:05:00,-3.359523,-0.63170516,8.396415,-0.4371578,0.42983112,0.96956223,9.065606839035931,1.1471323649733125,walk
10/07/2020, 15:05:00,-3.397808,-0.715454,8.374879,-0.4371578,0.42983112,0.96956223,9.066177277444343,1.1471323649733125,walk
10/07/2020, 15:05:00,-3.397808,-0.715454,8.374879,-0.44692668,0.41029334,0.9634567,9.066177277444343,1.1385661507613984,walk
10/07/2020, 15:05:00,-3.4241292,-0.7728817,8.286345,-0.44692668,0.41029334,0.9634567,8.999195122139284,1.1385661507613984,walk
10/07/2020, 15:05:00,-3.4241292,-0.7728817,8.286345,-0.42983112,0.40174556,0.95613,8.999195122139284,1.1226481695898647,walk
10/07/2020, 15:05:00,-3.4217365,-0.81834537,8.238488,-0.42983112,0.40174556,0.95613,8.958273128737284,1.1226481695898647,walk
10/07/2020, 15:05:00,-3.4217365,-0.81834537,8.238488,-0.4041878,0.40540892,0.9378134,8.958273128737284,1.0987347921393946,walk
10/07/2020, 15:05:00,-3.4313076,-0.782453,8.183454,-0.4041878,0.40540892,0.9378134,8.908143263134031,1.0987347921393946,walk
10/07/2020, 15:05:00,-3.4313076,-0.782453,8.183454,-0.36633334,0.40785113,0.9060645,8.908143263134031,1.0590068714423655,walk
10/07/2020, 15:05:00,-3.3882368,-0.62931234,8.12124,-0.36633334,0.40785113,0.9060645,8.822171842377271,1.0590068714423655,walk
10/07/2020, 15:05:00,-3.3882368,-0.62931234,8.12124,-0.31871,0.40174556,0.8853056,8.822171842377271,1.0231038720501417,walk
10/07/2020, 15:05:00,-3.4193435,-0.42831525,8.111669,-0.31871,0.40174556,0.8853056,8.813315550482965,1.0231038720501417,walk
10/07/2020, 15:05:00,-3.4193435,-0.42831525,8.111669,-0.24910668,0.37488112,0.85722005,8.813315550482965,0.9682025661893593,walk
10/07/2020, 15:05:00,-3.481557,-0.37088752,8.157132,-0.24910668,0.37488112,0.85722005,8.876801272867956,0.9682025661893593,walk
10/07/2020, 15:05:00,-3.481557,-0.37088752,8.157132,-0.18927222,0.34191114,0.8169234,8.876801272867956,0.9055887639649879,walk
10/07/2020, 15:05:01,-8.185846,-3.790231,3.2949169,-7.183797,-0.6935911,0.92438114,9.60366639568023,7.276158792652509,walk
10/07/2020, 15:05:01,-8.374879,-4.106084,3.1489546,-7.183797,-0.6935911,0.92438114,9.84451300568337,7.276158792652509,walk
10/07/2020, 15:05:01,-8.374879,-4.106084,3.1489546,-7.3437624,-0.6581789,0.9194967,9.84451300568337,7.430310885949314,walk
10/07/2020, 15:05:01,-8.585447,-4.388437,2.8594232,-7.3437624,-0.6581789,0.9194967,10.057066363774036,7.430310885949314,walk
10/07/2020, 15:05:01,-8.585447,-4.388437,2.8594232,-7.5208235,-0.71923447,0.91094893,10.057066363774036,7.609856238632022,walk
10/07/2020, 15:05:01,-8.633304,-4.9316072,2.524428,-7.5208235,-0.71923447,0.91094893,10.258041625386083,7.609856238632022,walk
10/07/2020, 15:05:01,-8.633304,-4.9316072,2.524428,-7.690558,-0.7998278,0.9072856,10.258041625386083,7.785086597143799,walk
10/07/2020, 15:05:01,-8.403593,-5.651847,2.1774685,-7.690558,-0.7998278,0.9072856,10.358818408914283,7.785086597143799,walk
10/07/2020, 15:05:01,-8.403593,-5.651847,2.1774685,-7.7259703,-0.86821,0.9426978,10.358818408914283,7.831544190404344,walk
10/07/2020, 15:05:01,-8.078169,-6.599405,1.9573289,-7.7259703,-0.86821,0.9426978,10.61320369308901,7.831544190404344,walk
10/07/2020, 15:05:01,-8.078169,-6.599405,1.9573289,-7.657588,-0.8779789,1.0477134,10.61320369308901,7.77863769610354,walk
10/07/2020, 15:05:01,-7.585248,-7.585248,1.942972,-7.657588,-0.8779789,1.0477134,10.901702354365254,7.77863769610354,walk
10/07/2020, 15:05:01,-7.585248,-7.585248,1.942972,-7.515939,-0.79128003,1.1905833,10.901702354365254,7.650683328403651,walk
10/07/2020, 15:05:01,-7.1545396,-8.346166,2.0697916,-7.515939,-0.79128003,1.1905833,11.186150139015322,7.650683328403651,walk
10/07/2020, 15:05:01,-7.1545396,-8.346166,2.0697916,-7.27538,-0.6801589,1.3383378,11.186150139015322,7.428655346737728,walk
10/07/2020, 15:05:01,-6.943971,-8.750552,2.3162522,-7.27538,-0.6801589,1.3383378,11.408589888350287,7.428655346737728,walk
10/07/2020, 15:05:01,-6.943971,-8.750552,2.3162522,-6.983535,-0.6056711,1.4457957,11.408589888350287,7.157298446403803,walk
10/07/2020, 15:05:01,-6.9344,-8.985049,2.455036,-6.983535,-0.6056711,1.4457957,11.61224422190313,7.157298446403803,walk
10/07/2020, 15:05:01,-6.9344,-8.985049,2.455036,-6.740534,-0.5262989,1.4775445,11.61224422190313,6.920615918674648,walk
10/07/2020, 15:05:01,-6.9894347,-9.174082,2.347359,-6.740534,-0.5262989,1.4775445,11.769709793008499,6.920615918674648,walk
10/07/2020, 15:05:02,-6.6305118,-4.9052863,-1.6845472,0.24178001,0.31993112,0.28329778,8.41802941513985,0.4909899454210582,walk
10/07/2020, 15:05:02,-6.707082,-4.955536,-1.5577276,0.24178001,0.31993112,0.28329778,8.483442540860864,0.4909899454210582,walk
10/07/2020, 15:05:02,-6.707082,-4.955536,-1.5577276,0.33458444,0.3944189,0.29062447,8.483442540860864,0.5932753137331642,walk
10/07/2020, 15:05:02,-6.8458657,-4.7856455,-1.8424734,0.33458444,0.3944189,0.29062447,8.553536604042556,0.5932753137331642,walk
10/07/2020, 15:05:02,-6.8458657,-4.7856455,-1.8424734,0.35290113,0.41884112,0.27841336,8.553536604042556,0.6143948986123864,walk
10/07/2020, 15:05:02,-7.025327,-4.651647,-2.2875385,0.35290113,0.41884112,0.27841336,8.730743125533762,0.6143948986123864,walk
10/07/2020, 15:05:02,-7.025327,-4.651647,-2.2875385,0.41884112,0.36511225,0.32725778,8.730743125533762,0.6448507535361062,walk
10/07/2020, 15:05:02,-7.085148,-4.213761,-2.1655045,0.41884112,0.36511225,0.32725778,8.523174891833014,0.6448507535361062,walk
10/07/2020, 15:05:02,-7.085148,-4.213761,-2.1655045,0.5690378,0.35656446,0.38709223,8.523174891833014,0.7751016865725608,walk
10/07/2020, 15:05:02,-7.0085773,-4.0510488,-2.201397,0.5690378,0.35656446,0.38709223,8.389118007489182,0.7751016865725608,walk
10/07/2020, 15:05:02,-7.0085773,-4.0510488,-2.201397,0.6007867,0.32481557,0.37732336,8.389118007489182,0.7802709239794886,walk
10/07/2020, 15:05:02,-6.991828,-4.1347976,-2.347359,0.6007867,0.32481557,0.37732336,8.455312132753123,0.7802709239794886,walk
10/07/2020, 15:05:02,-6.991828,-4.1347976,-2.347359,0.57148004,0.2869611,0.3712178,8.455312132753123,0.7394178484729477,walk
10/07/2020, 15:05:02,-7.02772,-4.273581,-2.5818555,0.57148004,0.2869611,0.3712178,8.620807436036142,0.7394178484729477,walk
10/07/2020, 15:05:02,-7.02772,-4.273581,-2.5818555,0.6423045,0.24666445,0.38465002,8.620807436036142,0.7882601316016148,walk
10/07/2020, 15:05:02,-6.9320073,-4.421936,-2.8809586,0.6423045,0.24666445,0.38465002,8.712414469667348,0.7882601316016148,walk
10/07/2020, 15:05:02,-6.9320073,-4.421936,-2.8809586,0.75953114,0.24666445,0.34801668,8.712414469667348,0.8711179672535622,walk
10/07/2020, 15:05:02,-6.778867,-4.587041,-3.495914,0.75953114,0.24666445,0.34801668,8.900302998107854,0.8711179672535622,walk
10/07/2020, 15:05:02,-6.778867,-4.587041,-3.495914,0.8169234,0.2759711,0.2515489,8.900302998107854,0.898220856435412,walk
10/07/2020, 15:05:02,-6.8339014,-4.8622155,-4.2257247,0.8169234,0.2759711,0.2515489,9.391490690319378,0.898220856435412,walk
10/07/2020, 15:05:03,-11.13859,-10.679168,-2.5411777,2.6852233,4.5437546,-2.2688246,15.638746502889525,5.744884247353109,walk
10/07/2020, 15:05:03,-11.13859,-10.679168,-2.5411777,2.5081623,4.039436,-2.2492867,15.638746502889525,5.259962971273885,walk
10/07/2020, 15:05:03,-12.1866455,-12.576675,-2.440679,2.5081623,4.039436,-2.2492867,17.681742209616782,5.259962971273885,walk
10/07/2020, 15:05:03,-12.1866455,-12.576675,-2.440679,2.6424847,3.4471967,-2.4214635,17.681742209616782,4.972863951068742,walk
10/07/2020, 15:05:03,-13.153346,-14.534005,-0.4139583,2.6424847,3.4471967,-2.4214635,19.60661062604856,4.972863951068742,walk
10/07/2020, 15:05:03,-13.153346,-14.534005,-0.4139583,3.8379524,3.119939,-2.4458857,19.60661062604856,5.517812520119599,walk
10/07/2020, 15:05:03,-13.304094,-15.1657095,1.6821543,3.8379524,3.119939,-2.4458857,20.24419208355972,5.517812520119599,walk
10/07/2020, 15:05:03,-13.304094,-15.1657095,1.6821543,5.8527856,3.2371657,-2.4336746,20.24419208355972,7.117381032637173,walk
10/07/2020, 15:05:03,-12.078969,-14.091332,2.4861426,5.8527856,3.2371657,-2.4336746,18.725598712986965,7.117381032637173,walk
10/07/2020, 15:05:03,-12.078969,-14.091332,2.4861426,7.075118,3.0710945,-2.636379,18.725598712986965,8.15103744253636,walk
10/07/2020, 15:05:03,-11.222338,-11.239088,3.4576287,7.075118,3.0710945,-2.636379,16.25463505476723,8.15103744253636,walk
10/07/2020, 15:05:03,-11.222338,-11.239088,3.4576287,7.467095,2.6962135,-2.6717913,16.25463505476723,8.376487461979059,walk
10/07/2020, 15:05:03,-11.1936245,-7.932207,3.5174494,7.467095,2.6962135,-2.6717913,14.162965406238785,8.376487461979059,walk
10/07/2020, 15:05:03,-11.1936245,-7.932207,3.5174494,7.2875915,2.548459,-2.426348,14.162965406238785,8.092638461632946,walk
10/07/2020, 15:05:03,-11.083554,-4.955536,2.7445676,7.2875915,2.548459,-2.426348,12.447295394717571,8.092638461632946,walk
10/07/2020, 15:05:03,-11.083554,-4.955536,2.7445676,6.404728,1.6778067,-2.2700458,12.447295394717571,6.9991916041676125,walk
10/07/2020, 15:05:03,-13.069597,-3.0747771,2.5722845,6.404728,1.6778067,-2.2700458,13.670598884000588,6.9991916041676125,walk
10/07/2020, 15:05:03,-13.069597,-3.0747771,2.5722845,5.979781,0.5336256,-2.4300113,13.670598884000588,6.476688480982871,walk
10/07/2020, 15:05:03,-12.547962,-3.3523445,3.644269,5.979781,0.5336256,-2.4300113,13.489635476590543,6.476688480982871,walk
10/07/2020, 15:05:03,-12.547962,-3.3523445,3.644269,5.131109,1.4140468,-2.0881002,13.489635476590543,5.71733965099316,walk
10/07/2020, 15:05:04,6.364908,-5.1756754,-4.54397,-3.9930334,-0.081814446,0.5043189,9.378024138167701,4.0255865356033995,walk
10/07/2020, 15:05:04,6.364908,-5.1756754,-4.54397,-4.1700945,-0.1856089,0.6227667,9.378024138167701,4.220423799460747,walk
10/07/2020, 15:05:04,6.6041903,-5.864808,-4.5678983,-4.1700945,-0.1856089,0.6227667,9.943691399863782,4.220423799460747,walk
10/07/2020, 15:05:04,6.6041903,-5.864808,-4.5678983,-4.273889,-0.19171445,0.67161113,9.943691399863782,4.330582371805685,walk
10/07/2020, 15:05:04,6.8721867,-6.9678993,-3.9194436,-4.273889,-0.19171445,0.67161113,10.542324632645922,4.330582371805685,walk
10/07/2020, 15:05:04,6.8721867,-6.9678993,-3.9194436,-4.1908536,-0.14409111,0.6203245,10.542324632645922,4.238964329416105,walk
10/07/2020, 15:05:04,6.960721,-8.207381,-3.0939198,-4.1908536,-0.14409111,0.6203245,11.197548100534478,4.238964329416105,walk
10/07/2020, 15:05:04,6.960721,-8.207381,-3.0939198,-3.7817812,-0.17828223,0.50676113,11.197548100534478,3.8197461197619367,walk
10/07/2020, 15:05:04,6.613762,-9.260223,-2.3018954,-3.7817812,-0.17828223,0.50676113,11.610008873515065,3.8197461197619367,walk
10/07/2020, 15:05:04,6.613762,-9.260223,-2.3018954,-3.107728,-0.3162678,0.42128336,11.610008873515065,3.1520593802616994,walk
10/07/2020, 15:05:04,6.053841,-9.894321,-1.7635103,-3.107728,-0.3162678,0.42128336,11.732713146016097,3.1520593802616994,walk
10/07/2020, 15:05:04,6.053841,-9.894321,-1.7635103,-2.438559,-0.4933289,0.3724389,11.732713146016097,2.5156816986589066,walk
10/07/2020, 15:05:04,5.4628143,-9.923036,-1.3926228,-2.438559,-0.4933289,0.3724389,11.41264100488521,2.5156816986589066,walk
10/07/2020, 15:05:04,5.4628143,-9.923036,-1.3926228,-1.9354612,-0.6581789,0.3260367,11.41264100488521,2.0701471778114415,walk
10/07/2020, 15:05:04,4.9770713,-9.468399,-1.227518,-1.9354612,-0.6581789,0.3260367,10.76701534576533,2.0701471778114415,walk
10/07/2020, 15:05:04,4.9770713,-9.468399,-1.227518,-1.62652,-0.7998278,0.30772,10.76701534576533,1.8384731618613104,walk
10/07/2020, 15:05:04,4.56072,-9.032906,-1.3543376,-1.62652,-0.7998278,0.30772,10.209200755705444,1.8384731618613104,walk
10/07/2020, 15:05:04,4.56072,-9.032906,-1.3543376,-1.4873134,-0.9133912,0.3260367,10.209200755705444,1.7755800399957997,walk
10/07/2020, 15:05:04,4.2257247,-8.740981,-1.6342978,-1.4873134,-0.9133912,0.3260367,9.84542682143776,1.7755800399957997,walk
10/07/2020, 15:05:04,4.2257247,-8.740981,-1.6342978,-1.4848711,-1.0196278,0.3602278,9.84542682143776,1.8369124264518852,walk
10/07/2020, 15:05:05,2.6991038,-8.530413,5.343173,-0.65451556,-0.28085557,0.8535567,10.421257116202518,1.1116786858980936,walk
10/07/2020, 15:05:05,2.6991038,-8.530413,5.343173,-0.18927222,-0.17095557,0.5238567,10.421257116202518,0.5826453665093937,walk
10/07/2020, 15:05:05,3.8548372,-9.60479,5.4987063,-0.18927222,-0.17095557,0.5238567,11.719536122749764,0.5826453665093937,walk
10/07/2020, 15:05:05,3.8548372,-9.60479,5.4987063,0.3944189,0.023201112,0.08792,11.719536122749764,0.40476472595122404,walk
10/07/2020, 15:05:05,3.5844483,-10.061819,5.2307105,0.3944189,0.023201112,0.08792,11.893225189819605,0.40476472595122404,walk
10/07/2020, 15:05:05,3.5844483,-10.061819,5.2307105,0.8914111,0.17217667,-0.10867889,11.893225189819605,0.9143684725780122,walk
10/07/2020, 15:05:05,2.2229323,-9.667004,4.599005,0.8914111,0.17217667,-0.10867889,10.93358296399876,0.9143684725780122,walk
10/07/2020, 15:05:05,2.2229323,-9.667004,4.599005,1.0916734,0.12455334,-0.091583334,10.93358296399876,1.1025660056728437,walk
10/07/2020, 15:05:05,0.8781659,-9.042477,3.871587,1.0916734,0.12455334,-0.091583334,9.875563051359364,1.1025660056728437,walk
10/07/2020, 15:05:05,0.8781659,-9.042477,3.871587,0.81448114,0.0036633336,-0.035412222,9.875563051359364,0.8152588371648304,walk
10/07/2020, 15:05:05,0.069391854,-8.60459,3.1657043,0.81448114,0.0036633336,-0.035412222,9.168722640387129,0.8152588371648304,walk
10/07/2020, 15:05:05,0.069391854,-8.60459,3.1657043,0.18927222,-0.12943779,-0.013432222,9.168722640387129,0.22969227462665226,walk
10/07/2020, 15:05:05,-0.0741775,-8.743374,2.5722845,0.18927222,-0.12943779,-0.013432222,9.114205192500327,0.22969227462665226,walk
10/07/2020, 15:05:05,-0.0741775,-8.743374,2.5722845,-0.62154555,-0.25765446,-0.02075889,9.114205192500327,0.6731534937024215,walk
10/07/2020, 15:05:05,0.24885355,-9.250652,2.3306093,-0.62154555,-0.25765446,-0.02075889,9.542967888411026,0.6731534937024215,walk
10/07/2020, 15:05:05,0.24885355,-9.250652,2.3306093,-1.3078101,-0.3162678,-0.10867889,9.542967888411026,1.3498902140215303,walk
10/07/2020, 15:05:05,0.7298109,-9.49472,2.0745773,-1.3078101,-0.3162678,-0.10867889,9.74608699115351,1.3498902140215303,walk
10/07/2020, 15:05:05,0.7298109,-9.49472,2.0745773,-1.7803801,-0.34191114,-0.26986557,9.74608699115351,1.8328895382722756,walk
10/07/2020, 15:05:05,1.1557333,-9.49472,1.5768701,-1.7803801,-0.34191114,-0.26986557,9.69391331840217,1.8328895382722756,walk
10/07/2020, 15:05:05,1.1557333,-9.49472,1.5768701,-2.1467135,-0.36755446,-0.40663,9.69391331840217,2.2155863949268784,walk
10/07/2020, 15:05:06,3.2566316,-10.466207,-0.81834537,-3.9905913,1.0684723,-0.66428447,10.991670399093302,4.18422342405713,walk
10/07/2020, 15:05:06,3.2566316,-10.466207,-0.81834537,-3.69264,1.1441811,-0.6386411,10.991670399093302,3.91823986000654,walk
10/07/2020, 15:05:06,3.2925239,-10.114461,-1.5553347,-3.69264,1.1441811,-0.6386411,10.74998137554947,3.91823986000654,walk
10/07/2020, 15:05:06,3.2925239,-10.114461,-1.5553347,-3.1223812,1.1881411,-0.49577114,10.74998137554947,3.377385488391024,walk
10/07/2020, 15:05:06,3.6251264,-10.068997,-2.0697916,-3.1223812,1.1881411,-0.49577114,10.900013143267882,3.377385488391024,walk
10/07/2020, 15:05:06,3.6251264,-10.068997,-2.0697916,-2.6840024,1.3993934,-0.3724389,10.900013143267882,3.0497346799470813,walk
10/07/2020, 15:05:06,3.9577286,-9.439685,-2.1272194,-2.6840024,1.3993934,-0.3724389,10.454488452726514,3.0497346799470813,walk
10/07/2020, 15:05:06,3.9577286,-9.439685,-2.1272194,-2.4336746,1.6582689,-0.27230778,10.454488452726514,2.95749544375664,walk
10/07/2020, 15:05:06,4.0773697,-9.24826,-2.103291,-2.4336746,1.6582689,-0.27230778,10.323714513932185,2.95749544375664,walk
10/07/2020, 15:05:06,4.0773697,-9.24826,-2.103291,-2.3628502,1.8365512,-0.16851334,10.323714513932185,2.9973952082925788,walk
10/07/2020, 15:05:06,3.830909,-9.30808,-1.9310079,-2.3628502,1.8365512,-0.16851334,10.249146466923511,2.9973952082925788,walk
10/07/2020, 15:05:06,3.830909,-9.30808,-1.9310079,-2.438559,1.8621945,-0.07204556,10.249146466923511,3.0691251728183286,walk
10/07/2020, 15:05:06,3.4337006,-9.769895,-1.7826529,-2.438559,1.8621945,-0.07204556,10.508044120615324,3.0691251728183286,walk
10/07/2020, 15:05:06,3.4337006,-9.769895,-1.7826529,-2.4983935,1.7034501,-0.019537779,10.508044120615324,3.0239203315163596,walk
10/07/2020, 15:05:06,3.1944182,-10.310673,-1.8257236,-2.4983935,1.7034501,-0.019537779,10.947490451602977,3.0239203315163596,walk
10/07/2020, 15:05:06,3.1944182,-10.310673,-1.8257236,-2.51671,1.4897556,0.03174889,10.947490451602977,2.924757985023881,walk
10/07/2020, 15:05:06,3.4408789,-11.131411,-2.0267208,-2.51671,1.4897556,0.03174889,11.826053709973463,2.924757985023881,walk
10/07/2020, 15:05:06,3.4408789,-11.131411,-2.0267208,-2.4202423,1.3432223,0.02075889,11.826053709973463,2.7680769153996256,walk
10/07/2020, 15:05:06,4.1228333,-11.91865,-2.0338993,-2.4202423,1.3432223,0.02075889,12.774533668755199,2.7680769153996256,walk
10/07/2020, 15:05:06,4.1228333,-11.91865,-2.0338993,-2.0783312,1.3871822,-0.026864445,12.774533668755199,2.498891146826688,walk
10/07/2020, 15:05:07,4.7808595,-3.6993039,6.053841,-0.31504667,0.7424356,-1.5239468,8.555142231330779,1.7242037927838834,walk
10/07/2020, 15:05:07,4.7808595,-3.6993039,6.053841,-0.4566956,0.7216767,-1.5117356,8.555142231330779,1.7362985133185835,walk
10/07/2020, 15:05:07,4.7545385,-3.830909,6.640083,-0.4566956,0.7216767,-1.5117356,9.020654113397613,1.7362985133185835,walk
10/07/2020, 15:05:07,4.7545385,-3.830909,6.640083,-0.45791668,0.72778225,-1.5092934,9.020654113397613,1.7370438580162941,walk
10/07/2020, 15:05:07,4.8622155,-3.9888353,7.0133634,-0.45791668,0.72778225,-1.5092934,9.420149293888711,1.7370438580162941,walk
10/07/2020, 15:05:07,4.8622155,-3.9888353,7.0133634,-0.3260367,0.7863956,-1.4799867,9.420149293888711,1.7073601011895994,walk
10/07/2020, 15:05:07,5.1014977,-3.9242291,7.2622166,-0.3260367,0.7863956,-1.4799867,9.703846770108479,1.7073601011895994,walk
10/07/2020, 15:05:07,5.1014977,-3.9242291,7.2622166,-0.18927222,0.81448114,-1.4519012,9.703846770108479,1.6754762273196928,walk
10/07/2020, 15:05:07,5.369494,-3.574877,7.3268228,-0.18927222,0.81448114,-1.4519012,9.76184116129833,1.6754762273196928,walk
10/07/2020, 15:05:07,5.369494,-3.574877,7.3268228,-0.12943779,0.7680789,-1.4921979,9.76184116129833,1.6832569205102483,walk
10/07/2020, 15:05:07,5.5537415,-3.4360933,7.503892,-0.12943779,0.7680789,-1.4921979,9.947822668577867,1.6832569205102483,walk
10/07/2020, 15:05:07,5.5537415,-3.4360933,7.503892,-0.16729222,0.70580226,-1.56058,9.947822668577867,1.7209164721913475,walk
10/07/2020, 15:05:07,5.8193445,-3.5246277,7.702496,-0.16729222,0.70580226,-1.56058,10.276975060717673,1.7209164721913475,walk
10/07/2020, 15:05:07,5.8193445,-3.5246277,7.702496,-0.20514667,0.65085226,-1.5837811,10.276975060717673,1.7245452938825403,walk
10/07/2020, 15:05:07,6.099305,-3.5437703,7.9537425,-0.20514667,0.65085226,-1.5837811,10.631173557190884,1.7245452938825403,walk
10/07/2020, 15:05:07,6.099305,-3.5437703,7.9537425,-0.1856089,0.61788225,-1.5874445,10.631173557190884,1.7135370781436066,walk
10/07/2020, 15:05:07,6.309873,-3.4648073,8.169097,-0.1856089,0.61788225,-1.5874445,10.888229100567541,1.7135370781436066,walk
10/07/2020, 15:05:07,6.309873,-3.4648073,8.169097,-0.16973445,0.58124894,-1.5752333,10.888229100567541,1.6876078301291417,walk
10/07/2020, 15:05:07,6.3050876,-3.278167,8.159525,-0.16973445,0.58124894,-1.5752333,10.820275183277786,1.6876078301291417,walk
10/07/2020, 15:05:07,6.3050876,-3.278167,8.159525,-0.18683001,0.56293225,-1.5618012,10.820275183277786,1.6706349537286347,walk
10/07/2020, 15:05:08,3.900301,-8.922835,4.5918264,1.0477134,-2.1662512,2.73651,10.766346105362725,3.644013548597528,walk
10/07/2020, 15:05:08,4.019942,-9.040084,4.208975,1.0477134,-2.1662512,2.73651,10.751675123924032,3.644013548597528,walk
10/07/2020, 15:05:08,4.019942,-9.040084,4.208975,1.29682,-2.1894524,2.9184556,10.751675123924032,3.8720572278673053,walk
10/07/2020, 15:05:08,3.9984066,-8.891729,3.7663028,1.29682,-2.1894524,2.9184556,10.451561778515686,3.8720572278673053,walk
10/07/2020, 15:05:08,3.9984066,-8.891729,3.7663028,1.4628912,-2.2236435,3.107728,10.451561778515686,4.091774025189773,walk
10/07/2020, 15:05:08,3.739982,-8.520842,3.3403804,1.4628912,-2.2236435,3.107728,9.886877540507278,4.091774025189773,walk
10/07/2020, 15:05:08,3.739982,-8.520842,3.3403804,1.5276101,-2.3054578,3.2908945,9.886877540507278,4.298687588011098,walk
10/07/2020, 15:05:08,3.278167,-8.078169,2.955136,1.5276101,-2.3054578,3.2908945,9.205217018350606,4.298687588011098,walk
10/07/2020, 15:05:08,3.278167,-8.078169,2.955136,1.5178412,-2.4226844,3.4618502,9.205217018350606,4.489726984513351,walk
10/07/2020, 15:05:08,2.8163524,-7.783852,2.5627131,1.5178412,-2.4226844,3.4618502,8.665315507677288,4.489726984513351,walk
10/07/2020, 15:05:08,2.8163524,-7.783852,2.5627131,1.4555645,-2.60463,3.6010568,8.665315507677288,4.676577337351928,walk
10/07/2020, 15:05:08,2.4478576,-7.982456,2.3569303,1.4555645,-2.60463,3.6010568,8.675640279070137,4.676577337351928,walk
10/07/2020, 15:05:08,2.4478576,-7.982456,2.3569303,1.3859612,-2.790239,3.7085147,8.675640279070137,4.843490869044928,walk
10/07/2020, 15:05:08,2.3856442,-8.544769,2.2492533,1.3859612,-2.790239,3.7085147,9.152241293419257,4.843490869044928,walk
10/07/2020, 15:05:08,2.3856442,-8.544769,2.2492533,1.394509,-2.8915913,3.790329,9.152241293419257,4.967146999365279,walk
10/07/2020, 15:05:08,2.455036,-9.164511,2.2947168,1.394509,-2.8915913,3.790329,9.761208101947767,4.967146999365279,walk
10/07/2020, 15:05:08,2.455036,-9.164511,2.2947168,1.515399,-2.9294457,3.8855758,9.761208101947767,5.096644533940746,walk
10/07/2020, 15:05:08,2.565106,-9.812965,2.2205393,1.515399,-2.9294457,3.8855758,10.382911589891288,5.096644533940746,walk
10/07/2020, 15:05:08,2.565106,-9.812965,2.2205393,1.6863545,-2.933109,3.986928,10.382911589891288,5.229007075621625,walk
10/07/2020, 15:05:08,2.6895328,-10.322637,1.9645073,1.6863545,-2.933109,3.986928,10.846644735073893,5.229007075621625,walk
10/07/2020, 15:05:09,-8.539984,-1.2179468,3.1465619,-0.6618422,0.09646778,1.2504178,9.182350914356903,1.418057090390235,walk
10/07/2020, 15:05:09,-8.472985,-1.0049855,3.400201,-0.6618422,0.09646778,1.2504178,9.18492474130033,1.418057090390235,walk
10/07/2020, 15:05:09,-8.472985,-1.0049855,3.400201,-0.57148004,0.12577444,1.2015734,9.18492474130033,1.3364831498658007,walk
10/07/2020, 15:05:09,-8.518449,-0.7393822,3.6011982,-0.57148004,0.12577444,1.2015734,9.277892269358679,1.3364831498658007,walk
10/07/2020, 15:05:09,-8.518449,-0.7393822,3.6011982,-0.53484666,0.123332225,1.17593,9.277892269358679,1.2977223164254545,walk
10/07/2020, 15:05:09,-8.537591,-0.47856453,3.9433718,-0.53484666,0.123332225,1.17593,9.416457120330929,1.2977223164254545,walk
10/07/2020, 15:05:09,-8.537591,-0.47856453,3.9433718,-0.5507211,0.11234222,1.1441811,9.416457120330929,1.2747803648231537,walk
10/07/2020, 15:05:09,-8.46102,-0.25603202,4.1228333,-0.5507211,0.11234222,1.1441811,9.415528333912004,1.2747803648231537,walk
10/07/2020, 15:05:09,-8.46102,-0.25603202,4.1228333,-0.5739222,0.085477784,1.0953367,9.415528333912004,1.2395384607417061,walk
10/07/2020, 15:05:09,-8.312666,-0.050249275,4.2520456,-0.5739222,0.085477784,1.0953367,9.337174736509771,1.2395384607417061,walk
10/07/2020, 15:05:09,-8.312666,-0.050249275,4.2520456,-0.6007867,0.070824444,1.06603,9.337174736509771,1.2257164268892626,walk
10/07/2020, 15:05:09,-8.10449,0.09092726,4.342973,-0.6007867,0.070824444,1.06603,9.195240451643842,1.2257164268892626,walk
10/07/2020, 15:05:09,-8.10449,0.09092726,4.342973,-0.6032289,0.048844445,1.0489345,9.195240451643842,1.2110055402560962,walk
10/07/2020, 15:05:09,-7.9393854,0.19142582,4.362116,-0.6032289,0.048844445,1.0489345,9.060824431179963,1.2110055402560962,walk
10/07/2020, 15:05:09,-7.9393854,0.19142582,4.362116,-0.56049,0.035412222,1.0184067,9.060824431179963,1.16299414665859,walk
10/07/2020, 15:05:09,-7.8173513,0.19860429,4.5894337,-0.56049,0.035412222,1.0184067,9.067156503918039,1.16299414665859,walk
10/07/2020, 15:05:09,-7.8173513,0.19860429,4.5894337,-0.48356003,0.059834447,0.9732256,9.067156503918039,1.088383441366005,walk
10/07/2020, 15:05:09,-7.7479596,0.15792629,4.833502,-0.48356003,0.059834447,0.9732256,9.133376084112582,1.088383441366005,walk
10/07/2020, 15:05:09,-7.7479596,0.15792629,4.833502,-0.40174556,0.09524667,0.92316,9.133376084112582,1.0112842518200396,walk
10/07/2020, 15:05:09,-7.8628154,0.16510476,4.948357,-0.40174556,0.09524667,0.92316,9.291790103362887,1.0112842518200396,walk
10/07/2020, 15:05:10,5.3336015,-8.848659,-2.5842485,0.52141446,-0.029306669,0.23079,10.65008936883326,0.5709605456062798,walk
10/07/2020, 15:05:10,5.3336015,-8.848659,-2.5842485,-0.14287001,-0.28818223,0.057392225,10.65008936883326,0.3267333835205963,walk
10/07/2020, 15:05:10,5.5944195,-9.226724,-1.7778672,-0.14287001,-0.28818223,0.057392225,10.93575652550339,0.3267333835205963,walk
10/07/2020, 15:05:10,5.5944195,-9.226724,-1.7778672,-0.31993112,-0.59956557,-0.09646778,10.93575652550339,0.6863969849769905,walk
10/07/2020, 15:05:10,5.8672013,-9.784252,-2.0410776,-0.31993112,-0.59956557,-0.09646778,11.589721295817963,0.6863969849769905,walk
10/07/2020, 15:05:10,5.8672013,-9.784252,-2.0410776,-0.13188,-0.63009334,-0.17584,11.589721295817963,0.6673302436742745,walk
10/07/2020, 15:05:10,6.1160545,-9.769895,-2.428715,-0.13188,-0.63009334,-0.17584,11.779457545791344,0.6673302436742745,walk
10/07/2020, 15:05:10,6.1160545,-9.769895,-2.428715,0.30772,-0.50676113,-0.21735778,11.779457545791344,0.6314608894292031,walk
10/07/2020, 15:05:10,5.960521,-9.731609,-3.7256248,0.30772,-0.50676113,-0.21735778,12.004678829934523,0.6314608894292031,walk
10/07/2020, 15:05:10,5.960521,-9.731609,-3.7256248,0.8364611,-0.27475002,-0.24666445,12.004678829934523,0.9143293405933411,walk
10/07/2020, 15:05:10,5.6446686,-8.930014,-5.1469617,0.8364611,-0.27475002,-0.24666445,11.751537852691216,0.9143293405933411,walk
10/07/2020, 15:05:10,5.6446686,-8.930014,-5.1469617,1.1844778,0.085477784,-0.2869611,11.751537852691216,1.2217367975502096,walk
10/07/2020, 15:05:10,5.2833524,-6.920043,-6.1734824,1.1844778,0.085477784,-0.2869611,10.672988920211669,1.2217367975502096,walk
10/07/2020, 15:05:10,5.2833524,-6.920043,-6.1734824,0.98910004,0.46158,-0.18438779,10.672988920211669,1.106966055316014,walk
10/07/2020, 15:05:10,4.8263235,-5.194818,-6.5539412,0.98910004,0.46158,-0.18438779,9.65575884027764,1.106966055316014,walk
10/07/2020, 15:05:10,4.8263235,-5.194818,-6.5539412,0.42006224,0.5788067,0.091583334,9.65575884027764,0.7210110885800171,walk
10/07/2020, 15:05:10,4.304688,-4.2927237,-7.070791,0.42006224,0.5788067,0.091583334,9.324907347652381,0.7210110885800171,walk
10/07/2020, 15:05:10,4.304688,-4.2927237,-7.070791,-0.31016225,0.46035892,0.45791668,9.324907347652381,0.7195961611736102,walk
10/07/2020, 15:05:10,4.4745784,-4.321438,-4.8287163,-0.31016225,0.46035892,0.45791668,7.874844604556718,0.7195961611736102,walk
10/07/2020, 15:05:10,4.4745784,-4.321438,-4.8287163,-0.9133912,0.2735289,0.58247,7.874844604556718,1.1173060442570035,walk
10/07/2020, 15:05:11,0.6628119,-7.066005,-7.1688967,-0.36267,3.41789,4.2348137,10.087657261732154,5.4540947063679655,walk
10/07/2020, 15:05:11,0.11006984,-7.003792,-6.678368,-0.36267,3.41789,4.2348137,9.678110117247678,5.4540947063679655,walk
10/07/2020, 15:05:11,0.11006984,-7.003792,-6.678368,-0.106236674,3.5998356,4.3373866,9.678110117247678,5.637643604618372,walk
10/07/2020, 15:05:11,-0.38524446,-6.9726853,-6.15434,-0.106236674,3.5998356,4.3373866,9.308203497876613,5.637643604618372,walk
10/07/2020, 15:05:11,-0.38524446,-6.9726853,-6.15434,0.3052778,3.757359,4.4192014,9.308203497876613,5.808638582368171,walk
10/07/2020, 15:05:11,-0.89730847,-7.355537,-6.029913,0.3052778,3.757359,4.4192014,9.553477706996464,5.808638582368171,walk
10/07/2020, 15:05:11,-0.89730847,-7.355537,-6.029913,0.6764956,3.919767,4.4216437,9.553477706996464,5.947533286673561,walk
10/07/2020, 15:05:11,-1.2969099,-8.403593,-6.515656,0.6764956,3.919767,4.4216437,10.712428518977353,5.947533286673561,walk
10/07/2020, 15:05:11,-1.2969099,-8.403593,-6.515656,0.89019006,4.1554413,4.2861004,10.712428518977353,6.035792172555288,walk
10/07/2020, 15:05:11,-1.7682959,-9.415757,-6.8219376,0.89019006,4.1554413,4.2861004,11.761045263040732,6.035792172555288,walk
10/07/2020, 15:05:11,-1.7682959,-9.415757,-6.8219376,1.1771512,4.431412,4.0699635,11.761045263040732,6.130880992592479,walk
10/07/2020, 15:05:11,-2.495714,-9.911072,-6.5850477,1.1771512,4.431412,4.0699635,12.15815715440128,6.130880992592479,walk
10/07/2020, 15:05:11,-2.495714,-9.911072,-6.5850477,1.6570479,4.6194634,3.93442,12.15815715440128,6.290064525645847,walk
10/07/2020, 15:05:11,-3.426522,-10.150353,-6.235696,1.6570479,4.6194634,3.93442,12.395750502241356,6.290064525645847,walk
10/07/2020, 15:05:11,-3.426522,-10.150353,-6.235696,2.2224224,4.6927304,3.9014502,12.395750502241356,6.494782008634828,walk
10/07/2020, 15:05:11,-4.290331,-10.135997,-5.8480587,2.2224224,4.6927304,3.9014502,12.463753896370747,6.494782008634828,walk
10/07/2020, 15:05:11,-4.290331,-10.135997,-5.8480587,2.7780278,4.7098255,3.900229,12.463753896370747,6.716522967311424,walk
10/07/2020, 15:05:11,-4.9316072,-9.844072,-5.491528,2.7780278,4.7098255,3.900229,12.3037957743204,6.716522967311424,walk
10/07/2020, 15:05:11,-4.9316072,-9.844072,-5.491528,3.2664723,4.70372,3.845279,12.3037957743204,6.897897844854808,walk
10/07/2020, 15:05:11,-5.209175,-9.391829,-5.2139606,3.2664723,4.70372,3.845279,11.938481236234885,6.897897844854808,walk
10/07/2020, 15:05:12,-10.736595,-5.130212,0.701097,2.35186,-0.21613668,-1.691239,11.919944879843738,2.904866622549375,walk
10/07/2020, 15:05:12,-10.549955,-4.912465,0.64845496,2.35186,-0.21613668,-1.691239,11.655658086222566,2.904866622549375,walk
10/07/2020, 15:05:12,-10.549955,-4.912465,0.64845496,2.4458857,-0.20881,-1.8475412,11.655658086222566,3.0723552535376473,walk
10/07/2020, 15:05:12,-10.322637,-4.7449675,0.7369894,2.4458857,-0.20881,-1.8475412,11.384845014831587,3.0723552535376473,walk
10/07/2020, 15:05:12,-10.322637,-4.7449675,0.7369894,2.5325844,-0.20881,-1.9879689,11.384845014831587,3.2263920932211767,walk
10/07/2020, 15:05:12,-10.114461,-4.599005,0.91884387,2.5325844,-0.20881,-1.9879689,11.148876324296221,3.2263920932211767,walk
10/07/2020, 15:05:12,-10.114461,-4.599005,0.91884387,2.60463,-0.21491556,-2.108859,11.148876324296221,3.3582097379841165,walk
10/07/2020, 15:05:12,-9.932607,-4.546363,1.1174482,2.60463,-0.21491556,-2.108859,10.980654885340126,3.3582097379841165,walk
10/07/2020, 15:05:12,-9.932607,-4.546363,1.1174482,2.6644645,-0.23323223,-2.2126534,10.980654885340126,3.47125384649127,walk
10/07/2020, 15:05:12,-9.856036,-4.5966125,1.3399807,2.6644645,-0.23323223,-2.2126534,10.957456077268798,3.47125384649127,walk
10/07/2020, 15:05:12,-9.856036,-4.5966125,1.3399807,2.7291834,-0.25643334,-2.3054578,10.957456077268798,3.5818062606689782,walk
10/07/2020, 15:05:12,-9.949356,-4.723432,1.4811572,2.7291834,-0.25643334,-2.3054578,11.11279998268577,3.5818062606689782,walk
10/07/2020, 15:05:12,-9.949356,-4.723432,1.4811572,2.7987869,-0.31016225,-2.3970413,11.11279998268577,3.698001582524706,walk
10/07/2020, 15:05:12,-10.107283,-4.9196434,1.5481563,2.7987869,-0.31016225,-2.3970413,11.347107179770582,3.698001582524706,walk
10/07/2020, 15:05:12,-10.107283,-4.9196434,1.5481563,2.8610635,-0.3931978,-2.4849613,11.347107179770582,3.809897803373738,walk
10/07/2020, 15:05:12,-10.224531,-5.1182475,1.6271194,2.8610635,-0.3931978,-2.4849613,11.549242957822605,3.809897803373738,walk
10/07/2020, 15:05:12,-10.224531,-5.1182475,1.6271194,2.9123502,-0.47745445,-2.54968,11.549242957822605,3.9000787669057444,walk
10/07/2020, 15:05:12,-10.327422,-5.2546387,1.6534405,2.9123502,-0.47745445,-2.54968,11.704731567940094,3.9000787669057444,walk
10/07/2020, 15:05:12,-10.327422,-5.2546387,1.6534405,2.955089,-0.5421733,-2.6119568,11.704731567940094,3.9810578952619324,walk
10/07/2020, 15:05:12,-10.518848,-5.2809596,1.6749759,2.955089,-0.5421733,-2.6119568,11.888660588973261,3.9810578952619324,walk
10/07/2020, 15:05:13,-8.69791,-8.516056,4.395615,2.9318879,0.22590557,0.96589893,12.942112914282488,3.095151130989919,walk
10/07/2020, 15:05:13,-8.69791,-8.516056,4.395615,3.2933369,0.19049335,0.48478112,12.942112914282488,3.3342717605604903,walk
10/07/2020, 15:05:13,-9.312865,-7.513463,3.8955152,3.2933369,0.19049335,0.48478112,12.583982857515295,3.3342717605604903,walk
10/07/2020, 15:05:13,-9.312865,-7.513463,3.8955152,3.327528,0.08059334,0.013432222,12.583982857515295,3.328530952393113,walk
10/07/2020, 15:05:13,-9.930214,-6.8721867,3.586841,3.327528,0.08059334,0.013432222,12.597679440410943,3.328530952393113,walk
10/07/2020, 15:05:13,-9.930214,-6.8721867,3.586841,3.12116,-0.098910004,-0.34801668,12.597679440410943,3.1420596323242354,walk
10/07/2020, 15:05:13,-10.289138,-6.314659,3.2398818,3.12116,-0.098910004,-0.34801668,12.499524433364224,3.1420596323242354,walk
10/07/2020, 15:05:13,-10.289138,-6.314659,3.2398818,2.790239,-0.35534334,-0.63619894,12.499524433364224,2.8838259639344,walk
10/07/2020, 15:05:13,-10.356136,-5.76431,2.9790642,2.790239,-0.35534334,-0.63619894,12.220951338272751,2.8838259639344,walk
10/07/2020, 15:05:13,-10.356136,-5.76431,2.9790642,2.3897145,-0.6068922,-0.91217005,12.220951338272751,2.62889856680813,walk
10/07/2020, 15:05:13,-10.188639,-5.204389,2.806781,2.3897145,-0.6068922,-0.91217005,11.780154669393434,2.62889856680813,walk
10/07/2020, 15:05:13,-10.188639,-5.204389,2.806781,1.922029,-0.8425667,-1.2101212,11.780154669393434,2.4225002474650825,walk
10/07/2020, 15:05:13,-9.958928,-4.7210393,2.7086751,1.922029,-0.8425667,-1.2101212,11.349245884132866,2.4225002474650825,walk
10/07/2020, 15:05:13,-9.958928,-4.7210393,2.7086751,1.4384689,-1.0696933,-1.5129567,11.349245884132866,2.3457354449551397,walk
10/07/2020, 15:05:13,-9.8632145,-4.4004006,2.7445676,1.4384689,-1.0696933,-1.5129567,11.143571124252938,2.3457354449551397,walk
10/07/2020, 15:05:13,-9.8632145,-4.4004006,2.7445676,1.053819,-1.2259957,-1.8048023,11.143571124252938,2.422996297027595,walk
10/07/2020, 15:05:13,-9.963714,-4.194618,2.8785655,1.053819,-1.2259957,-1.8048023,11.187338883635366,2.422996297027595,walk
10/07/2020, 15:05:13,-9.963714,-4.194618,2.8785655,0.8816423,-1.2919356,-2.107638,11.187338883635366,2.6246005515541935,walk
10/07/2020, 15:05:13,-10.226924,-4.115655,3.0460632,0.8816423,-1.2919356,-2.107638,11.437092719822763,2.6246005515541935,walk
10/07/2020, 15:05:13,-10.226924,-4.115655,3.0460632,0.9378134,-1.2821667,-2.4092524,11.437092719822763,2.885817496610641,walk
10/07/2020, 15:05:14,-9.382257,-5.003392,5.163711,-0.2735289,0.53484666,1.834109,11.820516097120086,1.9299830699597813,walk
10/07/2020, 15:05:14,-9.382257,-5.003392,5.163711,-0.2955089,0.48111778,1.6997868,11.820516097120086,1.79110997234853,walk
10/07/2020, 15:05:14,-9.238688,-5.022535,5.312066,-0.2955089,0.48111778,1.6997868,11.78122518827938,1.79110997234853,walk
10/07/2020, 15:05:14,-9.238688,-5.022535,5.312066,-0.32359445,0.44326335,1.5447056,11.78122518827938,1.63930206160448,walk
10/07/2020, 15:05:14,-9.052048,-5.0344987,5.436493,-0.32359445,0.44326335,1.5447056,11.697914362854302,1.63930206160448,walk
10/07/2020, 15:05:14,-9.052048,-5.0344987,5.436493,-0.35778558,0.3944189,1.3774134,11.697914362854302,1.4767682420226218,walk
10/07/2020, 15:05:14,-8.95155,-5.070391,5.4891353,-0.35778558,0.3944189,1.3774134,11.660605115050856,1.4767682420226218,walk
10/07/2020, 15:05:14,-8.95155,-5.070391,5.4891353,-0.36755446,0.34313223,1.2040156,11.660605115050856,1.30479484945738,walk
10/07/2020, 15:05:14,-8.944371,-5.1613183,5.4867425,-0.36755446,0.34313223,1.2040156,11.693815734046145,1.30479484945738,walk
10/07/2020, 15:05:14,-8.944371,-5.1613183,5.4867425,-0.34557447,0.28818223,1.0391656,11.693815734046145,1.1324027056399757,walk
10/07/2020, 15:05:14,-9.035298,-5.3240304,5.4819565,-0.34557447,0.28818223,1.0391656,11.83358621849585,1.1324027056399757,walk
10/07/2020, 15:05:14,-9.035298,-5.3240304,5.4819565,-0.29306668,0.22102112,0.88408446,11.83358621849585,0.9572584555536444,walk
10/07/2020, 15:05:14,-9.159725,-5.503492,5.424529,-0.29306668,0.22102112,0.88408446,11.983926906107378,0.9572584555536444,walk
10/07/2020, 15:05:14,-9.159725,-5.503492,5.424529,-0.20636779,0.1526389,0.7228978,11.983926906107378,0.7671163974210292,walk
10/07/2020, 15:05:14,-9.236296,-5.6446686,5.4029937,-0.20636779,0.1526389,0.7228978,12.098090027888938,0.7671163974210292,walk
10/07/2020, 15:05:14,-9.236296,-5.6446686,5.4029937,-0.09402556,0.081814446,0.5568267,12.098090027888938,0.57060528838496,walk
10/07/2020, 15:05:14,-9.329616,-5.8672013,5.424529,-0.09402556,0.081814446,0.5568267,12.28378175608614,0.57060528838496,walk
10/07/2020, 15:05:14,-9.329616,-5.8672013,5.424529,0.058613338,0.015874445,0.38709223,12.28378175608614,0.39182638754901844,walk
10/07/2020, 15:05:14,-9.52822,-6.111269,5.4963136,0.058613338,0.015874445,0.38709223,12.583483276606582,0.39182638754901844,walk
10/07/2020, 15:05:14,-9.52822,-6.111269,5.4963136,0.24422224,-0.042738892,0.22102112,12.583483276606582,0.33214672718212745,walk
10/07/2020, 15:05:15,-10.090533,-5.477171,2.9120653,-0.98055226,-0.015874445,3.3421812,11.844762010097117,3.4830891371080948,walk
10/07/2020, 15:05:15,-10.191031,-5.4987063,2.7876384,-0.98055226,-0.015874445,3.3421812,11.910659996509068,3.4830891371080948,walk
10/07/2020, 15:05:15,-10.191031,-5.4987063,2.7876384,-0.9402556,-0.046402223,3.3543923,11.910659996509068,3.483989288506813,walk
10/07/2020, 15:05:15,-10.229317,-5.4843497,2.6321049,-0.9402556,-0.046402223,3.3543923,11.901470009353757,3.483989288506813,walk
10/07/2020, 15:05:15,-10.229317,-5.4843497,2.6321049,-0.9072856,-0.08425667,3.3666034,11.901470009353757,3.487733443837362,walk
10/07/2020, 15:05:15,-10.188639,-5.501099,2.5459633,-0.9072856,-0.08425667,3.3666034,11.855478850375446,3.487733443837362,walk
10/07/2020, 15:05:15,-10.188639,-5.501099,2.5459633,-0.88042116,-0.098910004,3.3531713,11.855478850375446,3.468239135878356,walk
10/07/2020, 15:05:15,-10.0881405,-5.5465627,2.548356,-0.88042116,-0.098910004,3.3531713,11.791058245929058,3.468239135878356,walk
10/07/2020, 15:05:15,-10.0881405,-5.5465627,2.548356,-0.83768225,-0.09768889,3.328749,11.791058245929058,3.433922564888225,walk
10/07/2020, 15:05:15,-9.954143,-5.5920267,2.6009982,-0.83768225,-0.09768889,3.328749,11.709863726359236,3.433922564888225,walk
10/07/2020, 15:05:15,-9.954143,-5.5920267,2.6009982,-0.7863956,-0.09402556,3.2762413,11.709863726359236,3.3706106171544765,walk
10/07/2020, 15:05:15,-9.80818,-5.6709895,2.8283165,-0.7863956,-0.09402556,3.2762413,11.67732366931325,3.3706106171544765,walk
10/07/2020, 15:05:15,-9.80818,-5.6709895,2.8283165,-0.7387723,-0.09768889,3.1895423,11.67732366931325,3.275440067106459,walk
10/07/2020, 15:05:15,-9.65504,-5.723632,3.1872396,-0.7387723,-0.09768889,3.1895423,11.667829768916347,3.275440067106459,walk
10/07/2020, 15:05:15,-9.65504,-5.723632,3.1872396,-0.71435004,-0.10135223,3.0735369,11.667829768916347,3.1570868169442554,walk
10/07/2020, 15:05:15,-9.499506,-5.704489,3.4719856,-0.71435004,-0.10135223,3.0735369,11.611911790348376,3.1570868169442554,walk
10/07/2020, 15:05:15,-9.499506,-5.704489,3.4719856,-0.7302245,-0.10379445,2.9453201,11.611911790348376,3.0362660881592936,walk
10/07/2020, 15:05:15,-9.288938,-5.6374903,3.6251264,-0.7302245,-0.10379445,2.9453201,11.454571090472356,3.0362660881592936,walk
10/07/2020, 15:05:15,-9.288938,-5.6374903,3.6251264,-0.78273225,-0.11844778,2.8207667,11.454571090472356,2.9297481724504864,walk
10/07/2020, 15:05:15,-8.968299,-5.5465627,3.6251264,-0.78273225,-0.11844778,2.8207667,11.150618098826286,2.9297481724504864,walk
10/07/2020, 15:05:16,-8.927621,-4.290331,3.1202407,-0.09768889,0.7668578,2.8976967,10.384857042210848,2.999043242174586,walk
10/07/2020, 15:05:16,-8.927621,-4.290331,3.1202407,0.08059334,0.7863956,2.8744957,10.384857042210848,2.981214371233117,walk
10/07/2020, 15:05:16,-9.037691,-4.220939,3.0939198,0.08059334,0.7863956,2.8744957,10.443587867486496,2.981214371233117,walk
10/07/2020, 15:05:16,-9.037691,-4.220939,3.0939198,0.2515489,0.8071545,2.8537369,10.443587867486496,2.976338246408087,walk
10/07/2020, 15:05:16,-9.312865,-4.101298,2.993421,0.2515489,0.8071545,2.8537369,10.607104842842327,2.976338246408087,walk
10/07/2020, 15:05:16,-9.312865,-4.101298,2.993421,0.39930335,0.8205867,2.832978,10.607104842842327,2.9763350064481244,walk
10/07/2020, 15:05:16,-9.753145,-3.9720855,2.8426733,0.39930335,0.8205867,2.832978,10.907891463044782,2.9763350064481244,walk
10/07/2020, 15:05:16,-9.753145,-3.9720855,2.8426733,0.49821335,0.83768225,2.8280935,10.907891463044782,2.9913276479587267,walk
10/07/2020, 15:05:16,-10.34178,-3.8165522,2.617748,0.49821335,0.83768225,2.8280935,11.330096321757582,2.9913276479587267,walk
10/07/2020, 15:05:16,-10.34178,-3.8165522,2.617748,0.5189722,0.8621045,2.8305357,11.330096321757582,3.004078620329827,walk
10/07/2020, 15:05:16,-10.987842,-3.6370904,2.2827528,0.5189722,0.8621045,2.8305357,11.797120419480375,3.004078620329827,walk
10/07/2020, 15:05:16,-10.987842,-3.6370904,2.2827528,0.44448447,0.8669889,2.8268723,11.797120419480375,2.990057435987356,walk
10/07/2020, 15:05:16,-11.609976,-3.4169507,1.9094725,0.44448447,0.8669889,2.8268723,12.252068218129887,2.990057435987356,walk
10/07/2020, 15:05:16,-11.609976,-3.4169507,1.9094725,0.26498112,0.82791334,2.8268723,12.252068218129887,2.957509556322573,walk
10/07/2020, 15:05:16,-12.107682,-3.1800613,1.5457634,0.26498112,0.82791334,2.8268723,12.61341125433992,2.957509556322573,walk
10/07/2020, 15:05:16,-12.107682,-3.1800613,1.5457634,-0.0012211112,0.7485411,2.8390834,12.61341125433992,2.936104568117165,walk
10/07/2020, 15:05:16,-12.392428,-2.9742785,1.2921243,-0.0012211112,0.7485411,2.8390834,12.80969160572439,2.936104568117165,walk
10/07/2020, 15:05:16,-12.392428,-2.9742785,1.2921243,-0.31016225,0.6569578,2.8537369,12.80969160572439,2.944759471062125,walk
10/07/2020, 15:05:16,-12.354143,-2.87378,1.2562319,-0.31016225,0.6569578,2.8537369,12.746041854048293,2.944759471062125,walk
10/07/2020, 15:05:16,-12.354143,-2.87378,1.2562319,-0.6191034,0.5739222,2.8708324,12.746041854048293,2.992382765210406,walk
10/07/2020, 15:05:17,-7.3579297,-3.2183464,3.330809,-0.3394689,0.57148004,1.5190623,8.694318386875795,1.6581250783403811,walk
10/07/2020, 15:05:17,-7.3579297,-3.2183464,3.330809,-0.21247335,0.6349778,1.6411734,8.694318386875795,1.7725100165643681,walk
10/07/2020, 15:05:17,-7.8436728,-3.3882368,3.2470603,-0.21247335,0.6349778,1.6411734,9.140391194061529,1.7725100165643681,walk
10/07/2020, 15:05:17,-7.8436728,-3.3882368,3.2470603,-0.09768889,0.6984756,1.7669479,9.140391194061529,1.9025025733416623,walk
10/07/2020, 15:05:17,-8.532805,-3.5437703,3.1393833,-0.09768889,0.6984756,1.7669479,9.758217273818165,1.9025025733416623,walk
10/07/2020, 15:05:17,-8.532805,-3.5437703,3.1393833,-0.01099,0.7436567,1.911039,9.758217273818165,2.0506623563047155,walk
10/07/2020, 15:05:17,-9.298509,-3.6323047,2.9766715,-0.01099,0.7436567,1.911039,10.41712403561553,2.0506623563047155,walk
10/07/2020, 15:05:17,-9.298509,-3.6323047,2.9766715,0.04151778,0.78029,2.0502455,10.41712403561553,2.1941018500464162,walk
10/07/2020, 15:05:17,-10.013963,-3.6586258,2.78046,0.04151778,0.78029,2.0502455,11.017983030752873,2.1941018500464162,walk
10/07/2020, 15:05:17,-10.013963,-3.6586258,2.78046,0.05250778,0.78395337,2.1918945,11.017983030752873,2.3284633532386088,walk
10/07/2020, 15:05:17,-10.602597,-3.5892339,2.5435705,0.05250778,0.78395337,2.1918945,11.478999039821952,2.3284633532386088,walk
10/07/2020, 15:05:17,-10.602597,-3.5892339,2.5435705,0.008547778,0.7570889,2.3249958,11.478999039821952,2.445171145859004,walk
10/07/2020, 15:05:17,-10.99502,-3.4863427,2.3042881,0.008547778,0.7570889,2.3249958,11.762431379464376,2.445171145859004,walk
10/07/2020, 15:05:17,-10.99502,-3.4863427,2.3042881,-0.06227667,0.7302245,2.4556546,11.762431379464376,2.562683321787804,walk
10/07/2020, 15:05:17,-11.16491,-3.3355947,2.199004,-0.06227667,0.7302245,2.4556546,11.858205276374548,2.562683321787804,walk
10/07/2020, 15:05:17,-11.16491,-3.3355947,2.199004,-0.14042778,0.7106867,2.578987,11.858205276374548,2.678799893259784,walk
10/07/2020, 15:05:17,-11.057234,-3.2063823,2.1272194,-0.14042778,0.7106867,2.578987,11.707620141139069,2.678799893259784,walk
10/07/2020, 15:05:17,-11.057234,-3.2063823,2.1272194,-0.22590557,0.6874856,2.6949923,11.707620141139069,2.7904575359517034,walk
10/07/2020, 15:05:17,-10.727024,-3.050849,2.132005,-0.22590557,0.6874856,2.6949923,11.354389907821705,2.7904575359517034,walk
10/07/2020, 15:05:17,-10.727024,-3.050849,2.132005,-0.3309211,0.68138003,2.7963445,11.354389907821705,2.8971244709962587,walk
10/07/2020, 15:05:18,-8.6548395,-3.4408789,1.3734802,-0.6691689,-0.26620224,-1.0965579,9.414475146769407,1.3119031086961959,walk
10/07/2020, 15:05:18,-8.6548395,-3.4408789,1.3734802,-0.59834445,-0.15019667,-0.9549089,9.414475146769407,1.1368492145922202,walk
10/07/2020, 15:05:18,-8.73141,-3.3092737,1.564906,-0.59834445,-0.15019667,-0.9549089,9.467721182864992,1.1368492145922202,walk
10/07/2020, 15:05:18,-8.73141,-3.3092737,1.564906,-0.5641534,-0.04029667,-0.7766267,9.467721182864992,0.9607506912934063,walk
10/07/2020, 15:05:18,-8.9013,-3.129812,1.6414764,-0.5641534,-0.04029667,-0.7766267,9.577229101747832,0.9607506912934063,walk
10/07/2020, 15:05:18,-8.9013,-3.129812,1.6414764,-0.5788067,0.045181114,-0.56293225,9.577229101747832,0.8086725223738398,walk
10/07/2020, 15:05:18,-9.186047,-2.9503503,1.6749759,-0.5788067,0.045181114,-0.56293225,9.792525880347046,0.8086725223738398,walk
10/07/2020, 15:05:18,-9.186047,-2.9503503,1.6749759,-0.6288723,0.123332225,-0.32237336,9.792525880347046,0.7173672419830582,walk
10/07/2020, 15:05:18,-9.513863,-2.861816,1.6797615,-0.6288723,0.123332225,-0.32237336,10.075969976503467,0.7173672419830582,walk
10/07/2020, 15:05:18,-9.513863,-2.861816,1.6797615,-0.69481224,0.20148334,-0.064718895,10.075969976503467,0.7263250771002381,walk
10/07/2020, 15:05:18,-9.836894,-2.8115666,1.6510476,-0.69481224,0.20148334,-0.064718895,10.363172733069835,0.7263250771002381,walk
10/07/2020, 15:05:18,-9.836894,-2.8115666,1.6510476,-0.74732006,0.26620224,0.21003112,10.363172733069835,0.8206485066388696,walk
10/07/2020, 15:05:18,-10.047462,-2.8713872,1.6247265,-0.74732006,0.26620224,0.21003112,10.575259002206627,0.8206485066388696,walk
10/07/2020, 15:05:18,-10.047462,-2.8713872,1.6247265,-0.79250115,0.31382558,0.4823389,10.575259002206627,0.9793852091580539,walk
10/07/2020, 15:05:18,-10.059426,-3.0077782,1.6271194,-0.79250115,0.31382558,0.4823389,10.624796692603839,0.9793852091580539,walk
10/07/2020, 15:05:18,-10.059426,-3.0077782,1.6271194,-0.8169234,0.34801668,0.73633003,10.624796692603839,1.1535429485825603,walk
10/07/2020, 15:05:18,-9.827323,-3.1728828,1.7300107,-0.8169234,0.34801668,0.73633003,10.470740135204576,1.1535429485825603,walk
10/07/2020, 15:05:18,-9.827323,-3.1728828,1.7300107,-0.81081784,0.36267,0.9536878,10.470740135204576,1.3032557282455894,walk
10/07/2020, 15:05:18,-9.303294,-3.3427732,2.0075781,-0.81081784,0.36267,0.9536878,10.087407261547554,1.3032557282455894,walk
10/07/2020, 15:05:18,-9.303294,-3.3427732,2.0075781,-0.7680789,0.37976557,1.13197,10.087407261547554,1.4196912727922524,walk
10/07/2020, 15:05:19,-11.971292,-4.7808595,1.6797615,0.23689556,-0.3370267,-3.7561378,12.999616811831055,3.778660877358252,walk
10/07/2020, 15:05:19,-12.05504,-4.965107,1.6295122,0.23689556,-0.3370267,-3.7561378,13.138934325667249,3.778660877358252,walk
10/07/2020, 15:05:19,-12.05504,-4.965107,1.6295122,0.32359445,-0.34435335,-3.6279213,13.138934325667249,3.658566094370986,walk
10/07/2020, 15:05:19,-12.000006,-4.9603214,1.5529419,0.32359445,-0.34435335,-3.6279213,13.077329795646138,3.658566094370986,walk
10/07/2020, 15:05:19,-12.000006,-4.9603214,1.5529419,0.4041878,-0.35778558,-3.5119157,13.077329795646138,3.553157760257072,walk
10/07/2020, 15:05:19,-11.770294,-4.8239303,1.4907285,0.4041878,-0.35778558,-3.5119157,12.807513417789002,3.553157760257072,walk
10/07/2020, 15:05:19,-11.770294,-4.8239303,1.4907285,0.44448447,-0.37488112,-3.3421812,12.807513417789002,3.3923852244686845,walk
10/07/2020, 15:05:19,-11.480763,-4.7712884,1.4333007,0.44448447,-0.37488112,-3.3421812,12.515089811871178,3.3923852244686845,walk
10/07/2020, 15:05:19,-11.480763,-4.7712884,1.4333007,0.44204223,-0.40174556,-3.1480246,12.515089811871178,3.204194040922252,walk
10/07/2020, 15:05:19,-11.042876,-4.7042894,1.3567305,0.44204223,-0.40174556,-3.1480246,12.07957666378541,3.204194040922252,walk
10/07/2020, 15:05:19,-11.042876,-4.7042894,1.3567305,0.4163989,-0.41395667,-2.997828,12.07957666378541,3.0547865618970604,walk
10/07/2020, 15:05:19,-10.590633,-4.486542,1.3256238,0.4163989,-0.41395667,-2.997828,11.577903744412092,3.0547865618970604,walk
10/07/2020, 15:05:19,-10.590633,-4.486542,1.3256238,0.35900667,-0.4151778,-2.8769379,11.577903744412092,2.928827389347989,walk
10/07/2020, 15:05:19,-10.2317095,-4.249653,1.2873386,0.35900667,-0.4151778,-2.8769379,11.153684102099458,2.928827389347989,walk
10/07/2020, 15:05:19,-10.2317095,-4.249653,1.2873386,0.2845189,-0.42128336,-2.7401733,11.153684102099458,2.786930319989469,walk
10/07/2020, 15:05:19,-9.954143,-4.125226,1.2179468,0.2845189,-0.42128336,-2.7401733,10.84370040003674,2.786930319989469,walk
10/07/2020, 15:05:19,-9.954143,-4.125226,1.2179468,0.21369445,-0.43105224,-2.5777657,10.84370040003674,2.622279041523741,walk
10/07/2020, 15:05:19,-9.626326,-3.9720855,1.1916257,0.21369445,-0.43105224,-2.5777657,10.481582875156281,2.622279041523741,walk
10/07/2020, 15:05:19,-9.626326,-3.9720855,1.1916257,0.15996556,-0.43349445,-2.4410012,10.481582875156281,2.4843496458149934,walk
10/07/2020, 15:05:19,-9.190832,-3.7280176,1.2107682,0.15996556,-0.43349445,-2.4410012,9.991770117005842,2.4843496458149934,walk
10/07/2020, 15:05:20,-11.954542,-4.220939,1.5170496,0.20148334,-1.00009,-3.6560068,12.768274941571184,3.7956766678833556,walk
10/07/2020, 15:05:20,-11.954542,-4.2759743,1.3567305,0.20148334,-1.00009,-3.6560068,12.768545406167236,3.7956766678833556,walk
10/07/2020, 15:05:20,-11.954542,-4.2759743,1.3567305,0.21003112,-0.9952056,-3.5912879,12.768545406167236,3.732545465518167,walk
10/07/2020, 15:05:20,-11.91865,-4.3334017,1.253839,0.21003112,-0.9952056,-3.5912879,12.743809965501777,3.732545465518167,walk
10/07/2020, 15:05:20,-11.91865,-4.3334017,1.253839,0.23445335,-0.9634567,-3.5168002,12.743809965501777,3.65391578575096,walk
10/07/2020, 15:05:20,-11.820544,-4.3908296,1.1150553,0.23445335,-0.9634567,-3.5168002,12.658909859166382,3.65391578575096,walk
10/07/2020, 15:05:20,-11.820544,-4.3908296,1.1150553,0.25521225,-0.9329289,-3.4655135,12.658909859166382,3.597954037507696,walk
10/07/2020, 15:05:20,-11.7463665,-4.3788652,1.0193424,0.25521225,-0.9329289,-3.4655135,12.57738628469004,3.597954037507696,walk
10/07/2020, 15:05:20,-11.7463665,-4.3788652,1.0193424,0.26498112,-0.9194967,-3.394689,12.57738628469004,3.526982162462681,walk
10/07/2020, 15:05:20,-11.660225,-4.369294,0.93559366,0.26498112,-0.9194967,-3.394689,12.487069795481052,3.526982162462681,walk
10/07/2020, 15:05:20,-11.660225,-4.369294,0.93559366,0.26376,-0.90240115,-3.2640302,12.487069795481052,3.3967323175199935,walk
10/07/2020, 15:05:20,-11.566905,-4.402794,0.8327023,0.26376,-0.90240115,-3.2640302,12.404486238990694,3.3967323175199935,walk
10/07/2020, 15:05:20,-11.566905,-4.402794,0.8327023,0.25277,-0.8853056,-3.1443613,12.404486238990694,3.2763800711153315,walk
10/07/2020, 15:05:20,-11.373086,-4.3405805,0.66759753,0.25277,-0.8853056,-3.1443613,12.191530249886005,3.2763800711153315,walk
10/07/2020, 15:05:20,-11.373086,-4.3405805,0.66759753,0.24544334,-0.8767578,-3.0601046,12.191530249886005,3.1926770728072444,walk
10/07/2020, 15:05:20,-11.145768,-4.2448673,0.5838487,0.24544334,-0.8767578,-3.0601046,11.94101863026149,3.1926770728072444,walk
10/07/2020, 15:05:20,-11.145768,-4.2448673,0.5838487,0.23689556,-0.8547778,-2.9673002,11.94101863026149,3.097036479381818,walk
10/07/2020, 15:05:20,-10.810773,-4.1443686,0.5479564,0.23689556,-0.8547778,-2.9673002,11.59089549274794,3.097036479381818,walk
10/07/2020, 15:05:20,-10.810773,-4.1443686,0.5479564,0.19782001,-0.82791334,-2.867169,11.59089549274794,2.990857867041945,walk
10/07/2020, 15:05:20,-10.518848,-4.0103707,0.5024927,0.19782001,-0.82791334,-2.867169,11.268617679569871,2.990857867041945,walk
10/07/2020, 15:05:21,-10.973485,-5.0799623,3.1082766,0.74121445,-0.9268234,-3.1016223,12.485382366825535,3.32091276599512,walk
10/07/2020, 15:05:21,-10.822737,-4.974678,2.9862428,0.74121445,-0.9268234,-3.1016223,12.27993070140069,3.32091276599512,walk
10/07/2020, 15:05:21,-10.822737,-4.974678,2.9862428,0.6777167,-0.9646778,-3.2164068,12.27993070140069,3.425664316946127,walk
10/07/2020, 15:05:21,-10.652846,-4.8263235,2.8929226,0.6777167,-0.9646778,-3.2164068,12.047636078582055,3.425664316946127,walk
10/07/2020, 15:05:21,-10.652846,-4.8263235,2.8929226,0.6288723,-0.9927634,-3.3189802,12.047636078582055,3.5208932372262516,walk
10/07/2020, 15:05:21,-10.425529,-4.6731825,2.8187451,0.6288723,-0.9927634,-3.3189802,11.76756575326354,3.5208932372262516,walk
10/07/2020, 15:05:21,-10.425529,-4.6731825,2.8187451,0.6032289,-0.99032116,-3.4093423,11.76756575326354,3.6011437044368346,walk
10/07/2020, 15:05:21,-10.241281,-4.520042,2.6919255,0.6032289,-0.99032116,-3.4093423,11.513516822397587,3.6011437044368346,walk
10/07/2020, 15:05:21,-10.241281,-4.520042,2.6919255,0.6020078,-0.97566783,-3.4850512,11.513516822397587,3.6687767273706253,walk
10/07/2020, 15:05:21,-10.095319,-4.35733,2.5746772,0.6020078,-0.97566783,-3.4850512,11.292951242813686,3.6687767273706253,walk
10/07/2020, 15:05:21,-10.095319,-4.35733,2.5746772,0.6117767,-0.9646778,-3.5522125,11.292951242813686,3.731365366804978,walk
10/07/2020, 15:05:21,-9.963714,-4.199404,2.4837499,0.6117767,-0.9646778,-3.5522125,11.094124344923511,3.731365366804978,walk
10/07/2020, 15:05:21,-9.963714,-4.199404,2.4837499,0.6203245,-0.93903446,-3.613268,11.094124344923511,3.7844805592679327,walk
10/07/2020, 15:05:21,-9.870394,-4.063013,2.3042881,0.6203245,-0.93903446,-3.613268,10.919821059681123,3.7844805592679327,walk
10/07/2020, 15:05:21,-9.870394,-4.063013,2.3042881,0.6203245,-0.9170545,-3.6401324,10.919821059681123,3.8047806076747235,walk
10/07/2020, 15:05:21,-9.844072,-3.9625144,2.160719,0.6203245,-0.9170545,-3.6401324,10.82940381040908,3.8047806076747235,walk
10/07/2020, 15:05:21,-9.844072,-3.9625144,2.160719,0.6227667,-0.8914111,-3.6560068,10.82940381040908,3.8142938981830503,walk
10/07/2020, 15:05:21,-9.896714,-3.9553359,1.9788643,0.6227667,-0.8914111,-3.6560068,10.839997133771794,3.8142938981830503,walk
10/07/2020, 15:05:21,-9.896714,-3.9553359,1.9788643,0.61299783,-0.86088336,-3.6547856,10.839997133771794,3.804516331211889,walk
10/07/2020, 15:05:21,-10.001999,-3.9481573,1.8185452,0.61299783,-0.86088336,-3.6547856,10.90573403750428,3.804516331211889,walk
10/07/2020, 15:05:22,-8.283952,-3.603591,2.2779672,-0.22102112,-0.8120389,-1.559359,9.316590536604545,1.7719644056824593,walk
10/07/2020, 15:05:22,-8.578269,-3.6275191,2.4047868,-0.22102112,-0.8120389,-1.559359,9.619178438790357,1.7719644056824593,walk
10/07/2020, 15:05:22,-8.578269,-3.6275191,2.4047868,-0.117226675,-0.7631945,-1.8218979,9.619178438790357,1.9787672345244496,walk
10/07/2020, 15:05:22,-9.040084,-3.7040894,2.5292134,-0.117226675,-0.7631945,-1.8218979,10.091596282291587,1.9787672345244496,walk
10/07/2020, 15:05:22,-9.040084,-3.7040894,2.5292134,0.0,-0.7326667,-2.0636778,10.091596282291587,2.189878184506729,walk
10/07/2020, 15:05:22,-9.552148,-3.8668015,2.656033,0.0,-0.7326667,-2.0636778,10.641907450645384,2.189878184506729,walk
10/07/2020, 15:05:22,-9.552148,-3.8668015,2.656033,0.085477784,-0.72900337,-2.2908046,10.641907450645384,2.405522436538568,walk
10/07/2020, 15:05:22,-10.030712,-4.065406,2.7206392,0.085477784,-0.72900337,-2.2908046,11.159954672474141,2.405522436538568,walk
10/07/2020, 15:05:22,-10.030712,-4.065406,2.7206392,0.12943779,-0.7448778,-2.4849613,11.159954672474141,2.59742750057479,walk
10/07/2020, 15:05:22,-10.451849,-4.3357944,2.7302105,0.12943779,-0.7448778,-2.4849613,11.640202330263733,2.59742750057479,walk
10/07/2020, 15:05:22,-10.451849,-4.3357944,2.7302105,0.13920668,-0.7888378,-2.658359,11.640202330263733,2.7764215100595933,walk
10/07/2020, 15:05:22,-10.722239,-4.6372905,2.7230322,0.13920668,-0.7888378,-2.658359,11.995239341358682,2.7764215100595933,walk
10/07/2020, 15:05:22,-10.722239,-4.6372905,2.7230322,0.11600556,-0.83768225,-2.8146613,11.995239341358682,2.9389601683428817,walk
10/07/2020, 15:05:22,-10.786844,-4.898108,2.7206392,0.11600556,-0.83768225,-2.8146613,12.155218994214113,2.9389601683428817,walk
10/07/2020, 15:05:22,-10.786844,-4.898108,2.7206392,0.085477784,-0.88042116,-2.9746268,12.155218994214113,3.103361459956291,walk
10/07/2020, 15:05:22,-10.710274,-5.0799623,2.754139,0.085477784,-0.88042116,-2.9746268,12.16968617005233,3.103361459956291,walk
10/07/2020, 15:05:22,-10.710274,-5.0799623,2.754139,0.07448778,-0.9133912,-3.1284869,12.16968617005233,3.2599481546559472,walk
10/07/2020, 15:05:22,-10.573883,-5.2498527,2.7900312,0.07448778,-0.9133912,-3.1284869,12.130631883228,3.2599481546559472,walk
10/07/2020, 15:05:22,-10.573883,-5.2498527,2.7900312,0.09036223,-0.92316,-3.2921157,12.130631883228,3.4202946442919098,walk
10/07/2020, 15:05:22,-10.459028,-5.355137,2.845066,0.09036223,-0.92316,-3.2921157,12.089795848804604,3.4202946442919098,walk
10/07/2020, 15:05:23,-8.997013,-4.3645086,4.386044,0.21613668,0.58613336,1.9244711,10.919366389244125,2.02332808735672,walk
10/07/2020, 15:05:23,-8.865408,-4.2448673,4.3094735,0.21613668,0.58613336,1.9244711,10.732470292842267,2.02332808735672,walk
10/07/2020, 15:05:23,-8.865408,-4.2448673,4.3094735,0.20026223,0.5482789,1.8060234,10.732470292842267,1.898008197879522,walk
10/07/2020, 15:05:23,-8.762517,-4.1276193,4.1228333,0.20026223,0.5482789,1.8060234,10.5269510579701,1.898008197879522,walk
10/07/2020, 15:05:23,-8.762517,-4.1276193,4.1228333,0.14042778,0.47867557,1.6985656,10.5269510579701,1.7703037515653712,walk
10/07/2020, 15:05:23,-8.628518,-4.1515474,3.9744785,0.14042778,0.47867557,1.6985656,10.367408064396756,1.7703037515653712,walk
10/07/2020, 15:05:23,-8.628518,-4.1515474,3.9744785,0.06716111,0.3944189,1.5788968,10.367408064396756,1.628800743411276,walk
10/07/2020, 15:05:23,-8.480164,-4.3094735,3.9314077,0.06716111,0.3944189,1.5788968,10.292750003936948,1.628800743411276,walk
10/07/2020, 15:05:23,-8.480164,-4.3094735,3.9314077,0.03052778,0.31504667,1.4470167,10.292750003936948,1.481230476592319,walk
10/07/2020, 15:05:23,-8.279166,-4.56072,3.9960139,0.03052778,0.31504667,1.4470167,10.262206725111733,1.481230476592319,walk
10/07/2020, 15:05:23,-8.279166,-4.56072,3.9960139,0.06594,0.2515489,1.3078101,10.262206725111733,1.3334137017884684,walk
10/07/2020, 15:05:23,-8.075776,-4.9196434,4.101298,0.06594,0.2515489,1.3078101,10.30736120072631,1.3334137017884684,walk
10/07/2020, 15:05:23,-8.075776,-4.9196434,4.101298,0.17217667,0.20270446,1.1527289,10.30736120072631,1.1830121964361096,walk
10/07/2020, 15:05:23,-8.008778,-5.3383875,4.278367,0.17217667,0.20270446,1.1527289,10.532963708184772,1.1830121964361096,walk
10/07/2020, 15:05:23,-8.008778,-5.3383875,4.278367,0.34557447,0.1746189,0.9732256,10.532963708184772,1.0474165977971273,walk
10/07/2020, 15:05:23,-8.2145605,-5.800202,4.4147577,0.34557447,0.1746189,0.9732256,10.982323622596196,1.0474165977971273,walk
10/07/2020, 15:05:23,-8.2145605,-5.800202,4.4147577,0.5775856,0.14897557,0.7766267,10.982323622596196,0.979258831877836,walk
10/07/2020, 15:05:23,-8.752945,-6.3290157,4.5391846,0.5775856,0.14897557,0.7766267,11.716427865593168,0.979258831877836,walk
10/07/2020, 15:05:23,-8.752945,-6.3290157,4.5391846,0.8327978,0.08792,0.59468114,11.716427865593168,1.027096785845295,walk
10/07/2020, 15:05:23,-9.406186,-6.7022963,4.5152564,0.8327978,0.08792,0.59468114,12.400994014124157,1.027096785845295,walk
10/07/2020, 15:05:24,-10.375279,-4.462614,3.062813,-0.83524,0.54950005,3.52779,11.702229324496304,3.6667259164444754,walk
10/07/2020, 15:05:24,-10.375279,-4.462614,3.062813,-0.75098336,0.58124894,3.5241268,11.702229324496304,3.649835038737083,walk
10/07/2020, 15:05:24,-10.561919,-4.5415773,3.0819557,-0.75098336,0.58124894,3.5241268,11.902878346670223,3.649835038737083,walk
10/07/2020, 15:05:24,-10.561919,-4.5415773,3.0819557,-0.6691689,0.61299783,3.5058103,11.902878346670223,3.621361474186665,walk
10/07/2020, 15:05:24,-10.782059,-4.5559344,3.0723844,-0.6691689,0.61299783,3.5058103,12.10160627000398,3.621361474186665,walk
10/07/2020, 15:05:24,-10.782059,-4.5559344,3.0723844,-0.6007867,0.6288723,3.4838302,12.10160627000398,3.5907517231821133,walk
10/07/2020, 15:05:24,-11.009377,-4.5415773,3.1250265,-0.6007867,0.6288723,3.4838302,12.3125174769357,3.5907517231821133,walk
10/07/2020, 15:05:24,-11.009377,-4.5415773,3.1250265,-0.5568267,0.63131446,3.4581869,12.3125174769357,3.559167082468909,walk
10/07/2020, 15:05:24,-11.148161,-4.5296135,3.141776,-0.5568267,0.63131446,3.4581869,12.436625249678583,3.559167082468909,walk
10/07/2020, 15:05:24,-11.148161,-4.5296135,3.141776,-0.5262989,0.62643003,3.4288802,12.436625249678583,3.5251417881686806,walk
10/07/2020, 15:05:24,-11.229517,-4.54397,3.1513474,-0.5262989,0.62643003,3.4288802,12.517216401523065,3.5251417881686806,walk
10/07/2020, 15:05:24,-11.229517,-4.54397,3.1513474,-0.49821335,0.62154555,3.394689,12.517216401523065,3.486896813574244,walk
10/07/2020, 15:05:24,-11.196017,-4.601398,3.199204,-0.49821335,0.62154555,3.394689,12.520326357877158,3.486896813574244,walk
10/07/2020, 15:05:24,-11.196017,-4.601398,3.199204,-0.4591378,0.6288723,3.339739,12.520326357877158,3.429306782207309,walk
10/07/2020, 15:05:24,-11.124232,-4.6731825,3.2470603,-0.4591378,0.6288723,3.339739,12.495222256384979,3.429306782207309,walk
10/07/2020, 15:05:24,-11.124232,-4.6731825,3.2470603,-0.4151778,0.6337567,3.2774622,12.495222256384979,3.3638934155993976,walk
10/07/2020, 15:05:24,-11.030912,-4.6875396,3.3236306,-0.4151778,0.6337567,3.2774622,12.437868620718275,3.3638934155993976,walk
10/07/2020, 15:05:24,-11.030912,-4.6875396,3.3236306,-0.36755446,0.6447467,3.19809,12.437868620718275,3.2830739786301733,walk
10/07/2020, 15:05:24,-11.01177,-4.7306104,3.4743786,-0.36755446,0.6447467,3.19809,12.478343842039983,3.2830739786301733,walk
10/07/2020, 15:05:24,-11.01177,-4.7306104,3.4743786,-0.33214223,0.6740534,3.0955167,12.478343842039983,3.18541832996905,walk
10/07/2020, 15:05:25,-7.771888,-3.1561332,1.5696917,-0.07204556,0.10013112,-0.85722005,8.533894080194203,0.866050242932984,walk
10/07/2020, 15:05:25,-7.795816,-3.1082766,1.6103697,-0.07204556,0.10013112,-0.85722005,8.545725259675985,0.866050242932984,walk
10/07/2020, 15:05:25,-7.795816,-3.1082766,1.6103697,-0.06105556,0.15752333,-0.6325356,8.545725259675985,0.6547080556036083,walk
10/07/2020, 15:05:25,-7.999206,-3.1345978,1.6510476,-0.06105556,0.15752333,-0.6325356,8.748654699788363,0.6547080556036083,walk
10/07/2020, 15:05:25,-7.999206,-3.1345978,1.6510476,-0.05372889,0.21491556,-0.3602278,8.748654699788363,0.4228942588078817,walk
10/07/2020, 15:05:25,-8.425129,-3.266203,1.7156538,-0.05372889,0.21491556,-0.3602278,9.197518526324204,0.4228942588078817,walk
10/07/2020, 15:05:25,-8.425129,-3.266203,1.7156538,-0.036633335,0.2759711,-0.05250778,9.197518526324204,0.2833004136293192,walk
10/07/2020, 15:05:25,-9.016156,-3.493521,1.7826529,-0.036633335,0.2759711,-0.05250778,9.832274028224141,0.2833004136293192,walk
10/07/2020, 15:05:25,-9.016156,-3.493521,1.7826529,-0.009768889,0.32970002,0.27719223,9.832274028224141,0.43085156546331616,walk
10/07/2020, 15:05:25,-9.698111,-3.7016966,1.8400806,-0.009768889,0.32970002,0.27719223,10.542381300577096,0.43085156546331616,walk
10/07/2020, 15:05:25,-9.698111,-3.7016966,1.8400806,0.012211111,0.35534334,0.6056711,10.542381300577096,0.7023215023108683,walk
10/07/2020, 15:05:25,-10.2317095,-3.8668015,1.847259,0.012211111,0.35534334,0.6056711,11.092898571152558,0.7023215023108683,walk
10/07/2020, 15:05:25,-10.2317095,-3.8668015,1.847259,-0.015874445,0.34313223,0.9048434,11.092898571152558,0.9678498251698122,walk
10/07/2020, 15:05:25,-10.348958,-3.8787656,1.8257236,-0.015874445,0.34313223,0.9048434,11.201741886540166,0.9678498251698122,walk
10/07/2020, 15:05:25,-10.348958,-3.8787656,1.8257236,-0.123332225,0.30649891,1.1502867,11.201741886540166,1.1967923195240378,walk
10/07/2020, 15:05:25,-9.987641,-3.694518,1.7754744,-0.123332225,0.30649891,1.1502867,10.796052648440828,1.1967923195240378,walk
10/07/2020, 15:05:25,-9.987641,-3.694518,1.7754744,-0.30772,0.24300112,1.3420012,10.796052648440828,1.3981088531815782,walk
10/07/2020, 15:05:25,-9.195618,-3.3690944,1.8233309,-0.30772,0.24300112,1.3420012,9.961662352252842,1.3981088531815782,walk
10/07/2020, 15:05:25,-9.195618,-3.3690944,1.8233309,-0.5262989,0.17828223,1.4763234,9.961662352252842,1.5774364478815717,walk
10/07/2020, 15:05:25,-8.216953,-3.1082766,2.0147567,-0.5262989,0.17828223,1.4763234,9.013265174216887,1.5774364478815717,walk
10/07/2020, 15:05:26,-8.551949,-2.9862428,2.5435705,-0.12455334,0.45425335,1.2321012,9.408677953226839,1.3190652023432154,walk
10/07/2020, 15:05:26,-9.032906,-3.1369905,2.2037897,-0.12455334,0.45425335,1.2321012,9.812786656987083,1.3190652023432154,walk
10/07/2020, 15:05:26,-9.032906,-3.1369905,2.2037897,-0.109900005,0.42861003,1.4140468,9.812786656987083,1.4816588062287503,walk
10/07/2020, 15:05:26,-9.439685,-3.3020952,1.8281165,-0.109900005,0.42861003,1.4140468,10.16629199942446,1.4816588062287503,walk
10/07/2020, 15:05:26,-9.439685,-3.3020952,1.8281165,-0.13432223,0.39197668,1.5923289,10.16629199942446,1.6453569602192957,walk
10/07/2020, 15:05:26,-9.705289,-3.4480574,1.4668003,-0.13432223,0.39197668,1.5923289,10.40352034259515,1.6453569602192957,walk
10/07/2020, 15:05:26,-9.705289,-3.4480574,1.4668003,-0.20270446,0.34557447,1.7718323,10.40352034259515,1.8165628743985243,walk
10/07/2020, 15:05:26,-9.772287,-3.495914,1.2059826,-0.20270446,0.34557447,1.7718323,10.448607990512107,1.8165628743985243,walk
10/07/2020, 15:05:26,-9.772287,-3.495914,1.2059826,-0.31016225,0.29062447,1.9427879,10.448607990512107,1.9887402972630435,walk
10/07/2020, 15:05:26,-9.659825,-3.481557,1.0624132,-0.31016225,0.29062447,1.9427879,10.322896180117818,1.9887402972630435,walk
10/07/2020, 15:05:26,-9.659825,-3.481557,1.0624132,-0.46646446,0.23689556,2.09909,10.322896180117818,2.163304843149965,walk
10/07/2020, 15:05:26,-9.401401,-3.4049866,1.0480564,-0.46646446,0.23689556,2.09909,10.053789764490062,2.163304843149965,walk
10/07/2020, 15:05:26,-9.401401,-3.4049866,1.0480564,-0.61788225,0.18316667,2.2382967,10.053789764490062,2.3292275186797253,walk
10/07/2020, 15:05:26,-9.135797,-3.359523,1.1509477,-0.61788225,0.18316667,2.2382967,9.801727108472386,2.3292275186797253,walk
10/07/2020, 15:05:26,-9.135797,-3.359523,1.1509477,-0.77296335,0.14409111,2.3579657,9.801727108472386,2.485605934395694,walk
10/07/2020, 15:05:26,-8.906086,-3.318845,1.3567305,-0.77296335,0.14409111,2.3579657,9.600719617362357,2.485605934395694,walk
10/07/2020, 15:05:26,-8.906086,-3.318845,1.3567305,-0.91461223,0.117226675,2.4703078,9.600719617362357,2.6367932022451095,walk
10/07/2020, 15:05:26,-8.709874,-3.347559,1.6175481,-0.91461223,0.117226675,2.4703078,9.470191166923849,2.6367932022451095,walk
10/07/2020, 15:05:26,-8.709874,-3.347559,1.6175481,-1.0257334,0.10379445,2.5545645,9.470191166923849,2.7547598549356853,walk
10/07/2020, 15:05:26,-8.573483,-3.4049866,1.8496519,-1.0257334,0.10379445,2.5545645,9.40849429584286,2.7547598549356853,walk
10/07/2020, 15:05:27,-8.736196,-2.105684,1.0336994,-1.1222012,-0.2075889,0.15141778,9.04563721677247,1.1512410850527093,walk
10/07/2020, 15:05:27,-8.736196,-2.105684,1.0336994,-1.2015734,-0.10501556,0.19782001,9.04563721677247,1.2222682158854148,walk
10/07/2020, 15:05:27,-7.6833534,-1.9669002,1.3184453,-1.2015734,-0.10501556,0.19782001,8.039957364723655,1.2222682158854148,walk
10/07/2020, 15:05:27,-7.6833534,-1.9669002,1.3184453,-1.1722667,0.048844445,0.23811668,8.039957364723655,1.197202823570641,walk
10/07/2020, 15:05:27,-6.95115,-2.0075781,1.591227,-1.1722667,0.048844445,0.23811668,7.4081616478538255,1.197202823570641,walk
10/07/2020, 15:05:27,-6.95115,-2.0075781,1.591227,-1.0501556,0.22590557,0.2955089,7.4081616478538255,1.1140851393563123,walk
10/07/2020, 15:05:27,-6.7501526,-2.1296122,1.7324036,-1.0501556,0.22590557,0.2955089,7.287045386967203,1.1140851393563123,walk
10/07/2020, 15:05:27,-6.7501526,-2.1296122,1.7324036,-0.86576784,0.38220778,0.3370267,7.287045386967203,1.0046012748742117,walk
10/07/2020, 15:05:27,-6.946364,-2.3138595,1.8568304,-0.86576784,0.38220778,0.3370267,7.55339237595162,1.0046012748742117,walk
10/07/2020, 15:05:27,-6.946364,-2.3138595,1.8568304,-0.64963114,0.49821335,0.3944189,7.55339237595162,0.9087372718620114,walk
10/07/2020, 15:05:27,-7.3603225,-2.5172493,1.9190438,-0.64963114,0.49821335,0.3944189,8.012092126176976,0.9087372718620114,walk
10/07/2020, 15:05:27,-7.3603225,-2.5172493,1.9190438,-0.4566956,0.58491224,0.47501224,8.012092126176976,0.8810958055589206,walk
10/07/2020, 15:05:27,-7.920243,-2.6919255,1.8903298,-0.4566956,0.58491224,0.47501224,8.57613291216043,0.8810958055589206,walk
10/07/2020, 15:05:27,-7.920243,-2.6919255,1.8903298,-0.32359445,0.6203245,0.57148004,8.57613291216043,0.9033854525739498,walk
10/07/2020, 15:05:27,-8.4682,-2.8187451,1.8711873,-0.32359445,0.6203245,0.57148004,9.119049996041614,0.9033854525739498,walk
10/07/2020, 15:05:27,-8.4682,-2.8187451,1.8711873,-0.2503278,0.6203245,0.6972545,9.119049996041614,0.9662454603520398,walk
10/07/2020, 15:05:27,-8.985049,-2.9671001,1.8281165,-0.2503278,0.6203245,0.6972545,9.637261193680063,0.9662454603520398,walk
10/07/2020, 15:05:27,-8.985049,-2.9671001,1.8281165,-0.21491556,0.60811335,0.84745115,9.637261193680063,1.0649713584494411,walk
10/07/2020, 15:05:27,-9.501899,-3.0987053,1.7754744,-0.21491556,0.60811335,0.84745115,10.15087996602412,1.0649713584494411,walk
10/07/2020, 15:05:27,-9.501899,-3.0987053,1.7754744,-0.20392556,0.58124894,1.009859,10.15087996602412,1.1828994446280177,walk
10/07/2020, 15:05:28,-6.7908306,-1.0313065,2.2085752,-0.74732006,0.35534334,0.63986224,7.215038332558048,1.0460305167552957,walk
10/07/2020, 15:05:28,-6.7908306,-1.0313065,2.2085752,-0.5653745,0.5018767,0.7131289,7.215038332558048,1.039269654458288,walk
10/07/2020, 15:05:28,-6.9990063,-1.3064811,2.321038,-0.5653745,0.5018767,0.7131289,7.488671387142275,1.039269654458288,walk
10/07/2020, 15:05:28,-6.9990063,-1.3064811,2.321038,-0.35290113,0.60933447,0.78395337,7.488671387142275,1.0537602134065338,walk
10/07/2020, 15:05:28,-7.728817,-1.6965113,2.3521447,-0.35290113,0.60933447,0.78395337,8.2550195193068,1.0537602134065338,walk
10/07/2020, 15:05:28,-7.728817,-1.6965113,2.3521447,-0.16729222,0.6520734,0.8877478,8.2550195193068,1.1141286210648633,walk
10/07/2020, 15:05:28,-8.719446,-2.0937197,2.2707887,-0.16729222,0.6520734,0.8877478,9.250345138238266,1.1141286210648633,walk
10/07/2020, 15:05:28,-8.719446,-2.0937197,2.2707887,-0.04396,0.63619894,1.0159645,9.250345138238266,1.1995271784844506,walk
10/07/2020, 15:05:28,-9.635897,-2.4311078,2.1678972,-0.04396,0.63619894,1.0159645,10.171556822546073,1.1995271784844506,walk
10/07/2020, 15:05:28,-9.635897,-2.4311078,2.1678972,-0.0012211112,0.59590226,1.1478444,10.171556822546073,1.2933088740373206,walk
10/07/2020, 15:05:28,-10.439885,-2.6656044,2.0147567,-0.0012211112,0.59590226,1.1478444,10.961564339519757,1.2933088740373206,walk
10/07/2020, 15:05:28,-10.439885,-2.6656044,2.0147567,-0.024422223,0.53973114,1.2687345,10.961564339519757,1.378982694352745,walk
10/07/2020, 15:05:28,-11.002198,-2.8929226,1.9070797,-0.024422223,0.53973114,1.2687345,11.534917426071415,1.378982694352745,walk
10/07/2020, 15:05:28,-11.002198,-2.8929226,1.9070797,-0.089141116,0.4701278,1.3859612,11.534917426071415,1.466238267478323,walk
10/07/2020, 15:05:28,-11.356337,-3.0317063,1.8257236,-0.089141116,0.4701278,1.3859612,11.894994365590277,1.466238267478323,walk
10/07/2020, 15:05:28,-11.356337,-3.0317063,1.8257236,-0.19049335,0.41029334,1.4921979,11.894994365590277,1.5592571394210903,walk
10/07/2020, 15:05:28,-11.466406,-3.050849,1.7563318,-0.19049335,0.41029334,1.4921979,11.994617306133879,1.5592571394210903,walk
10/07/2020, 15:05:28,-11.466406,-3.050849,1.7563318,-0.31993112,0.34679556,1.5984346,11.994617306133879,1.666618176865035,walk
10/07/2020, 15:05:28,-11.356337,-2.9790642,1.7300107,-0.31993112,0.34679556,1.5984346,11.867356136864904,1.666618176865035,walk
10/07/2020, 15:05:28,-11.356337,-2.9790642,1.7300107,-0.47623336,0.2820767,1.6875756,11.867356136864904,1.776028380151345,walk
10/07/2020, 15:05:29,-9.131011,-2.3186452,1.2011969,-1.3603178,-0.4798967,-0.23689556,9.497070696181341,1.4618087880132165,walk
10/07/2020, 15:05:29,-9.131011,-2.3186452,1.2011969,-1.3566545,-0.3724389,-0.07326667,9.497070696181341,1.4087548560800824,walk
10/07/2020, 15:05:29,-9.372686,-2.4335005,1.3351951,-1.3566545,-0.3724389,-0.07326667,9.775066279782234,1.4087548560800824,walk
10/07/2020, 15:05:29,-9.372686,-2.4335005,1.3351951,-1.3285689,-0.26864445,0.12455334,9.775066279782234,1.361168171706446,walk
10/07/2020, 15:05:29,-9.683753,-2.6512475,1.4356936,-1.3285689,-0.26864445,0.12455334,10.142258225728618,1.361168171706446,walk
10/07/2020, 15:05:29,-9.683753,-2.6512475,1.4356936,-1.2614079,-0.15752333,0.34313223,10.142258225728618,1.316701597152704,walk
10/07/2020, 15:05:29,-10.061819,-2.885744,1.550549,-1.2614079,-0.15752333,0.34313223,10.581678713952527,1.316701597152704,walk
10/07/2020, 15:05:29,-10.061819,-2.885744,1.550549,-1.1576134,-0.058613338,0.5775856,10.581678713952527,1.295032586194566,walk
10/07/2020, 15:05:29,-10.492527,-3.1465619,1.698904,-1.1576134,-0.058613338,0.5775856,11.08513642174462,1.295032586194566,walk
10/07/2020, 15:05:29,-10.492527,-3.1465619,1.698904,-1.0257334,0.03174889,0.7998278,11.08513642174462,1.3011000857306796,walk
10/07/2020, 15:05:29,-10.798809,-3.3427732,1.8137596,-1.0257334,0.03174889,0.7998278,11.448935904810611,1.3011000857306796,walk
10/07/2020, 15:05:29,-10.798809,-3.3427732,1.8137596,-0.90240115,0.10501556,1.0086378,11.448935904810611,1.3574631801366,walk
10/07/2020, 15:05:29,-10.877771,-3.4025939,1.861616,-0.90240115,0.10501556,1.0086378,11.54855702011868,1.3574631801366,walk
10/07/2020, 15:05:29,-10.877771,-3.4025939,1.861616,-0.8266923,0.16607112,1.1930256,11.54855702011868,1.460927719938686,walk
10/07/2020, 15:05:29,-10.743773,-3.3930225,1.9118652,-0.8266923,0.16607112,1.1930256,11.42788251517812,1.460927719938686,walk
10/07/2020, 15:05:29,-10.743773,-3.3930225,1.9118652,-0.8169234,0.21125223,1.3627601,11.42788251517812,1.602843196444453,walk
10/07/2020, 15:05:29,-10.353744,-3.2757742,1.9381863,-0.8169234,0.21125223,1.3627601,11.031195244661578,1.602843196444453,walk
10/07/2020, 15:05:29,-10.353744,-3.2757742,1.9381863,-0.83890337,0.22102112,1.4970822,11.031195244661578,1.7302787079845154,walk
10/07/2020, 15:05:29,-9.683753,-3.0843484,1.9908284,-0.83890337,0.22102112,1.4970822,10.356238478660943,1.7302787079845154,walk
10/07/2020, 15:05:29,-9.683753,-3.0843484,1.9908284,-0.8450089,0.23567446,1.5898868,10.356238478660943,1.8158531037154133,walk
10/07/2020, 15:05:30,-8.094919,-1.9525433,1.9597218,0.56659555,-1.1148745,-1.0977789,8.554569051421604,1.664059548926508,walk
10/07/2020, 15:05:30,-8.094919,-1.9525433,1.9597218,0.30161446,-1.0990001,-0.98055226,8.554569051421604,1.5034145214013355,walk
10/07/2020, 15:05:30,-7.9298143,-1.8065811,2.0075781,0.30161446,-1.0990001,-0.98055226,8.377115304572326,1.5034145214013355,walk
10/07/2020, 15:05:30,-7.9298143,-1.8065811,2.0075781,0.07937223,-1.05504,-0.8584412,8.377115304572326,1.3624722401810976,walk
10/07/2020, 15:05:30,-7.7407813,-1.820938,2.1343977,0.07937223,-1.05504,-0.8584412,8.233538980792245,1.3624722401810976,walk
10/07/2020, 15:05:30,-7.7407813,-1.820938,2.1343977,-0.06960334,-1.0281756,-0.7424356,8.233538980792245,1.2701182055071387,walk
10/07/2020, 15:05:30,-7.6570325,-1.9788643,2.292324,-0.06960334,-1.0281756,-0.7424356,8.23412412705737,1.2701182055071387,walk
10/07/2020, 15:05:30,-7.6570325,-1.9788643,2.292324,-0.08669889,-0.97811,-0.6435256,8.23412412705737,1.1740277245894406,walk
10/07/2020, 15:05:30,-7.5661054,-2.3114667,2.3234308,-0.08669889,-0.97811,-0.6435256,8.245432630021355,1.1740277245894406,walk
10/07/2020, 15:05:30,-7.5661054,-2.3114667,2.3234308,0.0024422223,-0.8498934,-0.54095227,8.245432630021355,1.0074493009740308,walk
10/07/2020, 15:05:30,-7.4153576,-2.6512475,2.507678,0.0024422223,-0.8498934,-0.54095227,8.26468938368298,1.0074493009740308,walk
10/07/2020, 15:05:30,-7.4153576,-2.6512475,2.507678,0.10867889,-0.70336,-0.4359367,8.26468938368298,0.834606025660339,walk
10/07/2020, 15:05:30,-7.1976104,-2.7756743,2.6608188,0.10867889,-0.70336,-0.4359367,8.160264700596228,0.834606025660339,walk
10/07/2020, 15:05:30,-7.1976104,-2.7756743,2.6608188,0.17095557,-0.5690378,-0.33458444,8.160264700596228,0.6818919044171727,walk
10/07/2020, 15:05:30,-7.0396843,-2.6321049,2.792424,0.17095557,-0.5690378,-0.33458444,8.017653187847552,0.6818919044171727,walk
10/07/2020, 15:05:30,-7.0396843,-2.6321049,2.792424,0.16607112,-0.4591378,-0.21613668,8.017653187847552,0.5339496201602465,walk
10/07/2020, 15:05:30,-7.0636125,-2.3186452,2.8642087,0.16607112,-0.4591378,-0.21613668,7.967084046970518,0.5339496201602465,walk
10/07/2020, 15:05:30,-7.0636125,-2.3186452,2.8642087,0.102573335,-0.36267,-0.08059334,7.967084046970518,0.3854167972786098,walk
10/07/2020, 15:05:30,-7.3196445,-1.98365,2.9982069,0.102573335,-0.36267,-0.08059334,8.154833317095525,0.3854167972786098,walk
10/07/2020, 15:05:30,-7.3196445,-1.98365,2.9982069,-0.015874445,-0.2942878,0.06594,8.154833317095525,0.30200230351197377,walk
10/07/2020, 15:05:31,-10.035499,-1.9788643,4.627719,0.5800278,-2.514268,-2.6131778,11.226883759652342,3.672420665174883,walk
10/07/2020, 15:05:31,-9.662218,-1.9381863,4.2664027,0.5800278,-2.514268,-2.6131778,10.738585417143494,3.672420665174883,walk
10/07/2020, 15:05:31,-9.662218,-1.9381863,4.2664027,0.5458367,-2.4910667,-2.5826502,10.738585417143494,3.6295224121635092,walk
10/07/2020, 15:05:31,-9.288938,-1.8903298,3.9146578,0.5458367,-2.4910667,-2.5826502,10.255839994146465,3.6295224121635092,walk
10/07/2020, 15:05:31,-9.288938,-1.8903298,3.9146578,0.4908867,-2.4507701,-2.54968,10.255839994146465,3.5704498446383504,walk
10/07/2020, 15:05:31,-8.898908,-1.7563318,3.5940197,0.4908867,-2.4507701,-2.54968,9.756650870980378,3.5704498446383504,walk
10/07/2020, 15:05:31,-8.898908,-1.7563318,3.5940197,0.4383789,-2.4129157,-2.5252578,9.756650870980378,3.5201229175366273,walk
10/07/2020, 15:05:31,-8.525627,-1.7659031,3.4360933,0.4383789,-2.4129157,-2.5252578,9.360099852761355,3.5201229175366273,walk
10/07/2020, 15:05:31,-8.525627,-1.7659031,3.4360933,0.44448447,-2.3604078,-2.4849613,9.360099852761355,3.4560272114717407,walk
10/07/2020, 15:05:31,-8.068598,-1.9190438,3.345166,0.44448447,-2.3604078,-2.4849613,8.942881791389896,3.4560272114717407,walk
10/07/2020, 15:05:31,-8.068598,-1.9190438,3.345166,0.5104245,-2.2798145,-2.4214635,8.942881791389896,3.3647544735243975,walk
10/07/2020, 15:05:31,-7.6570325,-2.1415763,3.3355947,0.5104245,-2.2798145,-2.4214635,8.622220552287734,3.3647544735243975,walk
10/07/2020, 15:05:31,-7.6570325,-2.1415763,3.3355947,0.62765115,-2.177241,-2.3579657,8.622220552287734,3.2702181887718083,walk
10/07/2020, 15:05:31,-7.30768,-2.347359,3.4863427,0.62765115,-2.177241,-2.3579657,8.430116730368637,3.2702181887718083,walk
10/07/2020, 15:05:31,-7.30768,-2.347359,3.4863427,0.75953114,-2.0734468,-2.2859201,8.430116730368637,3.178285682821178,walk
10/07/2020, 15:05:31,-7.0779696,-2.469393,3.5581272,0.75953114,-2.0734468,-2.2859201,8.297940934313734,3.178285682821178,walk
10/07/2020, 15:05:31,-7.0779696,-2.469393,3.5581272,0.82791334,-1.9586623,-2.1918945,8.297940934313734,3.05388278015677,walk
10/07/2020, 15:05:31,-6.853044,-2.37368,3.548556,0.82791334,-1.9586623,-2.1918945,8.074083237476392,3.05388278015677,walk
10/07/2020, 15:05:31,-6.853044,-2.37368,3.548556,0.80471224,-1.8475412,-2.0710046,8.074083237476392,2.8896419311768904,walk
10/07/2020, 15:05:31,-6.652047,-2.0458634,3.481557,0.80471224,-1.8475412,-2.0710046,7.781807424254098,2.8896419311768904,walk
10/07/2020, 15:05:32,-11.30848,-0.9092726,3.586841,0.6471889,-2.4922879,-2.5753233,11.898484426900273,3.641791131457772,walk
10/07/2020, 15:05:32,-10.863415,-1.1724831,3.4049866,0.6471889,-2.4922879,-2.5753233,11.444755603062982,3.641791131457772,walk
10/07/2020, 15:05:32,-10.863415,-1.1724831,3.4049866,0.6435256,-2.5008357,-2.5887556,11.444755603062982,3.6564955597184734,walk
10/07/2020, 15:05:32,-10.372886,-1.4596218,3.2877383,0.6435256,-2.5008357,-2.5887556,10.978910550336769,3.6564955597184734,walk
10/07/2020, 15:05:32,-10.372886,-1.4596218,3.2877383,0.6740534,-2.4861822,-2.5960822,10.978910550336769,3.657197395023827,walk
10/07/2020, 15:05:32,-9.956535,-1.6199409,3.1680973,0.6740534,-2.4861822,-2.5960822,10.573251375162936,3.657197395023827,walk
10/07/2020, 15:05:32,-9.956535,-1.6199409,3.1680973,0.72778225,-2.449549,-2.5960822,10.573251375162936,3.6427462102960386,walk
10/07/2020, 15:05:32,-9.530613,-1.6247265,3.0293136,0.72778225,-2.449549,-2.5960822,10.131587244790055,3.6427462102960386,walk
10/07/2020, 15:05:32,-9.530613,-1.6247265,3.0293136,0.7522045,-2.3872724,-2.578987,10.131587244790055,3.593891238048197,walk
10/07/2020, 15:05:32,-9.15494,-1.442872,2.8689942,0.7522045,-2.3872724,-2.578987,9.701851766225172,3.593891238048197,walk
10/07/2020, 15:05:32,-9.15494,-1.442872,2.8689942,0.71435004,-2.3420913,-2.5277002,9.701851766225172,3.519226616162093,walk
10/07/2020, 15:05:32,-8.810373,-1.2610176,2.7302105,0.71435004,-2.3420913,-2.5277002,9.309505502029312,3.519226616162093,walk
10/07/2020, 15:05:32,-8.810373,-1.2610176,2.7302105,0.6227667,-2.294468,-2.4629812,9.309505502029312,3.4232583751938366,walk
10/07/2020, 15:05:32,-8.465807,-1.160519,2.658426,0.6227667,-2.294468,-2.4629812,8.948962001499943,3.4232583751938366,walk
10/07/2020, 15:05:32,-8.465807,-1.160519,2.658426,0.5189722,-2.2370756,-2.3823879,8.948962001499943,3.3090196812357227,walk
10/07/2020, 15:05:32,-8.13799,-1.1940185,2.6225336,0.5189722,-2.2370756,-2.3823879,8.633090038667273,3.3090196812357227,walk
10/07/2020, 15:05:32,-8.13799,-1.1940185,2.6225336,0.4371578,-2.1711357,-2.2908046,8.633090038667273,3.1863337631106003,walk
10/07/2020, 15:05:32,-7.8197446,-1.3806586,2.672783,0.4371578,-2.1711357,-2.2908046,8.378448070359061,3.1863337631106003,walk
10/07/2020, 15:05:32,-7.8197446,-1.3806586,2.672783,0.42006224,-2.0722256,-2.1992211,8.378448070359061,3.0507613314723177,walk
10/07/2020, 15:05:32,-7.479964,-1.6630118,2.6488547,0.42006224,-2.0722256,-2.1992211,8.107521060549784,3.0507613314723177,walk
10/07/2020, 15:05:33,-10.468599,-4.9938207,4.2520456,0.55438447,-0.25643334,-1.7816012,12.353530208801041,1.8834019750419029,walk
10/07/2020, 15:05:33,-10.468599,-4.9938207,4.2520456,0.7351089,-0.20392556,-2.0148335,12.353530208801041,2.1544197782744985,walk
10/07/2020, 15:05:33,-10.770095,-4.8646083,4.113262,0.7351089,-0.20392556,-2.0148335,12.513124432696378,2.1544197782744985,walk
10/07/2020, 15:05:33,-10.770095,-4.8646083,4.113262,0.87920004,-0.19293556,-2.2334123,12.513124432696378,2.4079757453872395,walk
10/07/2020, 15:05:33,-11.090733,-4.7545385,3.9314077,0.87920004,-0.19293556,-2.2334123,12.691176153320624,2.4079757453872395,walk
10/07/2020, 15:05:33,-11.090733,-4.7545385,3.9314077,1.0049745,-0.20881,-2.4471068,12.691176153320624,2.6536592111365582,walk
10/07/2020, 15:05:33,-11.397015,-4.7545385,3.751946,1.0049745,-0.20881,-2.4471068,12.906381269441887,2.6536592111365582,walk
10/07/2020, 15:05:33,-11.397015,-4.7545385,3.751946,1.1270856,-0.22102112,-2.6376002,12.906381269441887,2.8768223677888387,walk
10/07/2020, 15:05:33,-11.657832,-4.800002,3.6107693,1.1270856,-0.22102112,-2.6376002,13.114218436996193,2.8768223677888387,walk
10/07/2020, 15:05:33,-11.657832,-4.800002,3.6107693,1.2601867,-0.23079,-2.8183246,13.114218436996193,3.0958500986821704,walk
10/07/2020, 15:05:33,-11.925828,-4.898108,3.4648073,1.2601867,-0.23079,-2.8183246,13.349970954092928,3.0958500986821704,walk
10/07/2020, 15:05:33,-11.925828,-4.898108,3.4648073,1.4116045,-0.23201112,-2.9734056,13.349970954092928,3.299635942463865,walk
10/07/2020, 15:05:33,-12.169896,-4.9698925,3.385844,1.4116045,-0.23201112,-2.9734056,13.57461390729406,3.299635942463865,walk
10/07/2020, 15:05:33,-12.169896,-4.9698925,3.385844,1.5752333,-0.23079,-3.119939,13.57461390729406,3.502662418823903,walk
10/07/2020, 15:05:33,-12.392428,-5.020142,3.3284163,1.5752333,-0.23079,-3.119939,13.778696000437957,3.502662418823903,walk
10/07/2020, 15:05:33,-12.392428,-5.020142,3.3284163,1.7229879,-0.23323223,-3.2664723,13.778696000437957,3.700395396249042,walk
10/07/2020, 15:05:33,-12.610175,-4.9698925,3.2590244,1.7229879,-0.23323223,-3.2664723,13.94050172262563,3.700395396249042,walk
10/07/2020, 15:05:33,-12.610175,-4.9698925,3.2590244,1.8438779,-0.24544334,-3.393468,13.94050172262563,3.8698517539513837,walk
10/07/2020, 15:05:33,-12.825529,-4.8646083,3.1848469,1.8438779,-0.24544334,-3.393468,14.081969325603007,3.8698517539513837,walk
10/07/2020, 15:05:33,-12.825529,-4.8646083,3.1848469,1.9256923,-0.27108666,-3.5021467,14.081969325603007,4.005847044543904,walk
10/07/2020, 15:05:34,-8.149954,-5.855237,3.6466618,0.3858711,0.123332225,0.16729222,10.677251051629689,0.438285341625096,walk
10/07/2020, 15:05:34,-8.350951,-5.7188463,3.5006995,0.3858711,0.123332225,0.16729222,10.709737916113996,0.438285341625096,walk
10/07/2020, 15:05:34,-8.350951,-5.7188463,3.5006995,0.36267,0.123332225,-0.035412222,10.709737916113996,0.3847003966936896,walk
10/07/2020, 15:05:34,-8.559127,-5.639883,3.3690944,0.36267,0.123332225,-0.035412222,10.789704820263507,0.3847003966936896,walk
10/07/2020, 15:05:34,-8.559127,-5.639883,3.3690944,0.3614489,0.12943779,-0.24788557,10.789704820263507,0.45699749931502665,walk
10/07/2020, 15:05:34,-8.927621,-5.6709895,3.4241292,0.3614489,0.12943779,-0.24788557,11.116977911342735,0.45699749931502665,walk
10/07/2020, 15:05:34,-8.927621,-5.6709895,3.4241292,0.4261678,0.15752333,-0.46280113,11.116977911342735,0.6485502812795166,walk
10/07/2020, 15:05:34,-9.506684,-5.8265233,3.6203406,0.4261678,0.15752333,-0.46280113,11.723151718318618,0.6485502812795166,walk
10/07/2020, 15:05:34,-9.506684,-5.8265233,3.6203406,0.5702589,0.17828223,-0.6777167,11.723151718318618,0.9034819713867969,walk
10/07/2020, 15:05:34,-10.210175,-6.06102,3.8739798,0.5702589,0.17828223,-0.6777167,12.48964956668221,0.9034819713867969,walk
10/07/2020, 15:05:34,-10.210175,-6.06102,3.8739798,0.75098336,0.17584,-0.8767578,12.48964956668221,1.1677328253794677,walk
10/07/2020, 15:05:34,-10.729417,-6.1710896,4.1347976,0.75098336,0.17584,-0.8767578,13.049876792924064,1.1677328253794677,walk
10/07/2020, 15:05:34,-10.729417,-6.1710896,4.1347976,0.9097278,0.15141778,-1.075799,13.049876792924064,1.416995235729158,walk
10/07/2020, 15:05:34,-11.021341,-6.1399827,4.2831526,0.9097278,0.15141778,-1.075799,13.323466071680807,1.416995235729158,walk
10/07/2020, 15:05:34,-11.021341,-6.1399827,4.2831526,1.0123012,0.10379445,-1.2785034,13.323466071680807,1.634043454156148,walk
10/07/2020, 15:05:34,-11.10509,-6.0155563,4.3094735,1.0123012,0.10379445,-1.2785034,13.344718320142569,1.634043454156148,walk
10/07/2020, 15:05:34,-11.10509,-6.0155563,4.3094735,1.0501556,0.045181114,-1.4946401,13.344718320142569,1.827243077627611,walk
10/07/2020, 15:05:34,-11.054841,-5.8193445,4.2281175,1.0501556,0.045181114,-1.4946401,13.189058283645895,1.827243077627611,walk
10/07/2020, 15:05:34,-11.054841,-5.8193445,4.2281175,1.0391656,-0.023201112,-1.7010078,13.189058283645895,1.9934470525052779,walk
10/07/2020, 15:05:34,-10.980663,-5.5968122,3.9864426,1.0391656,-0.023201112,-1.7010078,12.95341646715706,1.9934470525052779,walk
10/07/2020, 15:05:35,-8.834301,-4.7688956,1.18684,-2.097869,0.13920668,2.1357234,10.109195263824503,2.9969562459440775,walk
10/07/2020, 15:05:35,-8.834301,-4.7688956,1.18684,-1.9415667,0.16729222,2.1906734,10.109195263824503,2.932015977515984,walk
10/07/2020, 15:05:35,-8.630911,-4.8047876,1.2801601,-1.9415667,0.16729222,2.1906734,9.960793971035743,2.932015977515984,walk
10/07/2020, 15:05:35,-8.630911,-4.8047876,1.2801601,-1.7388623,0.21369445,2.2212012,9.960793971035743,2.8289648323750605,walk
10/07/2020, 15:05:35,-8.547162,-4.8358946,1.4380864,-1.7388623,0.21369445,2.2212012,9.925117032631455,2.8289648323750605,walk
10/07/2020, 15:05:35,-8.547162,-4.8358946,1.4380864,-1.5019667,0.25643334,2.2505078,9.925117032631455,2.717801973896971,walk
10/07/2020, 15:05:35,-8.554341,-4.7856455,1.6654046,-1.5019667,0.25643334,2.2505078,9.942471041156288,2.717801973896971,walk
10/07/2020, 15:05:35,-8.554341,-4.7856455,1.6654046,-1.2785034,0.29184556,2.2724879,9.942471041156288,2.623727497279961,walk
10/07/2020, 15:05:35,-8.568698,-4.7138605,1.8735801,-1.2785034,0.29184556,2.2724879,9.957578396061443,2.623727497279961,walk
10/07/2020, 15:05:35,-8.568698,-4.7138605,1.8735801,-1.1026634,0.31382558,2.2956889,9.957578396061443,2.5660359386796032,walk
10/07/2020, 15:05:35,-8.537591,-4.584648,2.065006,-1.1026634,0.31382558,2.2956889,9.908264636207619,2.5660359386796032,walk
10/07/2020, 15:05:35,-8.537591,-4.584648,2.065006,-0.9829945,0.32970002,2.32988,9.908264636207619,2.5501609942112133,walk
10/07/2020, 15:05:35,-8.458628,-4.4410787,2.1798615,-0.9829945,0.32970002,2.32988,9.799150913649603,2.5501609942112133,walk
10/07/2020, 15:05:35,-8.458628,-4.4410787,2.1798615,-0.9097278,0.34679556,2.3689556,9.799150913649603,2.56121505223037,walk
10/07/2020, 15:05:35,-8.338987,-4.342973,2.2755744,-0.9097278,0.34679556,2.3689556,9.67359114214769,2.56121505223037,walk
10/07/2020, 15:05:35,-8.338987,-4.342973,2.2755744,-0.8450089,0.36633334,2.4239056,9.67359114214769,2.592982564827322,walk
10/07/2020, 15:05:35,-8.209774,-4.2664027,2.37368,-0.8450089,0.36633334,2.4239056,9.551802912751365,2.592982564827322,walk
10/07/2020, 15:05:35,-8.209774,-4.2664027,2.37368,-0.77906895,0.39197668,2.4886246,9.551802912751365,2.637014677452943,walk
10/07/2020, 15:05:35,-8.140383,-4.24726,2.5196424,-0.77906895,0.39197668,2.4886246,9.521220902780108,2.637014677452943,walk
10/07/2020, 15:05:35,-8.140383,-4.24726,2.5196424,-0.7228978,0.42372558,2.5423534,9.521220902780108,2.676879788166062,walk
10/07/2020, 15:05:36,-12.856636,-4.699504,2.993421,1.4787656,0.45059,3.7939923,14.012101808654513,4.096847142523799,walk
10/07/2020, 15:05:36,-12.856636,-4.699504,2.993421,1.2626289,0.47745445,3.592509,14.012101808654513,3.8377487759182602,walk
10/07/2020, 15:05:36,-13.761123,-4.074977,2.1894326,1.2626289,0.47745445,3.592509,14.517835588388403,3.8377487759182602,walk
10/07/2020, 15:05:36,-13.761123,-4.074977,2.1894326,0.91461223,0.4249467,3.3800356,14.517835588388403,3.5272845294382824,walk
10/07/2020, 15:05:36,-14.35215,-3.5126636,1.6247265,0.91461223,0.4249467,3.3800356,14.864815857180407,3.5272845294382824,walk
10/07/2020, 15:05:36,-14.35215,-3.5126636,1.6247265,0.47501224,0.3309211,3.1455824,14.864815857180407,3.1984112126746336,walk
10/07/2020, 15:05:36,-14.335401,-3.0436704,1.4045869,0.47501224,0.3309211,3.1455824,14.722109353610438,3.1984112126746336,walk
10/07/2020, 15:05:36,-14.335401,-3.0436704,1.4045869,0.0036633336,0.23811668,2.878159,14.722109353610438,2.8879945410484655,walk
10/07/2020, 15:05:36,-13.749159,-2.6823542,1.6007984,0.0036633336,0.23811668,2.878159,14.099537186412125,2.8879945410484655,walk
10/07/2020, 15:05:36,-13.749159,-2.6823542,1.6007984,-0.4481478,0.18438779,2.603409,14.099537186412125,2.6481265078806944,walk
10/07/2020, 15:05:36,-12.873385,-2.3928227,2.0482562,-0.4481478,0.18438779,2.603409,13.253113082685784,2.6481265078806944,walk
10/07/2020, 15:05:36,-12.873385,-2.3928227,2.0482562,-0.8425667,0.18927222,2.3481967,13.253113082685784,2.5019533608956857,walk
10/07/2020, 15:05:36,-11.983255,-2.143969,2.457429,-0.8425667,0.18927222,2.3481967,12.419096985579099,2.5019533608956857,walk
10/07/2020, 15:05:36,-11.983255,-2.143969,2.457429,-1.1722667,0.2295689,2.1039746,12.419096985579099,2.419425589392947,walk
10/07/2020, 15:05:36,-11.219945,-1.9740787,2.7972097,-1.1722667,0.2295689,2.1039746,11.730666376375849,2.419425589392947,walk
10/07/2020, 15:05:36,-11.219945,-1.9740787,2.7972097,-1.449459,0.25521225,1.8719634,11.730666376375849,2.3812415797430946,walk
10/07/2020, 15:05:36,-10.73181,-1.9046868,2.9599216,-1.449459,0.25521225,1.8719634,11.294277548549008,2.3812415797430946,walk
10/07/2020, 15:05:36,-10.73181,-1.9046868,2.9599216,-1.6741434,0.26376,1.6741434,11.294277548549008,2.382243020806941,walk
10/07/2020, 15:05:36,-10.3848505,-2.0219352,2.9455647,-1.6741434,0.26376,1.6741434,10.982244473663673,2.382243020806941,walk
10/07/2020, 15:05:36,-10.3848505,-2.0219352,2.9455647,-1.8841745,0.2625389,1.5471479,10.982244473663673,2.452082100968227,walk
10/07/2020, 15:05:37,-6.431907,-3.548556,1.3304094,-0.009768889,0.10745778,2.0087278,7.465364655840703,2.0116237062483786,walk
10/07/2020, 15:05:37,-6.745367,-3.546163,1.2418749,-0.009768889,0.10745778,2.0087278,7.72123711566733,2.0116237062483786,walk
10/07/2020, 15:05:37,-6.745367,-3.546163,1.2418749,-0.029306669,0.14042778,2.2553923,7.72123711566733,2.259949850918417,walk
10/07/2020, 15:05:37,-7.066005,-3.5509489,1.18684,-0.029306669,0.14042778,2.2553923,7.99664035864132,2.259949850918417,walk
10/07/2020, 15:05:37,-7.066005,-3.5509489,1.18684,-0.06960334,0.16485001,2.5252578,7.99664035864132,2.5315898637185024,walk
10/07/2020, 15:05:37,-7.470392,-3.5964124,1.174876,-0.06960334,0.16485001,2.5252578,8.373844748997865,2.5315898637185024,walk
10/07/2020, 15:05:37,-7.470392,-3.5964124,1.174876,-0.10501556,0.19293556,2.7975657,8.373844748997865,2.8061764440249464,walk
10/07/2020, 15:05:37,-8.032705,-3.6849468,1.1892328,-0.10501556,0.19293556,2.7975657,8.9172564167464,2.8061764440249464,walk
10/07/2020, 15:05:37,-8.032705,-3.6849468,1.1892328,-0.11234222,0.21980001,3.0808635,8.9172564167464,3.0907365750319973,walk
10/07/2020, 15:05:37,-8.776874,-3.9218364,1.2849457,-0.11234222,0.21980001,3.0808635,9.698731673316148,3.0907365750319973,walk
10/07/2020, 15:05:37,-8.776874,-3.9218364,1.2849457,-0.09768889,0.2503278,3.382478,9.698731673316148,3.393134912829418,walk
10/07/2020, 15:05:37,-9.753145,-4.173083,1.3710874,-0.09768889,0.2503278,3.382478,10.696651003047451,3.393134912829418,walk
10/07/2020, 15:05:37,-9.753145,-4.173083,1.3710874,-0.064718895,0.27841336,3.6877558,10.696651003047451,3.6988167760558874,walk
10/07/2020, 15:05:37,-10.978271,-4.426722,1.4524434,-0.064718895,0.27841336,3.6877558,11.92593324098373,3.6988167760558874,walk
10/07/2020, 15:05:37,-10.978271,-4.426722,1.4524434,-0.047623336,0.30405667,3.9966967,11.92593324098373,4.008528787438882,walk
10/07/2020, 15:05:37,-12.373286,-4.6396832,1.3423735,-0.047623336,0.30405667,3.9966967,13.282576548731726,4.008528787438882,walk
10/07/2020, 15:05:37,-12.373286,-4.6396832,1.3423735,-0.09768889,0.29917222,4.298311,13.282576548731726,4.309817466948702,walk
10/07/2020, 15:05:37,-13.765908,-4.735396,1.1222339,-0.09768889,0.29917222,4.298311,14.60080864095142,4.309817466948702,walk
10/07/2020, 15:05:37,-13.765908,-4.735396,1.1222339,-0.25521225,0.24055889,4.5816092,14.60080864095142,4.5950130776244595,walk
10/07/2020, 15:05:37,-15.014962,-4.7138605,0.86859465,-0.25521225,0.24055889,4.5816092,15.761472879848116,4.5950130776244595,walk
10/07/2020, 15:05:38,-7.685746,1.7252251,4.0941195,-0.8315767,0.1965989,0.40296668,8.877438314996406,0.9447502783063987,walk
10/07/2020, 15:05:38,-7.676175,1.6007984,4.0773697,-0.8315767,0.1965989,0.40296668,8.838052016101257,0.9447502783063987,walk
10/07/2020, 15:05:38,-7.676175,1.6007984,4.0773697,-0.7986067,0.19537778,0.34801668,8.838052016101257,0.8927825816232813,walk
10/07/2020, 15:05:38,-7.745567,1.4787644,4.072584,-0.7986067,0.19537778,0.34801668,8.875048823573032,0.8927825816232813,walk
10/07/2020, 15:05:38,-7.745567,1.4787644,4.072584,-0.74121445,0.18927222,0.29795113,8.875048823573032,0.8209736410455529,walk
10/07/2020, 15:05:38,-7.812566,1.4333007,4.048656,-0.74121445,0.18927222,0.29795113,8.91527625632719,0.8209736410455529,walk
10/07/2020, 15:05:38,-7.812566,1.4333007,4.048656,-0.6838223,0.19171445,0.24666445,8.91527625632719,0.7518049507683102,walk
10/07/2020, 15:05:38,-7.7742805,1.5840486,3.9984066,-0.6838223,0.19171445,0.24666445,8.884587994205486,0.7518049507683102,walk
10/07/2020, 15:05:38,-7.7742805,1.5840486,3.9984066,-0.6447467,0.20148334,0.21980001,8.884587994205486,0.7103561884238797,walk
10/07/2020, 15:05:38,-7.7072816,1.8041883,3.95055,-0.6447467,0.20148334,0.21980001,8.846701683464978,0.7103561884238797,walk
10/07/2020, 15:05:38,-7.7072816,1.8041883,3.95055,-0.66062117,0.22224224,0.18805112,8.846701683464978,0.7219246223246696,walk
10/07/2020, 15:05:38,-7.6594253,1.9812572,3.8500516,-0.66062117,0.22224224,0.18805112,8.79858358078657,0.7219246223246696,walk
10/07/2020, 15:05:38,-7.6594253,1.9812572,3.8500516,-0.70336,0.23079,0.15019667,8.79858358078657,0.7553399138372575,walk
10/07/2020, 15:05:38,-7.6402826,2.0745773,3.8165522,-0.70336,0.23079,0.15019667,8.788848627178858,0.7553399138372575,walk
10/07/2020, 15:05:38,-7.6402826,2.0745773,3.8165522,-0.7351089,0.22346334,0.11966889,8.788848627178858,0.7775870508183427,walk
10/07/2020, 15:05:38,-7.645068,2.0793629,3.8237305,-0.7351089,0.22346334,0.11966889,8.797257069272794,0.7775870508183427,walk
10/07/2020, 15:05:38,-7.645068,2.0793629,3.8237305,-0.7448778,0.23567446,0.089141116,8.797257069272794,0.7863406050980829,walk
10/07/2020, 15:05:38,-7.628319,1.9597218,3.8931224,-0.7448778,0.23567446,0.089141116,8.78567921955884,0.7863406050980829,walk
10/07/2020, 15:05:38,-7.628319,1.9597218,3.8931224,-0.73999333,0.25643334,0.05250778,8.78567921955884,0.7849237274445471,walk
10/07/2020, 15:05:38,-7.6139617,1.9142581,3.9074793,-0.73999333,0.25643334,0.05250778,8.76956049349375,0.7849237274445471,walk
10/07/2020, 15:05:39,-10.090533,-4.752146,0.9667004,0.2869611,-0.9194967,2.6314945,11.195367810356363,2.8022462965623713,walk
10/07/2020, 15:05:39,-10.090533,-4.752146,0.9667004,0.18927222,-0.97688895,2.8061135,11.195367810356363,2.9773157165463005,walk
10/07/2020, 15:05:39,-10.193424,-4.668397,0.94277215,0.18927222,-0.97688895,2.8061135,11.251162021556915,2.9773157165463005,walk
10/07/2020, 15:05:39,-10.193424,-4.668397,0.94277215,0.054950003,-1.0123012,2.9734056,11.251162021556915,3.1414827860967685,walk
10/07/2020, 15:05:39,-10.145568,-4.56072,0.96430755,0.054950003,-1.0123012,2.9734056,11.165240864049085,3.1414827860967685,walk
10/07/2020, 15:05:39,-10.145568,-4.56072,0.96430755,-0.08303556,-1.0086378,3.1028435,11.165240864049085,3.2637222638452354,walk
10/07/2020, 15:05:39,-10.109675,-4.486542,0.98584294,-0.08303556,-1.0086378,3.1028435,11.104345288556717,3.2637222638452354,walk
10/07/2020, 15:05:39,-10.109675,-4.486542,0.98584294,-0.20392556,-0.96712005,3.2017534,11.104345288556717,3.3508404203705546,walk
10/07/2020, 15:05:39,-10.27478,-4.517649,1.0839486,-0.20392556,-0.96712005,3.2017534,11.276311822502157,3.3508404203705546,walk
10/07/2020, 15:05:39,-10.27478,-4.517649,1.0839486,-0.28085557,-0.9072856,3.2896736,11.276311822502157,3.4240325834966674,walk
10/07/2020, 15:05:39,-10.719846,-4.613362,1.0863415,-0.28085557,-0.9072856,3.2896736,11.720850594186876,3.4240325834966674,walk
10/07/2020, 15:05:39,-10.719846,-4.613362,1.0863415,-0.32237336,-0.85722005,3.360498,11.720850594186876,3.4830586107612356,walk
10/07/2020, 15:05:39,-11.263016,-4.6564326,1.0336994,-0.32237336,-0.85722005,3.360498,12.231370445677396,3.4830586107612356,walk
10/07/2020, 15:05:39,-11.263016,-4.6564326,1.0336994,-0.3492378,-0.8218078,3.4081213,12.231370445677396,3.5231557193039635,walk
10/07/2020, 15:05:39,-11.741581,-4.694718,0.9762716,-0.3492378,-0.8218078,3.4081213,12.682988836194642,3.5231557193039635,walk
10/07/2020, 15:05:39,-11.741581,-4.694718,0.9762716,-0.37488112,-0.80593336,3.4239957,12.682988836194642,3.537486566645594,walk
10/07/2020, 15:05:39,-12.033505,-4.7306104,0.9906286,-0.37488112,-0.80593336,3.4239957,12.967855361270734,3.537486566645594,walk
10/07/2020, 15:05:39,-12.033505,-4.7306104,0.9906286,-0.40174556,-0.7900589,3.4203324,12.967855361270734,3.533308155225747,walk
10/07/2020, 15:05:39,-12.078969,-4.7306104,1.0600204,-0.40174556,-0.7900589,3.4203324,13.015521886273934,3.533308155225747,walk
10/07/2020, 15:05:39,-12.078969,-4.7306104,1.0600204,-0.43227336,-0.74609894,3.383699,13.015521886273934,3.49183940012577,walk
10/07/2020, 15:05:40,-8.690732,-3.9074793,0.014356935,0.53973114,-0.46768558,-2.60463,9.528768190522033,2.700765986433904,walk
10/07/2020, 15:05:40,-8.690732,-3.9074793,0.014356935,0.4921078,-0.48111778,-2.4507701,9.528768190522033,2.545568442590598,walk
10/07/2020, 15:05:40,-8.508878,-3.8380876,0.009571291,0.4921078,-0.48111778,-2.4507701,9.334452761373898,2.545568442590598,walk
10/07/2020, 15:05:40,-8.508878,-3.8380876,0.009571291,0.4371578,-0.4933289,-2.2883623,9.334452761373898,2.3814034113397424,walk
10/07/2020, 15:05:40,-8.420342,-3.7471602,-0.021535404,0.4371578,-0.4933289,-2.2883623,9.216498261691,2.3814034113397424,walk
10/07/2020, 15:05:40,-8.420342,-3.7471602,-0.021535404,0.36633334,-0.5153089,-2.141829,9.216498261691,2.2331983603690992,walk
10/07/2020, 15:05:40,-8.267202,-3.6203406,-0.07178468,0.36633334,-0.5153089,-2.141829,9.02544481700129,2.2331983603690992,walk
10/07/2020, 15:05:40,-8.267202,-3.6203406,-0.07178468,0.29306668,-0.53484666,-1.9891901,9.02544481700129,2.0805831617617425,walk
10/07/2020, 15:05:40,-8.073383,-3.4863427,-0.11246266,0.29306668,-0.53484666,-1.9891901,8.794700191985514,2.0805831617617425,walk
10/07/2020, 15:05:40,-8.073383,-3.4863427,-0.11246266,0.20514667,-0.5568267,-1.8255612,8.794700191985514,1.9195871202460448,walk
10/07/2020, 15:05:40,-7.8867435,-3.345166,-0.17228323,0.20514667,-0.5568267,-1.8255612,8.568578681331473,1.9195871202460448,walk
10/07/2020, 15:05:40,-7.8867435,-3.345166,-0.17228323,0.117226675,-0.5678167,-1.6607112,8.568578681331473,1.7590109314877234,walk
10/07/2020, 15:05:40,-7.6426754,-3.2590244,-0.24885355,0.117226675,-0.5678167,-1.6607112,8.312259336398522,1.7590109314877234,walk
10/07/2020, 15:05:40,-7.6426754,-3.2590244,-0.24885355,0.04151778,-0.56171113,-1.4921979,8.312259336398522,1.594960065090855,walk
10/07/2020, 15:05:40,-7.436893,-3.1896327,-0.3062813,0.04151778,-0.56171113,-1.4921979,8.097835636271402,1.594960065090855,walk
10/07/2020, 15:05:40,-7.436893,-3.1896327,-0.3062813,-0.03174889,-0.56049,-1.3273479,8.097835636271402,1.44118334230176,walk
10/07/2020, 15:05:40,-7.2263246,-3.1322048,-0.33020952,-0.03174889,-0.56049,-1.3273479,7.882861896442879,1.44118334230176,walk
10/07/2020, 15:05:40,-7.2263246,-3.1322048,-0.33020952,-0.08669889,-0.5458367,-1.1588345,7.882861896442879,1.2838814922350539,walk
10/07/2020, 15:05:40,-7.042077,-3.1082766,-0.37088752,-0.08669889,-0.5458367,-1.1588345,7.7064771712157825,1.2838814922350539,walk
10/07/2020, 15:05:40,-7.042077,-3.1082766,-0.37088752,-0.11844778,-0.5153089,-0.9866578,7.7064771712157825,1.119404648531291,walk
10/07/2020, 15:05:41,-11.119447,-3.5964124,-0.06460621,0.7338878,-1.4152678,-1.900049,11.68676398257894,2.4802742591123064,walk
10/07/2020, 15:05:41,-10.8251295,-3.3547373,-0.18424734,0.7338878,-1.4152678,-1.900049,11.334532994347637,2.4802742591123064,walk
10/07/2020, 15:05:41,-10.8251295,-3.3547373,-0.18424734,0.3931978,-1.4372479,-1.8206767,11.334532994347637,2.35268985402625,walk
10/07/2020, 15:05:41,-10.466207,-3.158526,-0.22492532,0.3931978,-1.4372479,-1.8206767,10.934731688463359,2.35268985402625,walk
10/07/2020, 15:05:41,-10.466207,-3.158526,-0.22492532,0.057392225,-1.4445745,-1.7559578,10.934731688463359,2.2745279124563664,walk
10/07/2020, 15:05:41,-10.064212,-2.993421,-0.22013968,0.057392225,-1.4445745,-1.7559578,10.502256485982253,2.2745279124563664,walk
10/07/2020, 15:05:41,-10.064212,-2.993421,-0.22013968,-0.26498112,-1.4348056,-1.7083346,10.502256485982253,2.246617275261178,walk
10/07/2020, 15:05:41,-9.671789,-2.861816,-0.25124636,-0.26498112,-1.4348056,-1.7083346,10.089431147707764,2.246617275261178,walk
10/07/2020, 15:05:41,-9.671789,-2.861816,-0.25124636,-0.54950005,-1.3969512,-1.6863545,10.089431147707764,2.257701156996242,walk
10/07/2020, 15:05:41,-9.32483,-2.8402805,-0.2440679,-0.54950005,-1.3969512,-1.6863545,9.750857306291088,2.257701156996242,walk
10/07/2020, 15:05:41,-9.32483,-2.8402805,-0.2440679,-0.80104893,-1.3371167,-1.6485001,9.750857306291088,2.268724981917183,walk
10/07/2020, 15:05:41,-9.097511,-2.8977082,-0.26081768,-0.80104893,-1.3371167,-1.6485001,9.55141090320688,2.268724981917183,walk
10/07/2020, 15:05:41,-9.097511,-2.8977082,-0.26081768,-0.9915423,-1.2504178,-1.6130879,9.55141090320688,2.2690864654058007,walk
10/07/2020, 15:05:41,-9.044869,-3.0197423,-0.24885355,-0.9915423,-1.2504178,-1.6130879,9.538890618183883,2.2690864654058007,walk
10/07/2020, 15:05:41,-9.044869,-3.0197423,-0.24885355,-1.1136534,-1.1624979,-1.5581379,9.538890618183883,2.240405980004479,walk
10/07/2020, 15:05:41,-8.989835,-3.1728828,-0.24646074,-1.1136534,-1.1624979,-1.5581379,9.536511814972387,2.240405980004479,walk
10/07/2020, 15:05:41,-8.989835,-3.1728828,-0.24646074,-1.1942468,-1.0684723,-1.5019667,9.536511814972387,2.1963065226256218,walk
10/07/2020, 15:05:41,-8.853444,-3.3355947,-0.2416751,-1.1942468,-1.0684723,-1.5019667,9.464040942904006,2.1963065226256218,walk
10/07/2020, 15:05:41,-8.853444,-3.3355947,-0.2416751,-1.2247745,-0.9402556,-1.4457957,9.464040942904006,2.115296235372271,walk
10/07/2020, 15:05:41,-8.71466,-3.4911282,-0.18664017,-1.2247745,-0.9402556,-1.4457957,9.38978723050705,2.115296235372271,walk
10/07/2020, 15:05:42,-9.997213,-3.8404803,1.1365907,0.6691689,-0.63619894,-1.7889278,10.769651927896534,2.0131564126137196,walk
10/07/2020, 15:05:42,-9.997213,-3.8404803,1.1365907,0.51775116,-0.6032289,-1.8048023,10.769651927896534,1.9721213795460861,walk
10/07/2020, 15:05:42,-9.403793,-3.7328033,1.2418749,0.51775116,-0.6032289,-1.8048023,10.193498086862741,1.9721213795460861,walk
10/07/2020, 15:05:42,-9.403793,-3.7328033,1.2418749,0.36755446,-0.5580478,-1.8377723,10.193498086862741,1.9554847063738037,walk
10/07/2020, 15:05:42,-8.863015,-3.6490545,1.3328022,0.36755446,-0.5580478,-1.8377723,9.677034596125015,1.9554847063738037,walk
10/07/2020, 15:05:42,-8.863015,-3.6490545,1.3328022,0.22590557,-0.5043189,-1.8780689,9.677034596125015,1.957680707951463,walk
10/07/2020, 15:05:42,-8.453842,-3.5557344,1.3663018,0.22590557,-0.5043189,-1.8780689,9.272403946843585,1.957680707951463,walk
10/07/2020, 15:05:42,-8.453842,-3.5557344,1.3663018,0.09036223,-0.45303226,-1.9354612,9.272403946843585,1.9898274980649073,walk
10/07/2020, 15:05:42,-8.128419,-3.4576287,1.3998013,0.09036223,-0.45303226,-1.9354612,8.94347997948126,1.9898274980649073,walk
10/07/2020, 15:05:42,-8.128419,-3.4576287,1.3998013,-0.04029667,-0.4041878,-1.9965167,8.94347997948126,2.037417617882458,walk
10/07/2020, 15:05:42,-7.893922,-3.3810585,1.3447664,-0.04029667,-0.4041878,-1.9965167,8.69217781068521,2.037417617882458,walk
10/07/2020, 15:05:42,-7.893922,-3.3810585,1.3447664,-0.1526389,-0.3492378,-2.0600145,8.69217781068521,2.094976218835971,walk
10/07/2020, 15:05:42,-7.7096744,-3.3260236,1.268196,-0.1526389,-0.3492378,-2.0600145,8.49175085707143,2.094976218835971,walk
10/07/2020, 15:05:42,-7.7096744,-3.3260236,1.268196,-0.24178001,-0.2845189,-2.1174068,8.49175085707143,2.1500744929679,walk
10/07/2020, 15:05:42,-7.580462,-3.2709885,1.119841,-0.24178001,-0.2845189,-2.1174068,8.331675291753774,2.1500744929679,walk
10/07/2020, 15:05:42,-7.580462,-3.2709885,1.119841,-0.30649891,-0.21003112,-2.1821256,8.331675291753774,2.2135326185277706,walk
10/07/2020, 15:05:42,-7.470392,-3.2303107,0.96909314,-0.30649891,-0.21003112,-2.1821256,8.19638997540693,2.2135326185277706,walk
10/07/2020, 15:05:42,-7.470392,-3.2303107,0.96909314,-0.34313223,-0.12211112,-2.24196,8.19638997540693,2.2713510761173863,walk
10/07/2020, 15:05:42,-7.4416785,-3.2159536,0.7704889,-0.34313223,-0.12211112,-2.24196,8.143377058113552,2.2713510761173863,walk
10/07/2020, 15:05:42,-7.4416785,-3.2159536,0.7704889,-0.3504589,-0.026864445,-2.2956889,8.143377058113552,2.32244063622657,walk
10/07/2020, 15:05:43,-7.9633136,0.59342,3.8404803,0.04396,0.14409111,-0.17095557,8.860914153944305,0.22786078509590985,walk
10/07/2020, 15:05:43,-7.9800634,0.5814559,3.830909,0.04396,0.14409111,-0.17095557,8.871040936696241,0.22786078509590985,walk
10/07/2020, 15:05:43,-7.9800634,0.5814559,3.830909,0.054950003,0.11600556,-0.20026223,8.871040936696241,0.2378691982330858,walk
10/07/2020, 15:05:43,-7.9154572,0.6891329,3.7734814,0.054950003,0.11600556,-0.20026223,8.79593822691795,0.2378691982330858,walk
10/07/2020, 15:05:43,-7.9154572,0.6891329,3.7734814,0.028085556,0.09402556,-0.23201112,8.79593822691795,0.2519102344454331,walk
10/07/2020, 15:05:43,-7.908279,0.849452,3.7136607,0.028085556,0.09402556,-0.23201112,8.77802486208577,0.2519102344454331,walk
10/07/2020, 15:05:43,-7.908279,0.849452,3.7136607,-0.013432222,0.07204556,-0.2625389,8.77802486208577,0.27257598230461866,walk
10/07/2020, 15:05:43,-7.999206,1.0935199,3.6203406,-0.013432222,0.07204556,-0.2625389,8.848160796102214,0.27257598230461866,walk
10/07/2020, 15:05:43,-7.999206,1.0935199,3.6203406,-0.06716111,0.046402223,-0.30405667,8.848160796102214,0.3148241455017931,walk
10/07/2020, 15:05:43,-8.142776,1.2969099,3.5653057,-0.06716111,0.046402223,-0.30405667,8.983216216349604,0.3148241455017931,walk
10/07/2020, 15:05:43,-8.142776,1.2969099,3.5653057,-0.14042778,0.02198,-0.34191114,8.983216216349604,0.3702786901511282,walk
10/07/2020, 15:05:43,-8.305488,1.4548361,3.546163,-0.14042778,0.02198,-0.34191114,9.147291707842568,0.3702786901511282,walk
10/07/2020, 15:05:43,-8.305488,1.4548361,3.546163,-0.2283478,-0.008547778,-0.38465002,9.147291707842568,0.4474052061008557,walk
10/07/2020, 15:05:43,-8.410771,1.5194423,3.481557,-0.2283478,-0.008547778,-0.38465002,9.228814571530734,0.4474052061008557,walk
10/07/2020, 15:05:43,-8.410771,1.5194423,3.481557,-0.34801668,-0.03174889,-0.42006224,9.228814571530734,0.5464209823171399,walk
10/07/2020, 15:05:43,-8.477771,1.4763715,3.3930225,-0.34801668,-0.03174889,-0.42006224,9.25012825053037,0.5464209823171399,walk
10/07/2020, 15:05:43,-8.477771,1.4763715,3.3930225,-0.48600224,-0.03052778,-0.44204223,9.25012825053037,0.6576712353513637,walk
10/07/2020, 15:05:43,-8.669196,1.3686945,3.2973096,-0.48600224,-0.03052778,-0.44204223,9.37552863135892,0.6576712353513637,walk
10/07/2020, 15:05:43,-8.669196,1.3686945,3.2973096,-0.6056711,-0.013432222,-0.45791668,9.37552863135892,0.7594113499667093,walk
10/07/2020, 15:05:43,-9.099904,1.0935199,3.2350962,-0.6056711,-0.013432222,-0.45791668,9.719562092225287,0.7594113499667093,walk
10/07/2020, 15:05:44,-7.5637126,-3.9960139,1.4452649,-0.5421733,-0.28085557,2.9929435,8.675636340322935,3.05459370625042,walk
10/07/2020, 15:05:44,-7.5637126,-3.9960139,1.4452649,-0.6288723,-0.2759711,3.1895423,8.675636340322935,3.262640102302935,walk
10/07/2020, 15:05:44,-8.0614195,-3.979264,1.2634103,-0.6288723,-0.2759711,3.1895423,9.078393688040574,3.262640102302935,walk
10/07/2020, 15:05:44,-8.0614195,-3.979264,1.2634103,-0.76075226,-0.25765446,3.3898046,9.078393688040574,3.4836625926615716,walk
10/07/2020, 15:05:44,-8.702696,-3.9074793,1.0336994,-0.76075226,-0.25765446,3.3898046,9.595511648962598,3.4836625926615716,walk
10/07/2020, 15:05:44,-8.702696,-3.9074793,1.0336994,-0.9414767,-0.23933779,3.590067,9.595511648962598,3.7191721356746994,walk
10/07/2020, 15:05:44,-9.523434,-3.8524444,0.79920274,-0.9414767,-0.23933779,3.590067,10.304166250256605,3.7191721356746994,walk
10/07/2020, 15:05:44,-9.523434,-3.8524444,0.79920274,-1.1832567,-0.23689556,3.7952135,10.304166250256605,3.982444129712206,walk
10/07/2020, 15:05:44,-10.561919,-3.8380876,0.6197411,-1.1832567,-0.23689556,3.7952135,11.254738227323802,3.982444129712206,walk
10/07/2020, 15:05:44,-10.561919,-3.8380876,0.6197411,-1.4702178,-0.27841336,3.98937,11.254738227323802,4.260766163756232,walk
10/07/2020, 15:05:44,-11.760723,-3.8907297,0.51206404,-1.4702178,-0.27841336,3.98937,12.39816902116003,4.260766163756232,walk
10/07/2020, 15:05:44,-11.760723,-3.8907297,0.51206404,-1.7962545,-0.34191114,4.152999,12.39816902116003,4.537712372498666,walk
10/07/2020, 15:05:44,-12.935599,-4.024728,0.3278167,-1.7962545,-0.34191114,4.152999,13.551222371889477,4.537712372498666,walk
10/07/2020, 15:05:44,-12.935599,-4.024728,0.3278167,-2.122291,-0.43105224,4.2799945,13.551222371889477,4.79669451910294,walk
10/07/2020, 15:05:44,-13.914264,-4.2185464,0.148355,-2.122291,-0.43105224,4.2799945,14.540456590970578,4.79669451910294,walk
10/07/2020, 15:05:44,-13.914264,-4.2185464,0.148355,-2.4214635,-0.5287411,4.3886733,14.540456590970578,5.040189082464369,walk
10/07/2020, 15:05:44,-14.550755,-4.4339004,0.043070808,-2.4214635,-0.5287411,4.3886733,15.211370265513473,5.040189082464369,walk
10/07/2020, 15:05:44,-14.550755,-4.4339004,0.043070808,-2.6827812,-0.6191034,4.4753723,15.211370265513473,5.2544801274648485,walk
10/07/2020, 15:05:44,-14.928821,-4.7018967,0.023928227,-2.6827812,-0.6191034,4.4753723,15.651775926030005,5.2544801274648485,walk
10/07/2020, 15:05:44,-14.928821,-4.7018967,0.023928227,-2.9025812,-0.6777167,4.535207,15.651775926030005,5.427004539176244,walk
10/07/2020, 15:05:45,-6.936793,-3.3427732,0.1363909,-0.7631945,0.48966557,0.9194967,7.701417414171943,1.2913994054326443,walk
10/07/2020, 15:05:45,-7.259824,-3.5198421,0.36131623,-0.7631945,0.48966557,0.9194967,8.076192157257227,1.2913994054326443,walk
10/07/2020, 15:05:45,-7.259824,-3.5198421,0.36131623,-0.6655056,0.57270116,1.1173167,8.076192157257227,1.4210140608664021,walk
10/07/2020, 15:05:45,-7.5637126,-3.6370904,0.57427746,-0.6655056,0.57270116,1.1173167,8.412370043695882,1.4210140608664021,walk
10/07/2020, 15:05:45,-7.5637126,-3.6370904,0.57427746,-0.59468114,0.6459678,1.2772822,8.412370043695882,1.5499580488078282,walk
10/07/2020, 15:05:45,-7.853244,-3.7280176,0.83988076,-0.59468114,0.6459678,1.2772822,8.733667803932308,1.5499580488078282,walk
10/07/2020, 15:05:45,-7.853244,-3.7280176,0.83988076,-0.51653004,0.7167922,1.416489,8.733667803932308,1.6694416658289994,walk
10/07/2020, 15:05:45,-8.207381,-3.8261235,1.079163,-0.51653004,0.7167922,1.416489,9.119480275524376,1.6694416658289994,walk
10/07/2020, 15:05:45,-8.207381,-3.8261235,1.079163,-0.4273889,0.7778478,1.5398211,9.119480275524376,1.7772894210341454,walk
10/07/2020, 15:05:45,-8.595019,-3.9696927,1.3854443,-0.4273889,0.7778478,1.5398211,9.568295225115655,1.7772894210341454,walk
10/07/2020, 15:05:45,-8.595019,-3.9696927,1.3854443,-0.30283555,0.82791334,1.6668167,9.568295225115655,1.885584213765875,walk
10/07/2020, 15:05:45,-9.049655,-4.139583,1.6510476,-0.30283555,0.82791334,1.6668167,10.087534950305598,1.885584213765875,walk
10/07/2020, 15:05:45,-9.049655,-4.139583,1.6510476,-0.12455334,0.8865267,1.7986968,10.087534950305598,2.0091672782256618,walk
10/07/2020, 15:05:45,-9.516255,-4.3262234,1.8855443,-0.12455334,0.8865267,1.7986968,10.622175032322927,2.0091672782256618,walk
10/07/2020, 15:05:45,-9.516255,-4.3262234,1.8855443,0.09524667,0.95735115,1.9342401,10.622175032322927,2.1602957956321327,walk
10/07/2020, 15:05:45,-9.9756775,-4.4434714,2.0338993,0.09524667,0.95735115,1.9342401,11.108344887778053,2.1602957956321327,walk
10/07/2020, 15:05:45,-9.9756775,-4.4434714,2.0338993,0.31138334,1.0355023,2.0612357,11.108344887778053,2.3276419608317784,walk
10/07/2020, 15:05:45,-10.427921,-4.462614,2.0410776,0.31138334,1.0355023,2.0612357,11.524862888878213,2.3276419608317784,walk
10/07/2020, 15:05:45,-10.427921,-4.462614,2.0410776,0.47745445,1.1075479,2.2102113,11.524862888878213,2.517867937192222,walk
10/07/2020, 15:05:45,-10.829915,-4.398008,1.9645073,0.47745445,1.1075479,2.2102113,11.85279807619457,2.517867937192222,walk
10/07/2020, 15:05:46,-11.143375,-3.534199,1.0911272,0.0061055557,-0.61788225,-3.5534334,11.741206763915415,3.60675821381623,walk
10/07/2020, 15:05:46,-10.925629,-3.548556,0.94755775,0.0061055557,-0.61788225,-3.5534334,11.526468568756094,3.60675821381623,walk
10/07/2020, 15:05:46,-10.925629,-3.548556,0.94755775,-0.04396,-0.56171113,-3.5741923,11.526468568756094,3.61832867110182,walk
10/07/2020, 15:05:46,-10.803595,-3.586841,0.8063812,-0.04396,-0.56171113,-3.5741923,11.411982117588405,3.61832867110182,walk
10/07/2020, 15:05:46,-10.803595,-3.586841,0.8063812,-0.08425667,-0.50798225,-3.5815191,11.411982117588405,3.6183455353754934,walk
10/07/2020, 15:05:46,-10.679168,-3.5676985,0.72023964,-0.08425667,-0.50798225,-3.5815191,11.282368605576345,3.6183455353754934,walk
10/07/2020, 15:05:46,-10.679168,-3.5676985,0.72023964,-0.13676445,-0.44570556,-3.5754135,11.282368605576345,3.6056815462972285,walk
10/07/2020, 15:05:46,-10.614561,-3.5006995,0.6269195,-0.13676445,-0.44570556,-3.5754135,11.194500084436182,3.6056815462972285,walk
10/07/2020, 15:05:46,-10.614561,-3.5006995,0.6269195,-0.1965989,-0.3931978,-3.547328,11.194500084436182,3.5744638126937174,walk
10/07/2020, 15:05:46,-10.559526,-3.4576287,0.52163535,-0.1965989,-0.3931978,-3.547328,11.123439151906513,3.5744638126937174,walk
10/07/2020, 15:05:46,-10.559526,-3.4576287,0.52163535,-0.27230778,-0.34557447,-3.4911568,11.123439151906513,3.5187709728463394,walk
10/07/2020, 15:05:46,-10.502099,-3.3882368,0.45942193,-0.27230778,-0.34557447,-3.4911568,11.044695606851368,3.5187709728463394,walk
10/07/2020, 15:05:46,-10.502099,-3.3882368,0.45942193,-0.35168,-0.30772,-3.4117846,11.044695606851368,3.4436383262554333,walk
10/07/2020, 15:05:46,-10.439885,-3.330809,0.45224348,-0.35168,-0.30772,-3.4117846,10.967680486660088,3.4436383262554333,walk
10/07/2020, 15:05:46,-10.439885,-3.330809,0.45224348,-0.41273558,-0.28329778,-3.3006635,10.967680486660088,3.3384109454894135,walk
10/07/2020, 15:05:46,-10.315458,-3.2853456,0.45224348,-0.41273558,-0.28329778,-3.3006635,10.83543720697418,3.3384109454894135,walk
10/07/2020, 15:05:46,-10.315458,-3.2853456,0.45224348,-0.44326335,-0.25643334,-3.152909,10.83543720697418,3.1942253948823343,walk
10/07/2020, 15:05:46,-10.109675,-3.2614172,0.485743,-0.44326335,-0.25643334,-3.152909,10.633829268959857,3.1942253948823343,walk
10/07/2020, 15:05:46,-10.109675,-3.2614172,0.485743,-0.44082114,-0.24178001,-2.9831746,10.633829268959857,3.025245663254857,walk
10/07/2020, 15:05:46,-9.798609,-3.2231321,0.53359944,-0.44082114,-0.24178001,-2.9831746,10.328893606285865,3.025245663254857,walk
10/07/2020, 15:05:47,-11.10509,-4.922036,3.9673,0.23079,0.3724389,-1.1026634,12.778455928405764,1.186524898492851,walk
10/07/2020, 15:05:47,-11.10509,-4.922036,3.9673,0.35778558,0.27841336,-1.1539501,12.778455928405764,1.2398085907393313,walk
10/07/2020, 15:05:47,-11.382657,-5.139783,3.9577286,0.35778558,0.27841336,-1.1539501,13.101368849211005,1.2398085907393313,walk
10/07/2020, 15:05:47,-11.382657,-5.139783,3.9577286,0.43471557,0.17584,-1.2052367,13.101368849211005,1.2932489212074514,walk
10/07/2020, 15:05:47,-11.191232,-5.0679984,3.885944,0.43471557,0.17584,-1.2052367,12.885217707531282,1.2932489212074514,walk
10/07/2020, 15:05:47,-11.191232,-5.0679984,3.885944,0.4383789,0.085477784,-1.2504178,12.885217707531282,1.327790366663425,walk
10/07/2020, 15:05:47,-10.683953,-4.867001,3.7040894,0.4383789,0.085477784,-1.2504178,12.31076095913204,1.327790366663425,walk
10/07/2020, 15:05:47,-10.683953,-4.867001,3.7040894,0.37610224,0.025643334,-1.295599,12.31076095913204,1.349328426070059,walk
10/07/2020, 15:05:47,-10.243673,-4.6229334,3.4313076,0.37610224,0.025643334,-1.295599,11.750669249888054,1.349328426070059,walk
