DATE,TIME,ax,ay,az,gx,gy,gz,ma,mg,label
05/08/2020, 16:46:03,2.2971098,-1.7180467,9.442079,0.0024422223,-0.012211111,-0.02075889,9.868193658341363,0.024207585359351164,walk
05/08/2020, 16:46:03,2.2971098,-1.7180467,9.442079,-0.008547778,-0.0024422223,-0.023201112,9.868193658341363,0.024845936227819585,walk
05/08/2020, 16:46:03,2.3258235,-1.7180467,9.430114,-0.008547778,-0.0024422223,-0.023201112,9.863477360766465,0.024845936227819585,walk
05/08/2020, 16:46:03,2.3258235,-1.7180467,9.430114,-0.014653334,0.0024422223,-0.018316668,9.863477360766465,0.023583574114743804,walk
05/08/2020, 16:46:03,2.3306093,-1.7324036,9.410972,-0.014653334,0.0024422223,-0.018316668,9.848824772821079,0.023583574114743804,walk
05/08/2020, 16:46:03,2.3306093,-1.7324036,9.410972,-0.013432222,-0.0012211112,-0.01099,9.848824772821079,0.01739815561540819,walk
05/08/2020, 16:46:03,2.3138595,-1.753939,9.408579,-0.013432222,-0.0012211112,-0.01099,9.84640056805907,0.01739815561540819,walk
05/08/2020, 16:46:03,2.3138595,-1.753939,9.408579,0.015874445,-0.008547778,-0.018316668,9.84640056805907,0.02570141708413235,walk
05/08/2020, 16:46:03,2.3042881,-1.7754744,9.413364,0.015874445,-0.008547778,-0.018316668,9.852587621765055,0.02570141708413235,walk
05/08/2020, 16:46:03,2.3042881,-1.7754744,9.413364,0.015874445,-0.014653334,-0.014653334,9.852587621765055,0.026104375796152147,walk
05/08/2020, 16:46:03,2.3018954,-1.7563318,9.413364,0.015874445,-0.014653334,-0.014653334,9.848596512204702,0.026104375796152147,walk
05/08/2020, 16:46:03,2.3018954,-1.7563318,9.413364,0.008547778,-0.02075889,-0.025643334,9.848596512204702,0.034081909848718804,walk
05/08/2020, 16:46:03,2.306681,-1.7252251,9.401401,0.008547778,-0.02075889,-0.025643334,9.832777383582911,0.034081909848718804,walk
05/08/2020, 16:46:03,2.306681,-1.7252251,9.401401,-0.0024422223,-0.02075889,-0.035412222,9.832777383582911,0.04112081498857716,walk
05/08/2020, 16:46:03,2.306681,-1.7108682,9.396614,-0.0024422223,-0.02075889,-0.035412222,9.82569097101291,0.04112081498857716,walk
05/08/2020, 16:46:03,2.306681,-1.7108682,9.396614,-0.018316668,-0.014653334,-0.04396,9.82569097101291,0.04982672208947516,walk
05/08/2020, 16:46:03,2.3138595,-1.727618,9.410972,-0.018316668,-0.014653334,-0.04396,9.844033560117422,0.04982672208947516,walk
05/08/2020, 16:46:03,2.3138595,-1.727618,9.410972,-0.024422223,-0.019537779,-0.06105556,9.844033560117422,0.06859993528767784,walk
05/08/2020, 16:46:03,2.3114667,-1.7635103,9.41815,-0.024422223,-0.019537779,-0.06105556,9.856692927350814,0.06859993528767784,walk
05/08/2020, 16:46:03,2.3114667,-1.7635103,9.41815,-0.02075889,-0.024422223,-0.054950003,9.856692927350814,0.06361508662008758,walk
05/08/2020, 16:46:04,7.836494,-5.3742795,5.0799623,-3.3031056,0.18438779,-3.19809,10.774949390009056,4.601335192115782,walk
05/08/2020, 16:46:04,7.836494,-5.3742795,5.0799623,-3.1993113,0.17095557,-3.2982213,10.774949390009056,4.5981607620358345,walk
05/08/2020, 16:46:04,8.090134,-6.0418773,5.17089,-3.1993113,0.17095557,-3.2982213,11.344278098632774,4.5981607620358345,walk
05/08/2020, 16:46:04,8.090134,-6.0418773,5.17089,-3.053999,0.12089001,-3.382478,11.344278098632774,4.558802625111468,walk
05/08/2020, 16:46:04,8.274381,-6.556334,5.24746,-3.053999,0.12089001,-3.382478,11.789263197838796,4.558802625111468,walk
05/08/2020, 16:46:04,8.274381,-6.556334,5.24746,-2.942878,0.058613338,-3.4557445,11.789263197838796,4.5393982614440755,walk
05/08/2020, 16:46:04,8.41795,-6.762117,5.2929235,-2.942878,0.058613338,-3.4557445,12.025104594148102,4.5393982614440755,walk
05/08/2020, 16:46:04,8.41795,-6.762117,5.2929235,-2.9245613,0.02198,-3.52779,12.025104594148102,4.5824496147161895,walk
05/08/2020, 16:46:04,8.56152,-6.6352973,5.2546387,-2.9245613,0.02198,-3.52779,12.039020560750426,4.5824496147161895,walk
05/08/2020, 16:46:04,8.56152,-6.6352973,5.2546387,-3.0271347,0.04151778,-3.5973935,12.039020560750426,4.701755846748781,walk
05/08/2020, 16:46:04,8.71466,-6.3122663,5.144569,-3.0271347,0.04151778,-3.5973935,11.927136679530141,4.701755846748781,walk
05/08/2020, 16:46:04,8.71466,-6.3122663,5.144569,-3.217628,0.11600556,-3.6547856,11.927136679530141,4.870733545845005,walk
05/08/2020, 16:46:04,8.846265,-5.9342003,4.9938207,-3.217628,0.11600556,-3.6547856,11.764751570102538,4.870733545845005,walk
05/08/2020, 16:46:04,8.846265,-5.9342003,4.9938207,-3.4191113,0.23445335,-3.6828713,11.764751570102538,5.030788352278555,walk
05/08/2020, 16:46:04,8.977871,-5.6949177,4.8646083,-3.4191113,0.23445335,-3.6828713,11.691820551081424,5.030788352278555,walk
05/08/2020, 16:46:04,8.977871,-5.6949177,4.8646083,-3.5680869,0.39075556,-3.6914191,11.691820551081424,5.148835686159168,walk
05/08/2020, 16:46:04,9.066405,-5.663811,4.766503,-3.5680869,0.39075556,-3.6914191,11.704614981770643,5.148835686159168,walk
05/08/2020, 16:46:04,9.066405,-5.663811,4.766503,-3.602278,0.5189722,-3.6743236,11.704614981770643,5.171691456871774,walk
05/08/2020, 16:46:04,9.092726,-5.84088,4.6779685,-3.602278,0.5189722,-3.6743236,11.776116895910866,5.171691456871774,walk
05/08/2020, 16:46:04,9.092726,-5.84088,4.6779685,-3.54977,0.5873545,-3.6621125,11.776116895910866,5.133899194982197,walk
05/08/2020, 16:46:05,5.1924253,-3.723232,4.304688,-0.03174889,0.8975167,0.9597934,7.704159611593449,1.3144381375278764,walk
05/08/2020, 16:46:05,5.139783,-3.6801612,4.113262,-0.03174889,0.8975167,0.9597934,7.541875150438944,1.3144381375278764,walk
05/08/2020, 16:46:05,5.139783,-3.6801612,4.113262,-0.12211112,0.83890337,0.87920004,7.541875150438944,1.221336439360959,walk
05/08/2020, 16:46:05,5.0751767,-3.6777685,3.9050865,-0.12211112,0.83890337,0.87920004,7.38465302607343,1.221336439360959,walk
05/08/2020, 16:46:05,5.0751767,-3.6777685,3.9050865,-0.16973445,0.76441556,0.81448114,7.38465302607343,1.1298320497535372,walk
05/08/2020, 16:46:05,4.9603214,-3.694518,3.7208393,-0.16973445,0.76441556,0.81448114,7.217956593035774,1.1298320497535372,walk
05/08/2020, 16:46:05,4.9603214,-3.694518,3.7208393,-0.18072446,0.6691689,0.7619734,7.217956593035774,1.0300736699121278,walk
05/08/2020, 16:46:05,4.8191447,-3.7160535,3.586841,-0.18072446,0.6691689,0.7619734,7.063896836783355,1.0300736699121278,walk
05/08/2020, 16:46:05,4.8191447,-3.7160535,3.586841,-0.15996556,0.5568267,0.70336,7.063896836783355,0.9112410687557108,walk
05/08/2020, 16:46:05,4.6612186,-3.696911,3.5126636,-0.15996556,0.5568267,0.70336,6.9089012499970615,0.9112410687557108,walk
05/08/2020, 16:46:05,4.6612186,-3.696911,3.5126636,-0.11844778,0.42250445,0.65451556,6.9089012499970615,0.7879914436062798,walk
05/08/2020, 16:46:05,4.4817567,-3.6370904,3.507878,-0.11844778,0.42250445,0.65451556,6.754241513638769,0.7879914436062798,walk
05/08/2020, 16:46:05,4.4817567,-3.6370904,3.507878,-0.06105556,0.27108666,0.6105556,6.754241513638769,0.6708158374165676,walk
05/08/2020, 16:46:05,4.359723,-3.546163,3.5676985,-0.06105556,0.27108666,0.6105556,6.656645587021493,0.6708158374165676,walk
05/08/2020, 16:46:05,4.359723,-3.546163,3.5676985,0.0024422223,0.12455334,0.5690378,6.656645587021493,0.5825148157728786,walk
05/08/2020, 16:46:05,4.2855453,-3.414558,3.682554,0.0024422223,0.12455334,0.5690378,6.601992792638692,0.5825148157728786,walk
05/08/2020, 16:46:05,4.2855453,-3.414558,3.682554,0.07448778,-0.018316668,0.5189722,6.601992792638692,0.5246104204279888,walk
05/08/2020, 16:46:05,4.2831526,-3.278167,3.7830527,0.07448778,-0.018316668,0.5189722,6.588115251605178,0.5246104204279888,walk
05/08/2020, 16:46:05,4.2831526,-3.278167,3.7830527,0.14409111,-0.14042778,0.46646446,6.588115251605178,0.5080071887985069,walk
05/08/2020, 16:46:05,4.3334017,-3.199204,3.8787656,0.14409111,-0.14042778,0.46646446,6.637627482579954,0.5080071887985069,walk
05/08/2020, 16:46:06,8.087741,-4.0007997,6.63769,0.037854444,0.9524667,0.58613336,11.201646314337163,1.1190076587669855,walk
05/08/2020, 16:46:06,8.087741,-4.0007997,6.63769,-0.085477784,1.0977789,0.6838223,11.201646314337163,1.296162761195544,walk
05/08/2020, 16:46:06,8.295917,-4.1347976,6.4151573,-0.085477784,1.0977789,0.6838223,11.272667204902248,1.296162761195544,walk
05/08/2020, 16:46:06,8.295917,-4.1347976,6.4151573,-0.098910004,1.1783723,0.75953114,11.272667204902248,1.4054294483706038,walk
05/08/2020, 16:46:06,8.578269,-4.4315076,6.2285175,-0.098910004,1.1783723,0.75953114,11.489969071643985,1.4054294483706038,walk
05/08/2020, 16:46:06,8.578269,-4.4315076,6.2285175,0.01099,1.2125634,0.8181445,11.489969071643985,1.4628025128200477,walk
05/08/2020, 16:46:06,8.987442,-4.8765726,6.192625,0.01099,1.2125634,0.8181445,11.954232696818789,1.4628025128200477,walk
05/08/2020, 16:46:06,8.987442,-4.8765726,6.192625,0.18194556,1.240649,0.89385337,11.954232696818789,1.5398986758872186,walk
05/08/2020, 16:46:06,9.461221,-5.4149575,6.2548385,0.18194556,1.240649,0.89385337,12.568192675899304,1.5398986758872186,walk
05/08/2020, 16:46:06,9.461221,-5.4149575,6.2548385,0.3602278,1.2601867,0.97566783,12.568192675899304,1.6339407072618588,walk
05/08/2020, 16:46:06,9.963714,-5.8265233,6.3122663,0.3602278,1.2601867,0.97566783,13.155556616912953,1.6339407072618588,walk
05/08/2020, 16:46:06,9.963714,-5.8265233,6.3122663,0.5153089,1.3065889,1.05504,13.155556616912953,1.756652272854362,walk
05/08/2020, 16:46:06,10.461421,-6.0346985,6.314659,0.5153089,1.3065889,1.05504,13.628420129067209,1.756652272854362,walk
05/08/2020, 16:46:06,10.461421,-6.0346985,6.314659,0.6679478,1.4018356,1.1380756,13.628420129067209,1.9252307109372322,walk
05/08/2020, 16:46:06,10.951949,-6.175875,6.2955165,0.6679478,1.4018356,1.1380756,14.06129978805908,1.9252307109372322,walk
05/08/2020, 16:46:06,10.951949,-6.175875,6.2955165,0.8169234,1.5080723,1.1918045,14.06129978805908,2.0885506397040974,walk
05/08/2020, 16:46:06,11.423335,-6.4271216,6.216553,0.8169234,1.5080723,1.1918045,14.506757412941758,2.0885506397040974,walk
05/08/2020, 16:46:06,11.423335,-6.4271216,6.216553,0.9610145,1.5776756,1.27484,14.506757412941758,2.2445102237247223,walk
05/08/2020, 16:46:06,11.799008,-6.7334027,6.0418773,0.9610145,1.5776756,1.27484,14.868072899884504,2.2445102237247223,walk
05/08/2020, 16:46:06,11.799008,-6.7334027,6.0418773,1.0696933,1.6191934,1.3810767,14.868072899884504,2.3818908510197754,walk
05/08/2020, 16:46:07,7.3435726,-7.752745,5.407779,-0.7522045,0.4383789,-0.018316668,11.96984512082948,0.8708175106939432,walk
05/08/2020, 16:46:07,7.3435726,-7.752745,5.407779,-0.64108336,0.49577114,0.07448778,11.96984512082948,0.8138337219877436,walk
05/08/2020, 16:46:07,7.3627152,-7.877172,5.4293146,-0.64108336,0.49577114,0.07448778,12.072152730583323,0.8138337219877436,walk
05/08/2020, 16:46:07,7.3627152,-7.877172,5.4293146,-0.5287411,0.52141446,0.17584,12.072152730583323,0.7631251002272967,walk
05/08/2020, 16:46:07,7.2909307,-7.9680996,5.355137,-0.5287411,0.52141446,0.17584,12.055113986372874,0.7631251002272967,walk
05/08/2020, 16:46:07,7.2909307,-7.9680996,5.355137,-0.40785113,0.5140878,0.28574002,12.055113986372874,0.7157347023112224,walk
05/08/2020, 16:46:07,7.2526455,-8.109276,5.235496,-0.40785113,0.5140878,0.28574002,12.07359266164684,0.7157347023112224,walk
05/08/2020, 16:46:07,7.2526455,-8.109276,5.235496,-0.26864445,0.46402225,0.40174556,12.07359266164684,0.6699895390176215,walk
05/08/2020, 16:46:07,7.355537,-8.377272,5.1589255,-0.26864445,0.46402225,0.40174556,12.284018749385977,0.6699895390176215,walk
05/08/2020, 16:46:07,7.355537,-8.377272,5.1589255,-0.08425667,0.40052447,0.5287411,12.284018749385977,0.6686450544685038,walk
05/08/2020, 16:46:07,7.6570325,-8.750552,5.17089,-0.08425667,0.40052447,0.5287411,12.725581002298659,0.6686450544685038,walk
05/08/2020, 16:46:07,7.6570325,-8.750552,5.17089,0.17584,0.35168,0.6569578,12.725581002298659,0.7656318273414363,walk
05/08/2020, 16:46:07,8.130812,-9.162118,5.2905307,0.17584,0.35168,0.6569578,13.343321143169307,0.7656318273414363,walk
05/08/2020, 16:46:07,8.130812,-9.162118,5.2905307,0.5006556,0.33580557,0.76441556,13.343321143169307,0.9735258345387194,walk
05/08/2020, 16:46:07,8.662018,-9.521041,5.4029937,0.5006556,0.33580557,0.76441556,13.959696041878722,0.9735258345387194,walk
05/08/2020, 16:46:07,8.662018,-9.521041,5.4029937,0.8645467,0.3162678,0.86576784,13.959696041878722,1.2637326795415724,walk
05/08/2020, 16:46:07,9.15494,-9.772287,5.426922,0.8645467,0.3162678,0.86576784,14.448598587629137,1.2637326795415724,walk
05/08/2020, 16:46:07,9.15494,-9.772287,5.426922,1.2272167,0.2942878,0.95735115,14.448598587629137,1.5840414798198466,walk
05/08/2020, 16:46:07,9.590433,-9.946963,5.3790655,1.2272167,0.2942878,0.95735115,14.82743512338394,1.5840414798198466,walk
05/08/2020, 16:46:07,9.590433,-9.946963,5.3790655,1.5825601,0.28085557,1.064809,14.82743512338394,1.928002679354765,walk
05/08/2020, 16:46:08,11.827723,-5.7403817,6.15434,0.44082114,-2.6962135,-1.8792901,14.516297779606417,3.3159646746159126,walk
05/08/2020, 16:46:08,11.770294,-5.690132,6.364908,0.44082114,-2.6962135,-1.8792901,14.540615039194659,3.3159646746159126,walk
05/08/2020, 16:46:08,11.770294,-5.690132,6.364908,0.41273558,-2.6559167,-1.8377723,14.540615039194659,3.2560176554001248,walk
05/08/2020, 16:46:08,11.674582,-5.611169,6.4701924,0.41273558,-2.6559167,-1.8377723,14.479104252352847,3.2560176554001248,walk
05/08/2020, 16:46:08,11.674582,-5.611169,6.4701924,0.42006224,-2.6058512,-1.7950335,14.479104252352847,3.1920303461730577,walk
05/08/2020, 16:46:08,11.531013,-5.558527,6.4701924,0.42006224,-2.6058512,-1.7950335,14.343112023773559,3.1920303461730577,walk
05/08/2020, 16:46:08,11.531013,-5.558527,6.4701924,0.46035892,-2.5301423,-1.7559578,14.343112023773559,3.113990746718692,walk
05/08/2020, 16:46:08,11.339586,-5.548956,6.422336,0.46035892,-2.5301423,-1.7559578,14.16416355719484,3.113990746718692,walk
05/08/2020, 16:46:08,11.339586,-5.548956,6.422336,0.50798225,-2.449549,-1.7107767,14.16416355719484,3.0306918266594156,walk
05/08/2020, 16:46:08,11.126625,-5.515456,6.3744793,0.50798225,-2.449549,-1.7107767,13.9590840890959,3.0306918266594156,walk
05/08/2020, 16:46:08,11.126625,-5.515456,6.3744793,0.5507211,-2.383609,-1.669259,13.9590840890959,2.96163997190815,walk
05/08/2020, 16:46:08,10.908878,-5.453243,6.3338017,0.5507211,-2.383609,-1.669259,13.742580824108106,2.96163997190815,walk
05/08/2020, 16:46:08,10.908878,-5.453243,6.3338017,0.5922389,-2.3262167,-1.6314045,13.742580824108106,2.902328676732553,walk
05/08/2020, 16:46:08,10.722239,-5.369494,6.2811594,0.5922389,-2.3262167,-1.6314045,13.537016958821047,2.902328676732553,walk
05/08/2020, 16:46:08,10.722239,-5.369494,6.2811594,0.63619894,-2.2566135,-1.5923289,13.537016958821047,2.834177991990414,walk
05/08/2020, 16:46:08,10.566705,-5.319245,6.2931237,0.63619894,-2.2566135,-1.5923289,13.399739600231452,2.834177991990414,walk
05/08/2020, 16:46:08,10.566705,-5.319245,6.2931237,0.69237006,-2.1992211,-1.5581379,13.399739600231452,2.7827582699073723,walk
05/08/2020, 16:46:08,10.437492,-5.2809596,6.352944,0.69237006,-2.1992211,-1.5581379,13.311261304250074,2.7827582699073723,walk
05/08/2020, 16:46:08,10.437492,-5.2809596,6.352944,0.73633003,-2.1406078,-1.51662,13.311261304250074,2.7247972696107965,walk
05/08/2020, 16:46:08,10.291531,-5.204389,6.4343,0.73633003,-2.1406078,-1.51662,13.206115398819827,2.7247972696107965,walk
05/08/2020, 16:46:09,4.5391846,-2.7948167,2.6225336,-0.77296335,-0.9915423,0.52996224,5.940781043211078,1.3643637355336666,walk
05/08/2020, 16:46:09,4.5391846,-2.7948167,2.6225336,-0.8034911,-1.1124322,0.4701278,5.940781043211078,1.4505597556191068,walk
05/08/2020, 16:46:09,4.5487556,-2.8498518,2.7876384,-0.8034911,-1.1124322,0.4701278,6.048451162571973,1.4505597556191068,walk
05/08/2020, 16:46:09,4.5487556,-2.8498518,2.7876384,-0.78395337,-1.2369856,0.41884112,6.048451162571973,1.5232019095181974,walk
05/08/2020, 16:46:09,4.6325045,-2.9503503,3.0460632,-0.78395337,-1.2369856,0.41884112,6.280379393686844,1.5232019095181974,walk
05/08/2020, 16:46:09,4.6325045,-2.9503503,3.0460632,-0.67161113,-1.3993934,0.35778558,6.280379393686844,1.5929136923481606,walk
05/08/2020, 16:46:09,4.7952166,-3.0460632,3.3140593,-0.67161113,-1.3993934,0.35778558,6.576898322801875,1.5929136923481606,walk
05/08/2020, 16:46:09,4.7952166,-3.0460632,3.3140593,-0.48722336,-1.57157,0.27230778,6.576898322801875,1.6677441396360575,walk
05/08/2020, 16:46:09,5.046463,-3.1441689,3.6251264,-0.48722336,-1.57157,0.27230778,6.963772530662698,1.6677441396360575,walk
05/08/2020, 16:46:09,5.046463,-3.1441689,3.6251264,-0.27841336,-1.7400835,0.18438779,6.963772530662698,1.7718361343104723,walk
05/08/2020, 16:46:09,5.3814583,-3.2805598,3.9146578,-0.27841336,-1.7400835,0.18438779,7.419347116810059,1.7718361343104723,walk
05/08/2020, 16:46:09,5.3814583,-3.2805598,3.9146578,-0.089141116,-1.8829534,0.09036223,7.419347116810059,1.8872268007965876,walk
05/08/2020, 16:46:09,5.7834525,-3.3906298,4.1922255,-0.089141116,-1.8829534,0.09036223,7.906924019311479,1.8872268007965876,walk
05/08/2020, 16:46:09,5.7834525,-3.3906298,4.1922255,0.07693,-1.998959,0.0036633336,7.906924019311479,2.0004420786459765,walk
05/08/2020, 16:46:09,6.233303,-3.385844,4.4458647,0.07693,-1.998959,0.0036633336,8.371601963368686,2.0004420786459765,walk
05/08/2020, 16:46:09,6.233303,-3.385844,4.4458647,0.20514667,-2.1027534,-0.09768889,8.371601963368686,2.114994123009024,walk
05/08/2020, 16:46:09,6.6831536,-3.2709885,4.651647,0.20514667,-2.1027534,-0.09768889,8.77506288440151,2.114994123009024,walk
05/08/2020, 16:46:09,6.6831536,-3.2709885,4.651647,0.2735289,-2.1955578,-0.20026223,8.77506288440151,2.221575391516821,walk
05/08/2020, 16:46:09,7.133004,-3.1322048,4.7976093,0.2735289,-2.1955578,-0.20026223,9.149180879034255,2.221575391516821,walk
05/08/2020, 16:46:09,7.133004,-3.1322048,4.7976093,0.2625389,-2.2676034,-0.30894113,9.149180879034255,2.303561691431919,walk
05/08/2020, 16:46:10,11.52862,-7.475178,3.278167,1.6985656,1.1356333,1.5386001,14.125641057042028,2.5577487049872465,walk
05/08/2020, 16:46:10,11.542976,-7.420143,3.2063823,1.6985656,1.1356333,1.5386001,14.091831499773996,2.5577487049872465,walk
05/08/2020, 16:46:10,11.542976,-7.420143,3.2063823,1.6423945,1.1624979,1.5495901,14.091831499773996,2.539702868806284,walk
05/08/2020, 16:46:10,11.511869,-7.1784678,3.117848,1.6423945,1.1624979,1.5495901,13.920291400701009,2.539702868806284,walk
05/08/2020, 16:46:10,11.511869,-7.1784678,3.117848,1.526389,1.2003523,1.5825601,13.920291400701009,2.5050360096901834,walk
05/08/2020, 16:46:10,11.4018,-6.862615,3.0293136,1.526389,1.2003523,1.5825601,13.64819671558388,2.5050360096901834,walk
05/08/2020, 16:46:10,11.4018,-6.862615,3.0293136,1.3578756,1.2516389,1.6277412,13.64819671558388,2.461700121177667,walk
05/08/2020, 16:46:10,11.200803,-6.4821568,2.8809586,1.3578756,1.2516389,1.6277412,13.258064029787217,2.461700121177667,walk
05/08/2020, 16:46:10,11.200803,-6.4821568,2.8809586,1.1454023,1.3200212,1.691239,13.258064029787217,2.4320139088809385,walk
05/08/2020, 16:46:10,10.954342,-6.1208405,2.7637103,1.1454023,1.3200212,1.691239,12.849139646061062,2.4320139088809385,walk
05/08/2020, 16:46:10,10.954342,-6.1208405,2.7637103,0.9170545,1.3859612,1.7632846,12.849139646061062,2.423024915502817,walk
05/08/2020, 16:46:10,10.619347,-5.7834525,2.6249263,0.9170545,1.3859612,1.7632846,12.373725541769527,2.423024915502817,walk
05/08/2020, 16:46:10,10.619347,-5.7834525,2.6249263,0.6874856,1.4348056,1.8280034,12.373725541769527,2.423406707840672,walk
05/08/2020, 16:46:10,10.265209,-5.5513487,2.5603201,0.6874856,1.4348056,1.8280034,11.947687279488779,2.423406707840672,walk
05/08/2020, 16:46:10,10.265209,-5.5513487,2.5603201,0.4933289,1.4592278,1.8805112,11.947687279488779,2.4308519939586635,walk
05/08/2020, 16:46:10,9.875179,-5.369494,2.4909284,0.4933289,1.4592278,1.8805112,11.513268683428862,2.4308519939586635,walk
05/08/2020, 16:46:10,9.875179,-5.369494,2.4909284,0.34435335,1.460449,1.9293556,11.513268683428862,2.444157025649036,walk
05/08/2020, 16:46:10,9.549755,-5.2546387,2.4430718,0.34435335,1.460449,1.9293556,11.170391667259489,2.444157025649036,walk
05/08/2020, 16:46:10,9.549755,-5.2546387,2.4430718,0.21735778,1.4274789,1.9525567,11.170391667259489,2.4284600521179667,walk
05/08/2020, 16:46:10,9.272188,-5.1206403,2.5004997,0.21735778,1.4274789,1.9525567,10.883332646770986,2.4284600521179667,walk
05/08/2020, 16:46:11,10.19821,-8.2456665,5.426922,2.1454923,0.7570889,1.0049745,14.193166636138892,2.4872262846950073,walk
05/08/2020, 16:46:11,10.19821,-8.2456665,5.426922,2.2529502,0.8584412,1.1478444,14.193166636138892,2.670253294878697,walk
05/08/2020, 16:46:11,9.994821,-7.585248,5.0081778,2.2529502,0.8584412,1.1478444,13.509784243013103,2.670253294878697,walk
05/08/2020, 16:46:11,9.994821,-7.585248,5.0081778,2.1699145,0.97688895,1.2882723,13.509784243013103,2.7060092974216245,walk
05/08/2020, 16:46:11,9.784252,-6.876972,4.551149,2.1699145,0.97688895,1.2882723,12.795987391108392,2.7060092974216245,walk
05/08/2020, 16:46:11,9.784252,-6.876972,4.551149,1.922029,1.1234223,1.4299212,12.795987391108392,2.645930390053164,walk
05/08/2020, 16:46:11,9.611969,-6.2404814,4.1515474,1.922029,1.1234223,1.4299212,12.188884355686799,2.645930390053164,walk
05/08/2020, 16:46:11,9.611969,-6.2404814,4.1515474,1.5862234,1.2699556,1.5618012,12.188884355686799,2.562833363352079,walk
05/08/2020, 16:46:11,9.420543,-5.6853466,3.871587,1.5862234,1.2699556,1.5618012,11.664432145470425,2.562833363352079,walk
05/08/2020, 16:46:11,9.420543,-5.6853466,3.871587,1.2211112,1.3871822,1.6887968,11.664432145470425,2.5034818867194617,walk
05/08/2020, 16:46:11,9.243474,-5.3216376,3.694518,1.2211112,1.3871822,1.6887968,11.28765266535724,2.5034818867194617,walk
05/08/2020, 16:46:11,9.243474,-5.3216376,3.694518,0.86943114,1.4641123,1.8145711,11.28765266535724,2.4884138939492426,walk
05/08/2020, 16:46:11,9.140582,-5.180461,3.5820556,0.86943114,1.4641123,1.8145711,11.10038460547494,2.4884138939492426,walk
05/08/2020, 16:46:11,9.140582,-5.180461,3.5820556,0.5836911,1.4897556,1.9159234,11.10038460547494,2.496162949861528,walk
05/08/2020, 16:46:11,9.150154,-5.209175,3.6011982,0.5836911,1.4897556,1.9159234,11.127868352959043,2.496162949861528,walk
05/08/2020, 16:46:11,9.150154,-5.209175,3.6011982,0.39075556,1.4897556,1.9952956,11.127868352959043,2.5205686770163687,walk
05/08/2020, 16:46:11,9.245867,-5.426922,3.5796626,0.39075556,1.4897556,1.9952956,11.30272167180356,2.5205686770163687,walk
05/08/2020, 16:46:11,9.245867,-5.426922,3.5796626,0.28329778,1.4592278,2.052688,11.30272167180356,2.5343896603494858,walk
05/08/2020, 16:46:11,9.348758,-5.615955,3.5676985,0.28329778,1.4592278,2.052688,11.474610797604191,2.5343896603494858,walk
05/08/2020, 16:46:11,9.348758,-5.615955,3.5676985,0.2515489,1.4238156,2.0807734,11.474610797604191,2.5338005992594304,walk
05/08/2020, 16:46:12,8.874979,-6.2213387,3.845266,-0.9072856,-0.62643003,-1.3420012,11.500277380489022,1.736821497988542,walk
05/08/2020, 16:46:12,8.874979,-6.2213387,3.845266,-0.9292656,-0.58124894,-1.3188001,11.500277380489022,1.7148231980336055,walk
05/08/2020, 16:46:12,8.7673025,-6.2524457,3.8739798,-0.9292656,-0.58124894,-1.3188001,11.444054792975138,1.7148231980336055,walk
05/08/2020, 16:46:12,8.7673025,-6.2524457,3.8739798,-0.9512456,-0.53484666,-1.2907145,11.444054792975138,1.6902287072458588,walk
05/08/2020, 16:46:12,8.685946,-6.2931237,3.885944,-0.9512456,-0.53484666,-1.2907145,11.408314164654213,1.6902287072458588,walk
05/08/2020, 16:46:12,8.685946,-6.2931237,3.885944,-0.96712005,-0.49577114,-1.24187,11.408314164654213,1.6502579880792965,walk
05/08/2020, 16:46:12,8.585447,-6.3338017,3.8787656,-0.96712005,-0.49577114,-1.24187,11.352170389282886,1.6502579880792965,walk
05/08/2020, 16:46:12,8.585447,-6.3338017,3.8787656,-0.97811,-0.45547447,-1.1844778,11.352170389282886,1.6022309023949772,walk
05/08/2020, 16:46:12,8.449057,-6.314659,3.8931224,-0.97811,-0.45547447,-1.1844778,11.243570604320274,1.6022309023949772,walk
05/08/2020, 16:46:12,8.449057,-6.314659,3.8931224,-0.99398446,-0.39808223,-1.1222012,11.243570604320274,1.5510674100025679,walk
05/08/2020, 16:46:12,8.329415,-6.2668023,3.8907297,-0.99398446,-0.39808223,-1.1222012,11.126084132882754,1.5510674100025679,walk
05/08/2020, 16:46:12,8.329415,-6.2668023,3.8907297,-1.020849,-0.33214223,-1.0513767,11.126084132882754,1.5026124214143386,walk
05/08/2020, 16:46:12,8.152347,-6.2380886,3.885944,-1.020849,-0.33214223,-1.0513767,10.976113367587441,1.5026124214143386,walk
05/08/2020, 16:46:12,8.152347,-6.2380886,3.885944,-1.0587034,-0.27963445,-0.9829945,10.976113367587441,1.4715048559319985,walk
05/08/2020, 16:46:12,8.008778,-6.175875,3.885944,-1.0587034,-0.27963445,-0.9829945,10.834321076043077,1.4715048559319985,walk
05/08/2020, 16:46:12,8.008778,-6.175875,3.885944,-1.0941156,-0.22712667,-0.9072856,10.834321076043077,1.4393896664204229,walk
05/08/2020, 16:46:12,7.7910304,-6.1064835,3.8668015,-1.0941156,-0.22712667,-0.9072856,10.627391443140818,1.4393896664204229,walk
05/08/2020, 16:46:12,7.7910304,-6.1064835,3.8668015,-1.1185378,-0.18072446,-0.82913446,10.627391443140818,1.4040128427282887,walk
05/08/2020, 16:46:12,7.5613194,-6.053841,3.8213377,-1.1185378,-0.18072446,-0.82913446,10.412740483728042,1.4040128427282887,walk
05/08/2020, 16:46:12,7.5613194,-6.053841,3.8213377,-1.1295278,-0.14042778,-0.7522045,10.412740483728042,1.3643183668033003,walk
05/08/2020, 16:46:13,8.015956,-3.5820556,2.3353949,-0.6789378,-1.2565234,-2.3420913,9.08519348376667,2.743209665340237,walk
05/08/2020, 16:46:13,8.427522,-3.7974095,2.3353949,-0.6789378,-1.2565234,-2.3420913,9.534018587148681,2.743209665340237,walk
05/08/2020, 16:46:13,8.427522,-3.7974095,2.3353949,-0.7522045,-1.2907145,-2.3811667,9.534018587148681,2.8109981038220564,walk
05/08/2020, 16:46:13,8.827123,-3.993621,2.3138595,-0.7522045,-1.2907145,-2.3811667,9.960976365047882,2.8109981038220564,walk
05/08/2020, 16:46:13,8.827123,-3.993621,2.3138595,-0.85722005,-1.3041468,-2.4178002,9.960976365047882,2.877739174911511,walk
05/08/2020, 16:46:13,9.250652,-4.101298,2.2827528,-0.85722005,-1.3041468,-2.4178002,10.373339503119803,2.877739174911511,walk
05/08/2020, 16:46:13,9.250652,-4.101298,2.2827528,-0.9952056,-1.2785034,-2.4410012,10.373339503119803,2.9297596972945437,walk
05/08/2020, 16:46:13,9.638289,-4.1467614,2.2827528,-0.9952056,-1.2785034,-2.4410012,10.737933410750136,2.9297596972945437,walk
05/08/2020, 16:46:13,9.638289,-4.1467614,2.2827528,-1.1417389,-1.2259957,-2.4532123,10.737933410750136,2.970670539291574,walk
05/08/2020, 16:46:13,9.954143,-4.1898327,2.2205393,-1.1417389,-1.2259957,-2.4532123,11.02589892863291,2.970670539291574,walk
05/08/2020, 16:46:13,9.954143,-4.1898327,2.2205393,-1.2931567,-1.174709,-2.4800768,11.02589892863291,3.033640781654108,walk
05/08/2020, 16:46:13,10.246066,-4.342973,2.210968,-1.2931567,-1.174709,-2.4800768,11.34599781694852,3.033640781654108,walk
05/08/2020, 16:46:13,10.246066,-4.342973,2.210968,-1.4396901,-1.1331911,-2.5008357,11.34599781694852,3.100162688381237,walk
05/08/2020, 16:46:13,10.480563,-4.534399,2.158326,-1.4396901,-1.1331911,-2.5008357,11.621589803142918,3.100162688381237,walk
05/08/2020, 16:46:13,10.480563,-4.534399,2.158326,-1.5776756,-1.0941156,-2.5179312,11.621589803142918,3.1664059848505586,walk
05/08/2020, 16:46:13,10.722239,-4.7784667,2.1655045,-1.5776756,-1.0941156,-2.5179312,11.936898796885322,3.1664059848505586,walk
05/08/2020, 16:46:13,10.722239,-4.7784667,2.1655045,-1.7339778,-1.053819,-2.5399113,11.936898796885322,3.2509018153702365,walk
05/08/2020, 16:46:13,11.009377,-4.9722853,2.1678972,-1.7339778,-1.053819,-2.5399113,12.273132064692309,3.2509018153702365,walk
05/08/2020, 16:46:13,11.009377,-4.9722853,2.1678972,-1.8963857,-1.0061955,-2.5582278,12.273132064692309,3.3396463053628818,walk
05/08/2020, 16:46:13,11.313266,-5.1613183,2.1080768,-1.8963857,-1.0061955,-2.5582278,12.612421556892427,3.3396463053628818,walk
05/08/2020, 16:46:14,10.695917,-4.699504,3.6921253,0.5360678,1.4091623,2.2346334,12.252337308302893,2.695680553283902,walk
05/08/2020, 16:46:14,10.695917,-4.699504,3.6921253,0.46768558,1.3981723,2.2016635,12.252337308302893,2.6497051930424877,walk
05/08/2020, 16:46:14,10.375279,-4.5678983,3.6466618,0.46768558,1.3981723,2.2016635,11.90841130447719,2.6497051930424877,walk
05/08/2020, 16:46:14,10.375279,-4.5678983,3.6466618,0.42372558,1.3627601,2.16503,11.90841130447719,2.5930702411215125,walk
05/08/2020, 16:46:14,10.057034,-4.438686,3.5724843,0.42372558,1.3627601,2.16503,11.558914300992155,2.5930702411215125,walk
05/08/2020, 16:46:14,10.057034,-4.438686,3.5724843,0.39930335,1.3041468,2.1235123,11.558914300992155,2.5237960108630975,walk
05/08/2020, 16:46:14,9.769895,-4.369294,3.438486,0.39930335,1.3041468,2.1235123,11.241208060618147,2.5237960108630975,walk
05/08/2020, 16:46:14,9.769895,-4.369294,3.438486,0.37732336,1.24187,2.064899,11.241208060618147,2.4389386779364925,walk
05/08/2020, 16:46:14,9.5353985,-4.26401,3.3762727,0.37732336,1.24187,2.064899,10.97746884800939,2.4389386779364925,walk
05/08/2020, 16:46:14,9.5353985,-4.26401,3.3762727,0.3602278,1.1905833,2.0209389,10.97746884800939,2.3730669400470323,walk
05/08/2020, 16:46:14,9.315259,-4.165904,3.249453,0.3602278,1.1905833,2.0209389,10.709236742803817,2.3730669400470323,walk
05/08/2020, 16:46:14,9.315259,-4.165904,3.249453,0.3394689,1.1466234,1.9623257,10.709236742803817,2.2979787669548215,walk
05/08/2020, 16:46:14,9.080762,-4.0558343,3.1226335,0.3394689,1.1466234,1.9623257,10.424052397216474,2.2979787669548215,walk
05/08/2020, 16:46:14,9.080762,-4.0558343,3.1226335,0.3284789,1.1136534,1.8841745,10.424052397216474,2.213195823072922,walk
05/08/2020, 16:46:14,8.817552,-3.940979,3.07717,0.3284789,1.1136534,1.8841745,10.136543124671633,2.213195823072922,walk
05/08/2020, 16:46:14,8.817552,-3.940979,3.07717,0.32237336,1.0745778,1.7999178,10.136543124671633,2.1209305028987933,walk
05/08/2020, 16:46:14,8.525627,-3.8500516,2.9886355,0.32237336,1.0745778,1.7999178,9.820445921595056,2.1209305028987933,walk
05/08/2020, 16:46:14,8.525627,-3.8500516,2.9886355,0.32359445,1.0355023,1.7181034,9.820445921595056,2.031959088056969,walk
05/08/2020, 16:46:14,8.193025,-3.7710886,2.9671001,0.32359445,1.0355023,1.7181034,9.494758826125192,2.031959088056969,walk
05/08/2020, 16:46:14,8.193025,-3.7710886,2.9671001,0.3260367,0.9842156,1.636289,9.494758826125192,1.937116929513259,walk
05/08/2020, 16:46:15,9.911072,-5.9653068,4.1084766,0.91583335,0.71435004,1.8145711,12.275740661757323,2.1544640049875228,walk
05/08/2020, 16:46:15,9.911072,-5.9653068,4.1084766,0.8950745,0.7448778,1.8585312,12.275740661757323,2.1932030580966195,walk
05/08/2020, 16:46:15,9.944571,-5.8337016,4.1467614,0.8950745,0.7448778,1.8585312,12.252436002133436,2.1932030580966195,walk
05/08/2020, 16:46:15,9.944571,-5.8337016,4.1467614,0.8413456,0.7656367,1.8988279,12.252436002133436,2.2135061317970752,walk
05/08/2020, 16:46:15,10.013963,-5.761917,4.17069,0.8413456,0.7656367,1.8988279,12.28306941594551,2.2135061317970752,walk
05/08/2020, 16:46:15,10.013963,-5.761917,4.17069,0.76075226,0.79128003,1.9354612,12.28306941594551,2.225056854423541,walk
05/08/2020, 16:46:15,10.126426,-5.723632,4.273581,0.76075226,0.79128003,1.9354612,12.392253821992758,2.225056854423541,walk
05/08/2020, 16:46:15,10.126426,-5.723632,4.273581,0.69237006,0.8266923,1.96721,12.392253821992758,2.2433706392670683,walk
05/08/2020, 16:46:15,10.241281,-5.7762737,4.3669014,0.69237006,0.8266923,1.96721,12.542686849810105,2.2433706392670683,walk
05/08/2020, 16:46:15,10.241281,-5.7762737,4.3669014,0.64841,0.85722005,1.9891901,12.542686849810105,2.2610039888910936,walk
05/08/2020, 16:46:15,10.3681,-5.85763,4.388437,0.64841,0.85722005,1.9891901,12.691245216642614,2.2610039888910936,walk
05/08/2020, 16:46:15,10.3681,-5.85763,4.388437,0.6252089,0.8853056,2.0172756,12.691245216642614,2.2899897151089963,walk
05/08/2020, 16:46:15,10.432707,-5.8935223,4.421936,0.6252089,0.8853056,2.0172756,12.77217658895306,2.2899897151089963,walk
05/08/2020, 16:46:15,10.432707,-5.8935223,4.421936,0.62154555,0.90118,2.042919,12.77217658895306,2.3177493468954045,walk
05/08/2020, 16:46:15,10.449456,-5.85763,4.436293,0.62154555,0.90118,2.042919,12.774335930770789,2.3177493468954045,walk
05/08/2020, 16:46:15,10.449456,-5.85763,4.436293,0.63742,0.90240115,2.067341,12.774335930770789,2.344041652398374,walk
05/08/2020, 16:46:15,10.451849,-5.831309,4.3908296,0.63742,0.90240115,2.067341,12.748517334942312,2.344041652398374,walk
05/08/2020, 16:46:15,10.451849,-5.831309,4.3908296,0.6789378,0.9072856,2.0917635,12.748517334942312,2.3789909959586986,walk
05/08/2020, 16:46:15,10.420743,-5.8073807,4.304688,0.6789378,0.9072856,2.0917635,12.682582281665209,2.3789909959586986,walk
05/08/2020, 16:46:15,10.420743,-5.8073807,4.304688,0.71801335,0.90362227,2.09909,12.682582281665209,2.39546563670021,walk
05/08/2020, 16:46:16,7.6570325,-5.802595,5.156533,-0.6752745,-0.19049335,-0.91217005,10.903673098644612,1.1507986609013554,walk
05/08/2020, 16:46:16,7.6570325,-5.802595,5.156533,-0.6252089,-0.16362889,-0.8034911,10.903673098644612,1.0311443028505551,walk
05/08/2020, 16:46:16,7.5062847,-5.7858453,5.1589255,-0.6252089,-0.16362889,-0.8034911,10.79049713694583,1.0311443028505551,walk
05/08/2020, 16:46:16,7.5062847,-5.7858453,5.1589255,-0.5653745,-0.13676445,-0.7082445,10.79049713694583,0.9164950129103643,walk
05/08/2020, 16:46:16,7.448857,-5.757131,5.1158547,-0.5653745,-0.13676445,-0.7082445,10.714569347580698,0.9164950129103643,walk
05/08/2020, 16:46:16,7.448857,-5.757131,5.1158547,-0.5140878,-0.09646778,-0.61788225,10.714569347580698,0.8095497337637676,walk
05/08/2020, 16:46:16,7.393822,-5.6853466,5.070391,-0.5140878,-0.09646778,-0.61788225,10.616055732890771,0.8095497337637676,walk
05/08/2020, 16:46:16,7.393822,-5.6853466,5.070391,-0.4701278,-0.03174889,-0.5336256,10.616055732890771,0.711887923748824,walk
05/08/2020, 16:46:16,7.3770723,-5.5944195,5.0081778,-0.4701278,-0.03174889,-0.5336256,10.526184968203902,0.711887923748824,walk
05/08/2020, 16:46:16,7.3770723,-5.5944195,5.0081778,-0.43227336,0.036633335,-0.4481478,10.526184968203902,0.6237296779760823,walk
05/08/2020, 16:46:16,7.314859,-5.5298133,4.95075,-0.43227336,0.036633335,-0.4481478,10.42093663053463,0.6237296779760823,walk
05/08/2020, 16:46:16,7.314859,-5.5298133,4.95075,-0.3931978,0.09524667,-0.3602278,10.42093663053463,0.5417014910790464,walk
05/08/2020, 16:46:16,7.1976104,-5.4843497,4.9172506,-0.3931978,0.09524667,-0.3602278,10.298691221819023,0.5417014910790464,walk
05/08/2020, 16:46:16,7.1976104,-5.4843497,4.9172506,-0.3492378,0.13920668,-0.27108666,10.298691221819023,0.4635013685746367,walk
05/08/2020, 16:46:16,7.097112,-5.4436717,4.912465,-0.3492378,0.13920668,-0.27108666,10.204649734652277,0.4635013685746367,walk
05/08/2020, 16:46:16,7.097112,-5.4436717,4.912465,-0.29673,0.16973445,-0.17584,10.204649734652277,0.3844192895845478,walk
05/08/2020, 16:46:16,7.0085773,-5.4053864,4.8358946,-0.29673,0.16973445,-0.17584,10.08584332176625,0.3844192895845478,walk
05/08/2020, 16:46:16,7.0085773,-5.4053864,4.8358946,-0.23933779,0.19537778,-0.08303556,10.08584332176625,0.31992179976486435,walk
05/08/2020, 16:46:16,7.0133634,-5.383851,4.752146,-0.23933779,0.19537778,-0.08303556,10.037729184142753,0.31992179976486435,walk
05/08/2020, 16:46:16,7.0133634,-5.383851,4.752146,-0.1965989,0.21980001,-0.007326667,10.037729184142753,0.2949861911913507,walk
05/08/2020, 16:46:17,9.932607,-4.6707897,3.5676985,0.06594,-1.7156612,-1.3188001,11.541292164635559,2.164965359842722,walk
05/08/2020, 16:46:17,10.025927,-4.6229334,3.6203406,0.06594,-1.7156612,-1.3188001,11.618846029255447,2.164965359842722,walk
05/08/2020, 16:46:17,10.025927,-4.6229334,3.6203406,0.013432222,-1.7303145,-1.350549,11.618846029255447,2.195028752513751,walk
05/08/2020, 16:46:17,10.169497,-4.601398,3.778267,0.013432222,-1.7303145,-1.350549,11.784176852571965,2.195028752513751,walk
05/08/2020, 16:46:17,10.169497,-4.601398,3.778267,-0.048844445,-1.7022289,-1.3908457,11.784176852571965,2.1987316026746306,walk
05/08/2020, 16:46:17,10.348958,-4.666004,3.9625144,-0.048844445,-1.7022289,-1.3908457,12.023894851322533,2.1987316026746306,walk
05/08/2020, 16:46:17,10.348958,-4.666004,3.9625144,-0.13798556,-1.6570479,-1.4543434,12.023894851322533,2.2090637125740473,walk
05/08/2020, 16:46:17,10.427921,-4.685147,4.0965123,-0.13798556,-1.6570479,-1.4543434,12.14386908383232,2.2090637125740473,walk
05/08/2020, 16:46:17,10.427921,-4.685147,4.0965123,-0.23933779,-1.6020979,-1.5324945,12.14386908383232,2.229919211159859,walk
05/08/2020, 16:46:17,10.427921,-4.651647,4.1491547,-0.23933779,-1.6020979,-1.5324945,12.148861988465153,2.229919211159859,walk
05/08/2020, 16:46:17,10.427921,-4.651647,4.1491547,-0.3614489,-1.5434844,-1.6020979,12.148861988465153,2.2538205661477524,walk
05/08/2020, 16:46:17,10.399207,-4.644469,4.2664027,-0.3614489,-1.5434844,-1.6020979,12.162104714814824,2.2538205661477524,walk
05/08/2020, 16:46:17,10.399207,-4.644469,4.2664027,-0.48966557,-1.5007457,-1.6546056,12.162104714814824,2.286860220428684,walk
05/08/2020, 16:46:17,10.339387,-4.6492543,4.371687,-0.48966557,-1.5007457,-1.6546056,12.150314181434824,2.286860220428684,walk
05/08/2020, 16:46:17,10.339387,-4.6492543,4.371687,-0.6239878,-1.4531223,-1.7022289,12.150314181434824,2.323469023902036,walk
05/08/2020, 16:46:17,10.301102,-4.6636114,4.486542,-0.6239878,-1.4531223,-1.7022289,12.165156326743697,2.323469023902036,walk
05/08/2020, 16:46:17,10.301102,-4.6636114,4.486542,-0.7558678,-1.40672,-1.7278723,12.165156326743697,2.3528153131428953,walk
05/08/2020, 16:46:17,10.262816,-4.6707897,4.5272202,-0.7558678,-1.40672,-1.7278723,12.150613187752231,2.3528153131428953,walk
05/08/2020, 16:46:17,10.262816,-4.6707897,4.5272202,-0.89385337,-1.3493278,-1.7584001,12.150613187752231,2.3899017155632416,walk
05/08/2020, 16:46:17,10.246066,-4.6325045,4.520042,-0.89385337,-1.3493278,-1.7584001,12.119106697921248,2.3899017155632416,walk
05/08/2020, 16:46:18,7.530213,-3.5557344,2.8977082,0.012211111,0.90118,1.0037534,8.817259539271777,1.3489979582371348,walk
05/08/2020, 16:46:18,7.3340015,-3.414558,2.9168508,0.012211111,0.90118,1.0037534,8.59969784986744,1.3489979582371348,walk
05/08/2020, 16:46:18,7.3340015,-3.414558,2.9168508,-0.018316668,0.83768225,0.94391894,8.59969784986744,1.2621529302103383,walk
05/08/2020, 16:46:18,7.135397,-3.2949169,2.8881369,-0.018316668,0.83768225,0.94391894,8.373273042936233,1.2621529302103383,walk
05/08/2020, 16:46:18,7.135397,-3.2949169,2.8881369,-0.06227667,0.7668578,0.87065226,8.373273042936233,1.16188838893945,walk
05/08/2020, 16:46:18,6.920043,-3.237489,2.8929226,-0.06227667,0.7668578,0.87065226,8.169291972665343,1.16188838893945,walk
05/08/2020, 16:46:18,6.920043,-3.237489,2.8929226,-0.08792,0.69114894,0.80593336,8.169291972665343,1.0653381408762383,walk
05/08/2020, 16:46:18,6.6855464,-3.1920254,2.8833513,-0.08792,0.69114894,0.80593336,7.949796966744899,1.0653381408762383,walk
05/08/2020, 16:46:18,6.6855464,-3.1920254,2.8833513,-0.11356334,0.6105556,0.7424356,7.949796966744899,0.9679283760763409,walk
05/08/2020, 16:46:18,6.463014,-3.141776,2.902494,-0.11356334,0.6105556,0.7424356,7.750211591275577,0.9679283760763409,walk
05/08/2020, 16:46:18,6.463014,-3.141776,2.902494,-0.13798556,0.5250778,0.67161113,7.750211591275577,0.8636018996960574,walk
05/08/2020, 16:46:18,6.24766,-3.1082766,2.9048867,-0.13798556,0.5250778,0.67161113,7.558637959550011,0.8636018996960574,walk
05/08/2020, 16:46:18,6.24766,-3.1082766,2.9048867,-0.15019667,0.43471557,0.6056711,7.558637959550011,0.760509143179341,walk
05/08/2020, 16:46:18,6.0514483,-3.0747771,2.8953154,-0.15019667,0.43471557,0.6056711,7.379507623603448,0.760509143179341,walk
05/08/2020, 16:46:18,6.0514483,-3.0747771,2.8953154,-0.14287001,0.34191114,0.5470578,7.379507623603448,0.6607475386401053,walk
05/08/2020, 16:46:18,5.9270215,-3.0699914,2.8809586,-0.14287001,0.34191114,0.5470578,7.270099930563396,0.6607475386401053,walk
05/08/2020, 16:46:18,5.9270215,-3.0699914,2.8809586,-0.12699556,0.24544334,0.47379112,7.270099930563396,0.5484964320951325,walk
05/08/2020, 16:46:18,5.8337016,-3.050849,2.8689942,-0.12699556,0.24544334,0.47379112,7.181286917353298,0.5484964320951325,walk
05/08/2020, 16:46:18,5.8337016,-3.050849,2.8689942,-0.11234222,0.1526389,0.38953447,7.181286917353298,0.4331933911515798,walk
05/08/2020, 16:46:18,5.7667027,-3.0364919,2.8905299,-0.11234222,0.1526389,0.38953447,7.129537523101596,0.4331933911515798,walk
05/08/2020, 16:46:19,10.552348,-6.2668023,4.290331,0.65329444,0.9292656,2.1406078,13.001223078057098,2.423330377489523,walk
05/08/2020, 16:46:19,10.552348,-6.2668023,4.290331,0.6459678,0.9524667,2.162588,13.001223078057098,2.449745615964415,walk
05/08/2020, 16:46:19,10.597812,-6.108876,4.26401,0.6459678,0.9524667,2.162588,12.95429513536417,2.449745615964415,walk
05/08/2020, 16:46:19,10.597812,-6.108876,4.26401,0.6142189,0.9964267,2.163809,12.95429513536417,2.4601220843464873,walk
05/08/2020, 16:46:19,10.578669,-5.95095,4.213761,0.6142189,0.9964267,2.163809,12.848261259441816,2.4601220843464873,walk
05/08/2020, 16:46:19,10.578669,-5.95095,4.213761,0.58124894,1.0318389,2.15404,12.848261259441816,2.4581355895655244,walk
05/08/2020, 16:46:19,10.427921,-5.8600225,4.1228333,0.58124894,1.0318389,2.15404,12.652239358622037,2.4581355895655244,walk
05/08/2020, 16:46:19,10.427921,-5.8600225,4.1228333,0.56049,1.0342811,2.1503768,12.652239358622037,2.4511235968477534,walk
05/08/2020, 16:46:19,10.255638,-5.8169518,4.0677986,0.56049,1.0342811,2.1503768,12.472450703479705,2.4511235968477534,walk
05/08/2020, 16:46:19,10.255638,-5.8169518,4.0677986,0.56293225,1.02207,2.1406078,12.472450703479705,2.4379749398478907,walk
05/08/2020, 16:46:19,10.068997,-5.7786665,4.0534415,0.56293225,1.02207,2.1406078,12.296669588510934,2.4379749398478907,walk
05/08/2020, 16:46:19,10.068997,-5.7786665,4.0534415,0.5885756,0.9964267,2.1259546,12.296669588510934,2.4205310348353453,walk
05/08/2020, 16:46:19,9.958928,-5.771488,4.113262,0.5885756,0.9964267,2.1259546,12.223307683321828,2.4205310348353453,walk
05/08/2020, 16:46:19,9.958928,-5.771488,4.113262,0.63009334,0.96956223,2.1039746,12.223307683321828,2.400786865048227,walk
05/08/2020, 16:46:19,9.853643,-5.761917,4.223332,0.63009334,0.96956223,2.1039746,12.17088780673909,2.400786865048227,walk
05/08/2020, 16:46:19,9.853643,-5.761917,4.223332,0.66428447,0.94880337,2.0893211,12.17088780673909,2.3888835239952715,walk
05/08/2020, 16:46:19,9.77468,-5.706882,4.342973,0.66428447,0.94880337,2.0893211,12.123295362682759,2.3888835239952715,walk
05/08/2020, 16:46:19,9.77468,-5.706882,4.342973,0.68626446,0.9317078,2.0685623,12.123295362682759,2.370229564359433,walk
05/08/2020, 16:46:19,9.712467,-5.6350975,4.347759,0.68626446,0.9317078,2.0685623,12.041152319633692,2.370229564359433,walk
05/08/2020, 16:46:19,9.712467,-5.6350975,4.347759,0.6874856,0.92560226,2.0355923,12.041152319633692,2.3394469514796725,walk
05/08/2020, 16:46:20,11.023734,-5.690132,4.199404,-1.1270856,-0.8095967,-2.1601458,13.09714889177507,2.5674887383702125,walk
05/08/2020, 16:46:20,11.023734,-5.690132,4.199404,-1.130749,-0.7546467,-2.1345024,13.09714889177507,2.5306492218172947,walk
05/08/2020, 16:46:20,10.973485,-5.6757755,4.2687955,-1.130749,-0.7546467,-2.1345024,13.071129089432436,2.5306492218172947,walk
05/08/2020, 16:46:20,10.973485,-5.6757755,4.2687955,-1.1344123,-0.70336,-2.1051955,13.071129089432436,2.4926802336290583,walk
05/08/2020, 16:46:20,10.899307,-5.6781683,4.2999024,-1.1344123,-0.70336,-2.1051955,13.020201793523075,2.4926802336290583,walk
05/08/2020, 16:46:20,10.899307,-5.6781683,4.2999024,-1.1356333,-0.6569578,-2.0734468,13.020201793523075,2.453658103691567,walk
05/08/2020, 16:46:20,10.80838,-5.651847,4.3645086,-1.1356333,-0.6569578,-2.0734468,12.954280750360605,2.453658103691567,walk
05/08/2020, 16:46:20,10.80838,-5.651847,4.3645086,-1.1441811,-0.6117767,-2.0404768,12.954280750360605,2.418050200721289,walk
05/08/2020, 16:46:20,10.703095,-5.613562,4.338187,-1.1441811,-0.6117767,-2.0404768,12.840880023589515,2.418050200721289,walk
05/08/2020, 16:46:20,10.703095,-5.613562,4.338187,-1.16494,-0.57270116,-1.9977379,12.840880023589515,2.382441703823641,walk
05/08/2020, 16:46:20,10.6815605,-5.503492,4.2999024,-1.16494,-0.57270116,-1.9977379,12.762183156002507,2.382441703823641,walk
05/08/2020, 16:46:20,10.6815605,-5.503492,4.2999024,-1.2247745,-0.5104245,-1.9696523,12.762183156002507,2.3748970198742243,walk
05/08/2020, 16:46:20,10.628919,-5.400601,4.2329035,-1.2247745,-0.5104245,-1.9696523,12.65139809220394,2.3748970198742243,walk
05/08/2020, 16:46:20,10.628919,-5.400601,4.2329035,-1.3029256,-0.42372558,-1.9415667,12.65139809220394,2.376308001977406,walk
05/08/2020, 16:46:20,10.5284195,-5.3072805,4.113262,-1.3029256,-0.42372558,-1.9415667,12.487344374318837,2.376308001977406,walk
05/08/2020, 16:46:20,10.5284195,-5.3072805,4.113262,-1.3859612,-0.3284789,-1.9171445,12.487344374318837,2.3883529771771466,walk
05/08/2020, 16:46:20,10.298709,-5.312066,3.9888353,-1.3859612,-0.3284789,-1.9171445,12.25529512812812,2.3883529771771466,walk
05/08/2020, 16:46:20,10.298709,-5.312066,3.9888353,-1.4335845,-0.24910668,-1.90127,12.25529512812812,2.394169219190436,walk
05/08/2020, 16:46:20,10.021141,-5.4029937,3.9314077,-1.4335845,-0.24910668,-1.90127,12.044566206808781,2.394169219190436,walk
05/08/2020, 16:46:20,10.021141,-5.4029937,3.9314077,-1.4299212,-0.19782001,-1.8719634,12.044566206808781,2.3639065451017243,walk
05/08/2020, 16:46:21,8.377272,-3.306881,2.4717858,0.045181114,-1.0269545,-1.5288311,9.339371869647431,1.8422816152384045,walk
05/08/2020, 16:46:21,8.544769,-3.4025939,2.4526432,0.045181114,-1.0269545,-1.5288311,9.518728146991409,1.8422816152384045,walk
05/08/2020, 16:46:21,8.544769,-3.4025939,2.4526432,0.057392225,-1.1014422,-1.5727912,9.518728146991409,1.9209739832868464,walk
05/08/2020, 16:46:21,8.702696,-3.4672,2.4646072,0.057392225,-1.1014422,-1.5727912,9.686726999463213,1.9209739832868464,walk
05/08/2020, 16:46:21,8.702696,-3.4672,2.4646072,0.07326667,-1.1783723,-1.6301835,9.686726999463213,2.0128157653159193,walk
05/08/2020, 16:46:21,8.896515,-3.5150564,2.495714,0.07326667,-1.1783723,-1.6301835,9.885959065576975,2.0128157653159193,walk
05/08/2020, 16:46:21,8.896515,-3.5150564,2.495714,0.09280445,-1.2540811,-1.6717012,9.885959065576975,2.091869265569973,walk
05/08/2020, 16:46:21,9.133404,-3.5796626,2.5316064,0.09280445,-1.2540811,-1.6717012,10.131242755587547,2.091869265569973,walk
05/08/2020, 16:46:21,9.133404,-3.5796626,2.5316064,0.10013112,-1.3224634,-1.7217667,10.131242755587547,2.1733421892491678,walk
05/08/2020, 16:46:21,9.425328,-3.6490545,2.6129622,0.10013112,-1.3224634,-1.7217667,10.439347841251243,2.1733421892491678,walk
05/08/2020, 16:46:21,9.425328,-3.6490545,2.6129622,0.10501556,-1.3749712,-1.7840434,10.439347841251243,2.2548580664422246,walk
05/08/2020, 16:46:21,9.724431,-3.7447674,2.6799614,0.10501556,-1.3749712,-1.7840434,10.759648480887355,2.2548580664422246,walk
05/08/2020, 16:46:21,9.724431,-3.7447674,2.6799614,0.07937223,-1.4225945,-1.8438779,10.759648480887355,2.3302276603679477,walk
05/08/2020, 16:46:21,9.930214,-3.885944,2.7302105,0.07937223,-1.4225945,-1.8438779,11.007441036902298,2.3302276603679477,walk
05/08/2020, 16:46:21,9.930214,-3.885944,2.7302105,-0.025643334,-1.4665545,-1.8951645,11.007441036902298,2.3964741165449395,walk
05/08/2020, 16:46:21,10.097712,-3.9984066,2.7828526,-0.025643334,-1.4665545,-1.8951645,11.211391680318172,2.3964741165449395,walk
05/08/2020, 16:46:21,10.097712,-3.9984066,2.7828526,-0.21613668,-1.5031879,-1.9256923,11.211391680318172,2.4524640307199954,walk
05/08/2020, 16:46:21,10.258031,-4.0390844,2.8905299,-0.21613668,-1.5031879,-1.9256923,11.397217369755577,2.4524640307199954,walk
05/08/2020, 16:46:21,10.258031,-4.0390844,2.8905299,-0.43105224,-1.526389,-1.9623257,11.397217369755577,2.5231709299440017,walk
05/08/2020, 16:46:21,10.468599,-4.0031924,2.9647074,-0.43105224,-1.526389,-1.9623257,11.59338652499657,2.5231709299440017,walk
05/08/2020, 16:46:22,5.5633125,-2.4526432,1.9477576,0.035412222,0.4933289,0.18072446,6.3843295997519505,0.5265821469943828,walk
05/08/2020, 16:46:22,5.5633125,-2.4526432,1.9477576,-0.04151778,0.41884112,0.08303556,6.3843295997519505,0.42900642974661585,walk
05/08/2020, 16:46:22,5.5226345,-2.469393,1.8687944,-0.04151778,0.41884112,0.08303556,6.331649580873507,0.42900642974661585,walk
05/08/2020, 16:46:22,5.5226345,-2.469393,1.8687944,-0.12089001,0.34191114,-0.013432222,6.331649580873507,0.36290225120247693,walk
05/08/2020, 16:46:22,5.501099,-2.4885356,1.8257236,-0.12089001,0.34191114,-0.013432222,6.307786291396099,0.36290225120247693,walk
05/08/2020, 16:46:22,5.501099,-2.4885356,1.8257236,-0.19782001,0.25887558,-0.09524667,6.307786291396099,0.33944255677614943,walk
05/08/2020, 16:46:22,5.5369916,-2.5339992,1.8017955,-0.19782001,0.25887558,-0.09524667,6.350267306733777,0.33944255677614943,walk
05/08/2020, 16:46:22,5.5369916,-2.5339992,1.8017955,-0.26376,0.17339778,-0.18316667,6.350267306733777,0.3649467851204213,walk
05/08/2020, 16:46:22,5.6183476,-2.5387847,1.7515461,-0.26376,0.17339778,-0.18316667,6.409303559839737,0.3649467851204213,walk
05/08/2020, 16:46:22,5.6183476,-2.5387847,1.7515461,-0.3162678,0.09036223,-0.26620224,6.409303559839737,0.4231480586359644,walk
05/08/2020, 16:46:22,5.7379885,-2.5339992,1.7467605,-0.3162678,0.09036223,-0.26620224,6.511285270560154,0.4231480586359644,walk
05/08/2020, 16:46:22,5.7379885,-2.5339992,1.7467605,-0.36877558,0.0048844446,-0.3492378,6.511285270560154,0.5079235417014268,walk
05/08/2020, 16:46:22,5.8743796,-2.5411777,1.7778672,-0.36877558,0.0048844446,-0.3492378,6.642795512685069,0.5079235417014268,walk
05/08/2020, 16:46:22,5.8743796,-2.5411777,1.7778672,-0.4151778,-0.07326667,-0.4371578,6.642795512685069,0.6073282101042398,walk
05/08/2020, 16:46:22,5.9653068,-2.57707,1.8185452,-0.4151778,-0.07326667,-0.4371578,6.747835299303716,0.6073282101042398,walk
05/08/2020, 16:46:22,5.9653068,-2.57707,1.8185452,-0.4566956,-0.15141778,-0.5128667,6.747835299303716,0.7032285752526384,walk
05/08/2020, 16:46:22,6.0227346,-2.6153553,1.8975084,-0.4566956,-0.15141778,-0.5128667,6.834760693076464,0.7032285752526384,walk
05/08/2020, 16:46:22,6.0227346,-2.6153553,1.8975084,-0.49455002,-0.24666445,-0.5836911,6.834760693076464,0.8038149017107605,walk
05/08/2020, 16:46:22,6.135197,-2.6249263,2.024328,-0.49455002,-0.24666445,-0.5836911,6.9734343246382275,0.8038149017107605,walk
05/08/2020, 16:46:22,6.135197,-2.6249263,2.024328,-0.5324045,-0.35290113,-0.64841,6.9734343246382275,0.9101809149880288,walk
05/08/2020, 16:46:23,11.873186,-4.398008,4.8095737,0.8413456,1.174709,2.426348,13.544261528687903,2.823998593329553,walk
05/08/2020, 16:46:23,11.944971,-4.347759,4.8598228,0.8413456,1.174709,2.426348,13.608938889425874,2.823998593329553,walk
05/08/2020, 16:46:23,11.944971,-4.347759,4.8598228,0.80471224,1.2101212,2.4300113,13.608938889425874,2.8314148011284104,walk
05/08/2020, 16:46:23,12.040684,-4.3669014,4.9052863,0.80471224,1.2101212,2.4300113,13.715309938179004,2.8314148011284104,walk
05/08/2020, 16:46:23,12.040684,-4.3669014,4.9052863,0.8315767,1.2284378,2.438559,13.715309938179004,2.8543211916664593,walk
05/08/2020, 16:46:23,12.078969,-4.412365,4.948357,0.8315767,1.2284378,2.438559,13.778849542853225,2.8543211916664593,walk
05/08/2020, 16:46:23,12.078969,-4.412365,4.948357,0.88896894,1.2162267,2.4568756,13.778849542853225,2.881962993035457,walk
05/08/2020, 16:46:23,12.131611,-4.421936,4.9459643,0.88896894,1.2162267,2.4568756,13.827221840477442,2.881962993035457,walk
05/08/2020, 16:46:23,12.131611,-4.421936,4.9459643,0.94758224,1.1979101,2.481298,13.827221840477442,2.913715885709199,walk
05/08/2020, 16:46:23,12.208181,-4.3836513,4.9459643,0.94758224,1.1979101,2.481298,13.882314439348656,2.913715885709199,walk
05/08/2020, 16:46:23,12.208181,-4.3836513,4.9459643,1.0013112,1.1979101,2.5118256,13.882314439348656,2.957512514510609,walk
05/08/2020, 16:46:23,12.30868,-4.304688,4.941179,1.0013112,1.1979101,2.5118256,13.944503559412377,2.957512514510609,walk
05/08/2020, 16:46:23,12.30868,-4.304688,4.941179,1.0306178,1.2040156,2.537469,13.944503559412377,2.9917511901376908,walk
05/08/2020, 16:46:23,12.399607,-4.1276193,4.95075,1.0306178,1.2040156,2.537469,13.97488502839472,2.9917511901376908,walk
05/08/2020, 16:46:23,12.399607,-4.1276193,4.95075,1.0293967,1.2150056,2.5570068,13.97488502839472,3.012337983134438,walk
05/08/2020, 16:46:23,12.497713,-4.0031924,4.989035,1.0293967,1.2150056,2.5570068,14.039546059909414,3.012337983134438,walk
05/08/2020, 16:46:23,12.497713,-4.0031924,4.989035,0.98910004,1.2382067,2.578987,14.039546059909414,3.026986648807187,walk
05/08/2020, 16:46:23,12.598211,-3.885944,4.9340005,0.98910004,1.2382067,2.578987,14.076926100457623,3.026986648807187,walk
05/08/2020, 16:46:23,12.598211,-3.885944,4.9340005,0.94391894,1.2699556,2.5850923,14.076926100457623,3.030919417935147,walk
05/08/2020, 16:46:23,12.64846,-3.818945,4.881358,0.94391894,1.2699556,2.5850923,14.085295450707743,3.030919417935147,walk
05/08/2020, 16:46:24,7.0085773,-5.608776,4.776074,0.17584,0.13554333,0.036633335,10.168058216412211,0.22501934007705632,walk
05/08/2020, 16:46:24,7.0348988,-5.6063833,4.7449675,0.17584,0.13554333,0.036633335,10.170351552860287,0.22501934007705632,walk
05/08/2020, 16:46:24,7.0348988,-5.6063833,4.7449675,0.28329778,0.14164889,0.13920668,10.170351552860287,0.34597765433679367,walk
05/08/2020, 16:46:24,7.125826,-5.505885,4.7401814,0.28329778,0.14164889,0.13920668,10.176516380503662,0.34597765433679367,walk
05/08/2020, 16:46:24,7.125826,-5.505885,4.7401814,0.35900667,0.16118668,0.24422224,10.176516380503662,0.4631537963331492,walk
05/08/2020, 16:46:24,7.2646093,-5.4221363,4.7210393,0.35900667,0.16118668,0.24422224,10.220681140364187,0.4631537963331492,walk
05/08/2020, 16:46:24,7.2646093,-5.4221363,4.7210393,0.40785113,0.19049335,0.33214223,10.220681140364187,0.5594181996944629,walk
05/08/2020, 16:46:24,7.4416785,-5.2977095,4.6612186,0.40785113,0.19049335,0.33214223,10.255304191990785,0.5594181996944629,walk
05/08/2020, 16:46:24,7.4416785,-5.2977095,4.6612186,0.43349445,0.23079,0.41762,10.255304191990785,0.6446610971054358,walk
05/08/2020, 16:46:24,7.597212,-5.1924253,4.6325045,0.43349445,0.23079,0.41762,10.302378623247915,0.6446610971054358,walk
05/08/2020, 16:46:24,7.597212,-5.1924253,4.6325045,0.45059,0.27719223,0.5030978,10.302378623247915,0.730050864709257,walk
05/08/2020, 16:46:24,7.786245,-5.13739,4.610969,0.45059,0.27719223,0.5030978,10.405739873446041,0.730050864709257,walk
05/08/2020, 16:46:24,7.786245,-5.13739,4.610969,0.46035892,0.32970002,0.58247,10.405739873446041,0.8123445936901004,walk
05/08/2020, 16:46:24,7.9130645,-5.087141,4.6325045,0.46035892,0.32970002,0.58247,10.485975919943883,0.8123445936901004,walk
05/08/2020, 16:46:24,7.9130645,-5.087141,4.6325045,0.47745445,0.3809867,0.67161113,10.485975919943883,0.907840913364081,walk
05/08/2020, 16:46:24,8.02792,-5.0512486,4.6803613,0.47745445,0.3809867,0.67161113,10.576785398520856,0.907840913364081,walk
05/08/2020, 16:46:24,8.02792,-5.0512486,4.6803613,0.5092034,0.41762,0.74976224,10.576785398520856,0.9979168080142976,walk
05/08/2020, 16:46:24,8.145168,-5.058427,4.718646,0.5092034,0.41762,0.74976224,10.68630289275625,0.9979168080142976,walk
05/08/2020, 16:46:24,8.145168,-5.058427,4.718646,0.5580478,0.45181113,0.8425667,10.68630289275625,1.107009172905861,walk
05/08/2020, 16:46:24,8.281559,-5.06082,4.792824,0.5580478,0.45181113,0.8425667,10.82438355385605,1.107009172905861,walk
05/08/2020, 16:46:25,10.913664,-4.113262,4.180261,-1.3346745,-1.1295278,-1.8487623,12.389574965660398,2.5446239355547555,walk
05/08/2020, 16:46:25,10.913664,-4.113262,4.180261,-1.32979,-1.0745778,-1.8976067,12.389574965660398,2.5542063745138983,walk
05/08/2020, 16:46:25,10.729417,-4.304688,4.074977,-1.32979,-1.0745778,-1.8976067,12.25790199695181,2.5542063745138983,walk
05/08/2020, 16:46:25,10.729417,-4.304688,4.074977,-1.2870512,-1.0599245,-1.9317979,12.25790199695181,2.55181968089084,walk
05/08/2020, 16:46:25,10.49492,-4.362116,4.0773697,-1.2870512,-1.0599245,-1.9317979,12.074615500640249,2.55181968089084,walk
05/08/2020, 16:46:25,10.49492,-4.362116,4.0773697,-1.21989,-1.0928944,-1.954999,12.074615500640249,2.5504060121886134,walk
05/08/2020, 16:46:25,10.336994,-4.362116,4.156333,-1.21989,-1.0928944,-1.954999,11.964807019960666,2.5504060121886134,walk
05/08/2020, 16:46:25,10.336994,-4.362116,4.156333,-1.1502867,-1.1246433,-1.95622,11.964807019960666,2.5327413710549482,walk
05/08/2020, 16:46:25,10.370493,-4.3764725,4.2831526,-1.1502867,-1.1246433,-1.95622,12.043505762551963,2.5327413710549482,walk
05/08/2020, 16:46:25,10.370493,-4.3764725,4.2831526,-1.0831256,-1.130749,-1.944009,12.043505762551963,2.4961821051931867,walk
05/08/2020, 16:46:25,10.463814,-4.4841495,4.412365,-1.0831256,-1.130749,-1.944009,12.209339037826513,2.4961821051931867,walk
05/08/2020, 16:46:25,10.463814,-4.4841495,4.412365,-0.9866578,-1.1087689,-1.9342401,12.209339037826513,2.43806212971064,walk
05/08/2020, 16:46:25,10.566705,-4.644469,4.5152564,-0.9866578,-1.1087689,-1.9342401,12.394106662659455,2.43806212971064,walk
05/08/2020, 16:46:25,10.566705,-4.644469,4.5152564,-0.85599893,-1.1014422,-1.922029,12.394106662659455,2.374890456553301,walk
05/08/2020, 16:46:25,10.662417,-4.8861437,4.534399,-0.85599893,-1.1014422,-1.922029,12.574669767226519,2.374890456553301,walk
05/08/2020, 16:46:25,10.662417,-4.8861437,4.534399,-0.6935911,-1.1136534,-1.9073756,12.574669767226519,2.3150322162967663,walk
05/08/2020, 16:46:25,10.69831,-5.056034,4.6301117,-0.6935911,-1.1136534,-1.9073756,12.706504227524855,2.3150322162967663,walk
05/08/2020, 16:46:25,10.69831,-5.056034,4.6301117,-0.5482789,-1.12098,-1.8805112,12.706504227524855,2.256884631093868,walk
05/08/2020, 16:46:25,10.707881,-5.111069,4.6731825,-0.5482789,-1.12098,-1.8805112,12.752269519686658,2.256884631093868,walk
05/08/2020, 16:46:25,10.707881,-5.111069,4.6731825,-0.44570556,-1.10999,-1.8389934,12.752269519686658,2.193770290284739,walk
05/08/2020, 16:46:26,6.4821568,-2.4143581,2.8283165,-0.26864445,0.18072446,-0.035412222,7.473075360453556,0.3257072250394689,walk
05/08/2020, 16:46:26,6.4821568,-2.4143581,2.8283165,-0.24666445,0.091583334,-0.11234222,7.473075360453556,0.2860972438166232,walk
05/08/2020, 16:46:26,6.491728,-2.3856442,2.8163524,-0.24666445,0.091583334,-0.11234222,7.467641468349046,0.2860972438166232,walk
05/08/2020, 16:46:26,6.491728,-2.3856442,2.8163524,-0.25765446,0.0061055557,-0.19293556,7.467641468349046,0.32194289325899816,walk
05/08/2020, 16:46:26,6.491728,-2.3401806,2.7948167,-0.25765446,0.0061055557,-0.19293556,7.445131038459469,0.32194289325899816,walk
05/08/2020, 16:46:26,6.491728,-2.3401806,2.7948167,-0.29917222,-0.07570889,-0.25643334,7.445131038459469,0.40124046577809214,walk
05/08/2020, 16:46:26,6.515656,-2.3138595,2.7996025,-0.29917222,-0.07570889,-0.25643334,7.459590662812081,0.40124046577809214,walk
05/08/2020, 16:46:26,6.515656,-2.3138595,2.7996025,-0.36755446,-0.15874445,-0.32481557,7.459590662812081,0.5155591481916006,walk
05/08/2020, 16:46:26,6.5611196,-2.3234308,2.8019953,-0.36755446,-0.15874445,-0.32481557,7.503185852820213,0.5155591481916006,walk
05/08/2020, 16:46:26,6.5611196,-2.3234308,2.8019953,-0.44082114,-0.23811668,-0.3858711,7.503185852820213,0.6323917676131338,walk
05/08/2020, 16:46:26,6.640083,-2.388037,2.804388,-0.44082114,-0.23811668,-0.3858711,7.593287360393391,0.6323917676131338,walk
05/08/2020, 16:46:26,6.640083,-2.388037,2.804388,-0.5238567,-0.32237336,-0.44204223,7.593287360393391,0.7574640318530771,walk
05/08/2020, 16:46:26,6.7166533,-2.4023938,2.8115666,-0.5238567,-0.32237336,-0.44204223,7.667452962840399,0.7574640318530771,walk
05/08/2020, 16:46:26,6.7166533,-2.4023938,2.8115666,-0.6105556,-0.40052447,-0.50798225,7.667452962840399,0.8895189412034246,walk
05/08/2020, 16:46:26,6.778867,-2.3832514,2.8091738,-0.6105556,-0.40052447,-0.50798225,7.715204442730615,0.8895189412034246,walk
05/08/2020, 16:46:26,6.778867,-2.3832514,2.8091738,-0.6935911,-0.48600224,-0.57270116,7.715204442730615,1.022376362696672,walk
05/08/2020, 16:46:26,6.8099732,-2.3712873,2.8354948,-0.6935911,-0.48600224,-0.57270116,7.74846886295361,1.022376362696672,walk
05/08/2020, 16:46:26,6.8099732,-2.3712873,2.8354948,-0.7680789,-0.57636446,-0.6386411,7.74846886295361,1.1532578632629382,walk
05/08/2020, 16:46:26,6.9224358,-2.4454648,2.8594232,-0.7680789,-0.57636446,-0.6386411,7.878877838837983,1.1532578632629382,walk
05/08/2020, 16:46:26,6.9224358,-2.4454648,2.8594232,-0.84623003,-0.67161113,-0.70336,7.878877838837983,1.2891400596273515,walk
05/08/2020, 16:46:27,11.318051,-4.948357,4.0127635,1.0281756,0.9365923,2.4532123,12.987948069029663,2.8200355579195233,walk
05/08/2020, 16:46:27,11.196017,-4.871787,4.0295134,1.0281756,0.9365923,2.4532123,12.857763794052461,2.8200355579195233,walk
05/08/2020, 16:46:27,11.196017,-4.871787,4.0295134,0.9683412,0.9646778,2.4446645,12.857763794052461,2.80083421764986,walk
05/08/2020, 16:46:27,11.073983,-4.8358946,4.101298,0.9683412,0.9646778,2.4446645,12.760862991152022,2.80083421764986,walk
05/08/2020, 16:46:27,11.073983,-4.8358946,4.101298,0.92193896,0.98910004,2.4214635,12.760862991152022,2.7734050833750956,walk
05/08/2020, 16:46:27,10.968699,-4.8215375,4.223332,0.92193896,0.98910004,2.4214635,12.704177428250023,2.7734050833750956,walk
05/08/2020, 16:46:27,10.968699,-4.8215375,4.223332,0.88286334,1.01108,2.3933778,12.704177428250023,2.744082306420562,walk
05/08/2020, 16:46:27,10.803595,-4.8287163,4.3405805,0.88286334,1.01108,2.3933778,12.604554561824171,2.744082306420562,walk
05/08/2020, 16:46:27,10.803595,-4.8287163,4.3405805,0.85599893,1.0293967,2.3677344,12.604554561824171,2.7200290411919963,walk
05/08/2020, 16:46:27,10.645668,-4.895715,4.369294,0.85599893,1.0293967,2.3677344,12.50555904359619,2.7200290411919963,walk
05/08/2020, 16:46:27,10.645668,-4.895715,4.369294,0.8523356,1.0416079,2.3372068,12.50555904359619,2.69702774741111,walk
05/08/2020, 16:46:27,10.427921,-4.895715,4.2999024,0.8523356,1.0416079,2.3372068,12.296289326565441,2.69702774741111,walk
05/08/2020, 16:46:27,10.427921,-4.895715,4.2999024,0.8523356,1.0489345,2.3054578,12.296289326565441,2.6724287149172845,walk
05/08/2020, 16:46:27,10.193424,-4.8502517,4.15394,0.8523356,1.0489345,2.3054578,12.02855178012571,2.6724287149172845,walk
05/08/2020, 16:46:27,10.193424,-4.8502517,4.15394,0.83524,1.05504,2.2676034,12.02855178012571,2.6368087609219324,walk
05/08/2020, 16:46:27,9.899107,-4.725825,3.9816568,0.83524,1.05504,2.2676034,11.669589972746286,2.6368087609219324,walk
05/08/2020, 16:46:27,9.899107,-4.725825,3.9816568,0.80593336,1.0599245,2.2260857,11.669589972746286,2.5939209439340964,walk
05/08/2020, 16:46:27,9.657433,-4.625326,3.7974095,0.80593336,1.0599245,2.2260857,11.36133640044489,2.5939209439340964,walk
05/08/2020, 16:46:27,9.657433,-4.625326,3.7974095,0.77418447,1.05504,2.1784623,11.36133640044489,2.5412927498473423,walk
05/08/2020, 16:46:27,9.41815,-4.5008993,3.6514473,0.77418447,1.05504,2.1784623,11.058603458143912,2.5412927498473423,walk
05/08/2020, 16:46:28,7.1712894,-5.7140603,4.168297,0.16607112,-0.047623336,0.27963445,10.072366941557519,0.3286989829239602,walk
05/08/2020, 16:46:28,7.1880393,-5.7020965,4.24726,0.16607112,-0.047623336,0.27963445,10.110441700895873,0.3286989829239602,walk
05/08/2020, 16:46:28,7.1880393,-5.7020965,4.24726,0.23323223,-0.046402223,0.39686114,10.110441700895873,0.4626545154420606,walk
05/08/2020, 16:46:28,7.2622166,-5.6279187,4.290331,0.23323223,-0.046402223,0.39686114,10.140029473364608,0.4626545154420606,walk
05/08/2020, 16:46:28,7.2622166,-5.6279187,4.290331,0.29062447,-0.025643334,0.5030978,10.140029473364608,0.5815733243919838,walk
05/08/2020, 16:46:28,7.396215,-5.541777,4.316652,0.29062447,-0.025643334,0.5030978,10.200430016003986,0.5815733243919838,walk
05/08/2020, 16:46:28,7.396215,-5.541777,4.316652,0.33580557,0.009768889,0.59346,10.200430016003986,0.6819498574970985,walk
05/08/2020, 16:46:28,7.5182486,-5.517849,4.2831526,0.33580557,0.009768889,0.59346,10.262363989138995,0.6819498574970985,walk
05/08/2020, 16:46:28,7.5182486,-5.517849,4.2831526,0.37610224,0.05250778,0.69237006,10.262363989138995,0.7896747793173648,walk
05/08/2020, 16:46:28,7.597212,-5.5106707,4.278367,0.37610224,0.05250778,0.69237006,10.31453069232192,0.7896747793173648,walk
05/08/2020, 16:46:28,7.597212,-5.5106707,4.278367,0.42372558,0.09280445,0.77296335,10.31453069232192,0.8863567911552095,walk
05/08/2020, 16:46:28,7.668997,-5.4843497,4.2711883,0.42372558,0.09280445,0.77296335,10.350587092800208,0.8863567911552095,walk
05/08/2020, 16:46:28,7.668997,-5.4843497,4.2711883,0.4689067,0.117226675,0.86821,10.350587092800208,0.9936821534309803,walk
05/08/2020, 16:46:28,7.735996,-5.4891353,4.2687955,0.4689067,0.117226675,0.86821,10.401867690215632,0.9936821534309803,walk
05/08/2020, 16:46:28,7.735996,-5.4891353,4.2687955,0.51164556,0.13798556,0.95613,10.401867690215632,1.0931632167671408,walk
05/08/2020, 16:46:28,7.826923,-5.453243,4.2592244,0.51164556,0.13798556,0.95613,10.446988628371006,1.0931632167671408,walk
05/08/2020, 16:46:28,7.826923,-5.453243,4.2592244,0.5507211,0.16118668,1.0416079,10.446988628371006,1.1892105839254608,walk
05/08/2020, 16:46:28,7.958528,-5.45085,4.2520456,0.5507211,0.16118668,1.0416079,10.541813244169827,1.1892105839254608,walk
05/08/2020, 16:46:28,7.958528,-5.45085,4.2520456,0.5775856,0.18805112,1.1185378,10.541813244169827,1.2728295631347368,walk
05/08/2020, 16:46:28,8.157132,-5.3982077,4.26401,0.5775856,0.18805112,1.1185378,10.67057785484982,1.2728295631347368,walk
05/08/2020, 16:46:29,10.66481,-4.139583,3.574877,-0.31260446,-1.7290934,-2.009949,11.9855775937353,2.669715434688743,walk
05/08/2020, 16:46:29,10.99502,-4.1228333,3.682554,-0.31260446,-1.7290934,-2.009949,12.30647881873067,2.669715434688743,walk
05/08/2020, 16:46:29,10.99502,-4.1228333,3.682554,-0.4163989,-1.7156612,-2.0380344,12.30647881873067,2.696380105455559,walk
05/08/2020, 16:46:29,11.294123,-4.1036906,3.7615173,-0.4163989,-1.7156612,-2.0380344,12.591524788727913,2.696380105455559,walk
05/08/2020, 16:46:29,11.294123,-4.1036906,3.7615173,-0.5568267,-1.6460578,-2.074668,12.591524788727913,2.7062537638495656,walk
05/08/2020, 16:46:29,11.49512,-4.0869412,3.8213377,-0.5568267,-1.6460578,-2.074668,12.784502159407634,2.7062537638495656,walk
05/08/2020, 16:46:29,11.49512,-4.0869412,3.8213377,-0.7265611,-1.5544745,-2.1051955,12.784502159407634,2.715903192064026,walk
05/08/2020, 16:46:29,11.550155,-4.141976,3.8117664,-0.7265611,-1.5544745,-2.1051955,12.848797626212951,2.715903192064026,walk
05/08/2020, 16:46:29,11.550155,-4.141976,3.8117664,-0.8962956,-1.4799867,-2.1430502,12.848797626212951,2.754336668737012,walk
05/08/2020, 16:46:29,11.4903345,-4.2185464,3.7998023,-0.8962956,-1.4799867,-2.1430502,12.81649009532291,2.754336668737012,walk
05/08/2020, 16:46:29,11.4903345,-4.2185464,3.7998023,-1.0525978,-1.4274789,-2.1821256,12.81649009532291,2.8119975249017504,walk
05/08/2020, 16:46:29,11.437693,-4.438686,3.8620157,-1.0525978,-1.4274789,-2.1821256,12.862266942387865,2.8119975249017504,walk
05/08/2020, 16:46:29,11.437693,-4.438686,3.8620157,-1.1637189,-1.3920667,-2.1918945,12.862266942387865,2.845433736656017,walk
05/08/2020, 16:46:29,11.497513,-4.800002,3.9625144,-1.1637189,-1.3920667,-2.1918945,13.074186074150722,2.845433736656017,walk
05/08/2020, 16:46:29,11.497513,-4.800002,3.9625144,-1.2064579,-1.3664234,-2.1686933,13.074186074150722,2.8329991212089864,walk
05/08/2020, 16:46:29,11.607583,-5.221139,4.106084,-1.2064579,-1.3664234,-2.1686933,13.373713055634653,2.8329991212089864,walk
05/08/2020, 16:46:29,11.607583,-5.221139,4.106084,-1.1820356,-1.3456645,-2.141829,13.373713055634653,2.7920337662782893,walk
05/08/2020, 16:46:29,11.708081,-5.532206,4.2257247,-1.1820356,-1.3456645,-2.141829,13.621351604702463,2.7920337662782893,walk
05/08/2020, 16:46:29,11.708081,-5.532206,4.2257247,-1.1368545,-1.3310112,-2.1015322,13.621351604702463,2.735044176449833,walk
05/08/2020, 16:46:29,11.743974,-5.7020965,4.290331,-1.1368545,-1.3310112,-2.1015322,13.741970826674075,2.735044176449833,walk
05/08/2020, 16:46:30,6.029913,-2.9455647,2.498107,-0.09646778,-0.30283555,-0.48966557,7.160777905489289,0.5837703086555275,walk
05/08/2020, 16:46:30,6.0921264,-2.9575288,2.5627131,-0.09646778,-0.30283555,-0.48966557,7.240751283478091,0.5837703086555275,walk
05/08/2020, 16:46:30,6.0921264,-2.9575288,2.5627131,-0.15752333,-0.37854445,-0.58247,7.240751283478091,0.7123066768586741,walk
05/08/2020, 16:46:30,6.1184473,-3.050849,2.5698915,-0.15752333,-0.37854445,-0.58247,7.303931740524076,0.7123066768586741,walk
05/08/2020, 16:46:30,6.1184473,-3.050849,2.5698915,-0.20270446,-0.45059,-0.66062117,7.303931740524076,0.8249489585855608,walk
05/08/2020, 16:46:30,6.1591253,-3.1657043,2.6009982,-0.20270446,-0.45059,-0.66062117,7.397411686021221,0.8249489585855608,walk
05/08/2020, 16:46:30,6.1591253,-3.1657043,2.6009982,-0.22346334,-0.5262989,-0.7436567,7.397411686021221,0.9380573844846968,walk
05/08/2020, 16:46:30,6.2141604,-3.2398818,2.656033,-0.22346334,-0.5262989,-0.7436567,7.494473649793111,0.9380573844846968,walk
05/08/2020, 16:46:30,6.2141604,-3.2398818,2.656033,-0.23811668,-0.60811335,-0.8364611,7.494473649793111,1.061210919329393,walk
05/08/2020, 16:46:30,6.273981,-3.2470603,2.6895328,-0.23811668,-0.60811335,-0.8364611,7.559088953514228,1.061210919329393,walk
05/08/2020, 16:46:30,6.273981,-3.2470603,2.6895328,-0.24300112,-0.6935911,-0.92560226,7.559088953514228,1.181887355418631,walk
05/08/2020, 16:46:30,6.3960147,-3.3212378,2.7326035,-0.24300112,-0.6935911,-0.92560226,7.707577221269509,1.181887355418631,walk
05/08/2020, 16:46:30,6.3960147,-3.3212378,2.7326035,-0.24666445,-0.78395337,-1.0086378,7.707577221269509,1.3010674148908696,walk
05/08/2020, 16:46:30,6.5491557,-3.397808,2.7421749,-0.24666445,-0.78395337,-1.0086378,7.871217392477392,1.3010674148908696,walk
05/08/2020, 16:46:30,6.5491557,-3.397808,2.7421749,-0.24544334,-0.8621045,-1.0831256,7.871217392477392,1.4059258900548266,walk
05/08/2020, 16:46:30,6.7812595,-3.4887354,2.766103,-0.24544334,-0.8621045,-1.0831256,8.112218058288699,1.4059258900548266,walk
05/08/2020, 16:46:30,6.7812595,-3.4887354,2.766103,-0.23933779,-0.93415004,-1.1637189,8.112218058288699,1.5113439854642416,walk
05/08/2020, 16:46:30,7.02772,-3.5270207,2.7756743,-0.23933779,-0.93415004,-1.1637189,8.338650434383796,1.5113439854642416,walk
05/08/2020, 16:46:30,7.02772,-3.5270207,2.7756743,-0.2295689,-1.0025322,-1.2345434,8.338650434383796,1.6068199310855666,walk
05/08/2020, 16:46:30,7.245467,-3.505485,2.7708886,-0.2295689,-1.0025322,-1.2345434,8.512522756755041,1.6068199310855666,walk
05/08/2020, 16:46:31,11.375479,-4.6779685,4.735396,0.6032289,1.2821667,2.2785935,13.179866478144646,2.6832489925073615,walk
05/08/2020, 16:46:31,11.1936245,-4.699504,4.658826,0.6032289,1.2821667,2.2785935,13.003354366786,2.6832489925073615,walk
05/08/2020, 16:46:31,11.1936245,-4.699504,4.658826,0.54461557,1.3053678,2.29691,13.003354366786,2.6974779047892135,walk
05/08/2020, 16:46:31,11.016556,-4.6755753,4.57747,0.54461557,1.3053678,2.29691,12.813225018407714,2.6974779047892135,walk
05/08/2020, 16:46:31,11.016556,-4.6755753,4.57747,0.5104245,1.3151367,2.3005733,12.813225018407714,2.6986580669921656,walk
05/08/2020, 16:46:31,10.796415,-4.634897,4.5320063,0.5104245,1.3151367,2.3005733,12.593011438176928,2.6986580669921656,walk
05/08/2020, 16:46:31,10.796415,-4.634897,4.5320063,0.49577114,1.3102523,2.3005733,12.593011438176928,2.693545594579352,walk
05/08/2020, 16:46:31,10.597812,-4.5535417,4.453043,0.49577114,1.3102523,2.3005733,12.3643821631017,2.693545594579352,walk
05/08/2020, 16:46:31,10.597812,-4.5535417,4.453043,0.4921078,1.29682,2.2834778,12.3643821631017,2.6717378444600177,walk
05/08/2020, 16:46:31,10.41835,-4.486542,4.398008,0.4921078,1.29682,2.2834778,12.166082181979002,2.6717378444600177,walk
05/08/2020, 16:46:31,10.41835,-4.486542,4.398008,0.47623336,1.2882723,2.2566135,12.166082181979002,2.6417320251819416,walk
05/08/2020, 16:46:31,10.241281,-4.4482574,4.359723,0.47623336,1.2882723,2.2566135,11.986576123348645,2.6417320251819416,walk
05/08/2020, 16:46:31,10.241281,-4.4482574,4.359723,0.45791668,1.2882723,2.2285278,11.986576123348645,2.6145112714884866,walk
05/08/2020, 16:46:31,10.095319,-4.4147577,4.3357944,0.45791668,1.2882723,2.2285278,11.840804907702642,2.6145112714884866,walk
05/08/2020, 16:46:31,10.095319,-4.4147577,4.3357944,0.4383789,1.2723979,2.184568,11.840804907702642,2.5658350391134626,walk
05/08/2020, 16:46:31,9.91825,-4.3669014,4.2424746,0.4383789,1.2723979,2.184568,11.637873641802882,2.5658350391134626,walk
05/08/2020, 16:46:31,9.91825,-4.3669014,4.2424746,0.44692668,1.2577446,2.13206,11.637873641802882,2.5154214111935813,walk
05/08/2020, 16:46:31,9.71486,-4.338187,4.1515474,0.44692668,1.2577446,2.13206,11.420758228151623,2.5154214111935813,walk
05/08/2020, 16:46:31,9.71486,-4.338187,4.1515474,0.44570556,1.2443123,2.0722256,11.420758228151623,2.4578619429375874,walk
05/08/2020, 16:46:31,9.470792,-4.2352962,4.0295134,0.44570556,1.2443123,2.0722256,11.129717420784065,2.4578619429375874,walk
05/08/2020, 16:46:32,7.338787,-5.326423,4.469793,0.7619734,-0.19171445,0.40907225,10.109778811303524,0.885831795464373,walk
05/08/2020, 16:46:32,7.436893,-5.271388,4.462614,0.7619734,-0.19171445,0.40907225,10.149376017665544,0.885831795464373,walk
05/08/2020, 16:46:32,7.436893,-5.271388,4.462614,0.76930004,-0.13310112,0.4689067,10.149376017665544,0.9107205714363225,walk
05/08/2020, 16:46:32,7.5230346,-5.24746,4.4578285,0.76930004,-0.13310112,0.4689067,10.198241004735534,0.9107205714363225,walk
05/08/2020, 16:46:32,7.5230346,-5.24746,4.4578285,0.7766267,-0.07448778,0.53118336,10.198241004735534,0.9438502182844866,walk
05/08/2020, 16:46:32,7.623533,-5.1996036,4.453043,0.7766267,-0.07448778,0.53118336,10.246156396436415,0.9438502182844866,walk
05/08/2020, 16:46:32,7.623533,-5.1996036,4.453043,0.78029,-0.01099,0.58491224,10.246156396436415,0.9752413061118952,walk
05/08/2020, 16:46:32,7.6809607,-5.099105,4.4315076,0.78029,-0.01099,0.58491224,10.22918797729111,0.9752413061118952,walk
05/08/2020, 16:46:32,7.6809607,-5.099105,4.4315076,0.76930004,0.048844445,0.6447467,10.22918797729111,1.0049411280682752,walk
05/08/2020, 16:46:32,7.7479596,-5.0177493,4.4602213,0.76930004,0.048844445,0.6447467,10.251939341972403,1.0049411280682752,walk
05/08/2020, 16:46:32,7.7479596,-5.0177493,4.4602213,0.7534256,0.11844778,0.6935911,10.251939341972403,1.0308970110750217,walk
05/08/2020, 16:46:32,7.838887,-4.9986067,4.4482574,0.7534256,0.11844778,0.6935911,10.306367732242483,1.0308970110750217,walk
05/08/2020, 16:46:32,7.838887,-4.9986067,4.4482574,0.74732006,0.18927222,0.7387723,10.306367732242483,1.0677526457985862,walk
05/08/2020, 16:46:32,7.9226356,-5.0536413,4.469793,0.74732006,0.18927222,0.7387723,10.4060796068258,1.0677526457985862,walk
05/08/2020, 16:46:32,7.9226356,-5.0536413,4.469793,0.7326667,0.24910668,0.79616445,10.4060796068258,1.1102848387638389,walk
05/08/2020, 16:46:32,8.01117,-5.1254263,4.4434714,0.7326667,0.24910668,0.79616445,10.49729889149991,1.1102848387638389,walk
05/08/2020, 16:46:32,8.01117,-5.1254263,4.4434714,0.7314456,0.31260446,0.8450089,10.49729889149991,1.160506047056084,walk
05/08/2020, 16:46:32,8.0614195,-5.178068,4.398008,0.7314456,0.31260446,0.8450089,10.542359662218498,1.160506047056084,walk
05/08/2020, 16:46:32,8.0614195,-5.178068,4.398008,0.7387723,0.35900667,0.9072856,10.542359662218498,1.2238616630565236,walk
05/08/2020, 16:46:32,8.13799,-5.2307105,4.3405805,0.7387723,0.35900667,0.9072856,10.603200100292169,1.2238616630565236,walk
05/08/2020, 16:46:33,11.179267,-5.0919266,4.182654,-1.3273479,-0.77418447,-1.8157923,12.976837789167641,2.378721447333748,walk
05/08/2020, 16:46:33,11.179267,-5.0919266,4.182654,-1.3224634,-0.72411895,-1.7803801,12.976837789167641,2.333026164415834,walk
05/08/2020, 16:46:33,11.114661,-5.15414,4.261617,-1.3224634,-0.72411895,-1.7803801,12.97159335151542,2.333026164415834,walk
05/08/2020, 16:46:33,11.114661,-5.15414,4.261617,-1.3065889,-0.6740534,-1.746189,12.97159335151542,2.282695443349882,walk
05/08/2020, 16:46:33,11.018949,-5.1996036,4.2424746,-1.3065889,-0.6740534,-1.746189,12.901615975205955,2.282695443349882,walk
05/08/2020, 16:46:33,11.018949,-5.1996036,4.2424746,-1.2870512,-0.6349778,-1.7095556,12.901615975205955,2.2321017137473516,walk
05/08/2020, 16:46:33,10.822737,-5.1900325,4.2352962,-1.2870512,-0.6349778,-1.7095556,12.728149984644821,2.2321017137473516,walk
05/08/2020, 16:46:33,10.822737,-5.1900325,4.2352962,-1.2809457,-0.58613336,-1.669259,12.728149984644821,2.184216002715685,walk
05/08/2020, 16:46:33,10.602597,-5.144569,4.2352962,-1.2809457,-0.58613336,-1.669259,12.52275496272215,2.184216002715685,walk
05/08/2020, 16:46:33,10.602597,-5.144569,4.2352962,-1.2833878,-0.54950005,-1.6350678,12.52275496272215,2.1499956453591045,walk
05/08/2020, 16:46:33,10.334601,-5.1062837,4.2448673,-1.2833878,-0.54950005,-1.6350678,12.28401471888902,2.1499956453591045,walk
05/08/2020, 16:46:33,10.334601,-5.1062837,4.2448673,-1.2723979,-0.5336256,-1.5996556,12.28401471888902,2.112498702255394,walk
05/08/2020, 16:46:33,10.064212,-5.1206403,4.2759743,-1.2723979,-0.5336256,-1.5996556,12.074488515606111,2.112498702255394,walk
05/08/2020, 16:46:33,10.064212,-5.1206403,4.2759743,-1.24187,-0.5262989,-1.559359,12.074488515606111,2.061754609736306,walk
05/08/2020, 16:46:33,9.8632145,-5.1182475,4.3094735,-1.24187,-0.5262989,-1.559359,11.918515833232636,2.061754609736306,walk
05/08/2020, 16:46:33,9.8632145,-5.1182475,4.3094735,-1.1979101,-0.5153089,-1.5361578,11.918515833232636,2.0150217729641637,walk
05/08/2020, 16:46:33,9.688539,-5.113462,4.3525443,-1.1979101,-0.5153089,-1.5361578,11.788125997924494,2.0150217729641637,walk
05/08/2020, 16:46:33,9.688539,-5.113462,4.3525443,-1.1405178,-0.5030978,-1.5227256,11.788125997924494,1.9678875703983638,walk
05/08/2020, 16:46:33,9.554541,-5.1661043,4.3932223,-1.1405178,-0.5030978,-1.5227256,11.716581540673825,1.9678875703983638,walk
05/08/2020, 16:46:33,9.554541,-5.1661043,4.3932223,-1.05504,-0.4933289,-1.4995245,11.716581540673825,1.8986986219073034,walk
05/08/2020, 16:46:34,7.0133634,-2.5914268,3.3116665,0.08425667,0.5788067,0.78395337,8.177401401795647,0.9781100474549144,walk
05/08/2020, 16:46:34,6.862615,-2.440679,3.2757742,0.08425667,0.5788067,0.78395337,7.986432078279192,0.9781100474549144,walk
05/08/2020, 16:46:34,6.862615,-2.440679,3.2757742,-0.03174889,0.5360678,0.6740534,7.986432078279192,0.8618147178063382,walk
05/08/2020, 16:46:34,6.6592255,-2.306681,3.2039895,-0.03174889,0.5360678,0.6740534,7.741550838685536,0.8618147178063382,walk
05/08/2020, 16:46:34,6.6592255,-2.306681,3.2039895,-0.14775445,0.48966557,0.56293225,7.741550838685536,0.7605895515421328,walk
05/08/2020, 16:46:34,6.4558353,-2.225325,3.103491,-0.14775445,0.48966557,0.56293225,7.500769201297017,0.7605895515421328,walk
05/08/2020, 16:46:34,6.4558353,-2.225325,3.103491,-0.24178001,0.4249467,0.4493689,7.500769201297017,0.6640554733373177,walk
05/08/2020, 16:46:34,6.273981,-2.1894326,3.0388846,-0.24178001,0.4249467,0.4493689,7.306933271075309,0.6640554733373177,walk
05/08/2020, 16:46:34,6.273981,-2.1894326,3.0388846,-0.3174889,0.3492378,0.34191114,7.306933271075309,0.5828116964910622,walk
05/08/2020, 16:46:34,6.13759,-2.160719,2.9790642,-0.3174889,0.3492378,0.34191114,7.156363606788968,0.5828116964910622,walk
05/08/2020, 16:46:34,6.13759,-2.160719,2.9790642,-0.37610224,0.2625389,0.22468445,7.156363606788968,0.5107471723512089,walk
05/08/2020, 16:46:34,6.0370917,-2.1463618,2.993421,-0.37610224,0.2625389,0.22468445,7.072051712588599,0.5107471723512089,walk
05/08/2020, 16:46:34,6.0370917,-2.1463618,2.993421,-0.40907225,0.17950334,0.098910004,7.072051712588599,0.457542066403048,walk
05/08/2020, 16:46:34,5.9270215,-2.1415763,2.9790642,-0.40907225,0.17950334,0.098910004,6.97070703532433,0.457542066403048,walk
05/08/2020, 16:46:34,5.9270215,-2.1415763,2.9790642,-0.4273889,0.081814446,-0.02075889,6.97070703532433,0.435644135023979,walk
05/08/2020, 16:46:34,5.895915,-2.160719,2.9599216,-0.4273889,0.081814446,-0.02075889,6.9420210435217,0.435644135023979,walk
05/08/2020, 16:46:34,5.895915,-2.160719,2.9599216,-0.4261678,-0.015874445,-0.14775445,6.9420210435217,0.451333974082846,walk
05/08/2020, 16:46:34,5.8839507,-2.1750758,2.981457,-0.4261678,-0.015874445,-0.14775445,6.945568110459636,0.451333974082846,walk
05/08/2020, 16:46:34,5.8839507,-2.1750758,2.981457,-0.4151778,-0.11478445,-0.28818223,6.945568110459636,0.5182635102303333,walk
05/08/2020, 16:46:34,5.8935223,-2.1894326,2.9886355,-0.4151778,-0.11478445,-0.28818223,6.961261541729138,0.5182635102303333,walk
05/08/2020, 16:46:35,10.150353,-5.245067,3.8907297,0.15508112,1.0990001,2.4373379,12.069721670757174,2.6781462404347267,walk
05/08/2020, 16:46:35,10.150353,-5.245067,3.8907297,0.26376,1.0562612,2.426348,12.069721670757174,2.6594024701583345,walk
05/08/2020, 16:46:35,10.025927,-5.2809596,3.8907297,0.26376,1.0562612,2.426348,11.981048187925184,2.6594024701583345,walk
05/08/2020, 16:46:35,10.025927,-5.2809596,3.8907297,0.37488112,1.0171856,2.3982623,11.981048187925184,2.631893655415092,walk
05/08/2020, 16:46:35,9.911072,-5.2283173,3.8668015,0.37488112,1.0171856,2.3982623,11.853978192890134,2.631893655415092,walk
05/08/2020, 16:46:35,9.911072,-5.2283173,3.8668015,0.47745445,0.9854367,2.3591866,11.853978192890134,2.6009248062796986,walk
05/08/2020, 16:46:35,9.822537,-5.1493545,3.830909,0.47745445,0.9854367,2.3591866,11.733454589948368,2.6009248062796986,walk
05/08/2020, 16:46:35,9.822537,-5.1493545,3.830909,0.5653745,0.95613,2.3103423,11.733454589948368,2.563496546903119,walk
05/08/2020, 16:46:35,9.700503,-5.046463,3.7256248,0.5653745,0.95613,2.3103423,11.551919075059134,2.563496546903119,walk
05/08/2020, 16:46:35,9.700503,-5.046463,3.7256248,0.63742,0.9268234,2.2590556,11.551919075059134,2.5236160756405734,walk
05/08/2020, 16:46:35,9.564112,-4.9052863,3.5988052,0.63742,0.9268234,2.2590556,11.335142936312849,2.5236160756405734,walk
05/08/2020, 16:46:35,9.564112,-4.9052863,3.5988052,0.6777167,0.91094893,2.2041056,11.335142936312849,2.4793566524179744,walk
05/08/2020, 16:46:35,9.420543,-4.7210393,3.4791641,0.6777167,0.91094893,2.2041056,11.09682027013723,2.4793566524179744,walk
05/08/2020, 16:46:35,9.420543,-4.7210393,3.4791641,0.6899278,0.88896894,2.1259546,11.09682027013723,2.4054000200546213,walk
05/08/2020, 16:46:35,9.281759,-4.536792,3.3499517,0.6899278,0.88896894,2.1259546,10.86074175812544,2.4054000200546213,walk
05/08/2020, 16:46:35,9.281759,-4.536792,3.3499517,0.6789378,0.8730945,2.0465822,10.86074175812544,2.326316685704029,walk
05/08/2020, 16:46:35,9.116654,-4.362116,3.3284163,0.6789378,0.8730945,2.0465822,10.64047919670036,2.326316685704029,walk
05/08/2020, 16:46:35,9.116654,-4.362116,3.3284163,0.6435256,0.8621045,1.965989,10.64047919670036,2.2410850158392663,walk
05/08/2020, 16:46:35,8.946764,-4.2448673,3.2997024,0.6435256,0.8621045,1.965989,10.437984504069078,2.2410850158392663,walk
05/08/2020, 16:46:35,8.946764,-4.2448673,3.2997024,0.6020078,0.8547778,1.8744056,10.437984504069078,2.1462653484519567,walk
05/08/2020, 16:46:36,8.298309,-4.9363933,4.9172506,0.80471224,0.52996224,0.91217005,10.835555818218912,1.3268292900578795,walk
05/08/2020, 16:46:36,8.298309,-4.9363933,4.9172506,0.80227005,0.5739222,0.9536878,10.835555818218912,1.3720584342799,walk
05/08/2020, 16:46:36,8.408379,-4.706682,4.9340005,0.80227005,0.5739222,0.9536878,10.82580477081284,1.3720584342799,walk
05/08/2020, 16:46:36,8.408379,-4.706682,4.9340005,0.78029,0.6239878,0.97811,10.82580477081284,1.398181842651969,walk
05/08/2020, 16:46:36,8.523234,-4.56072,4.883751,0.78029,0.6239878,0.97811,10.830360737409274,1.398181842651969,walk
05/08/2020, 16:46:36,8.523234,-4.56072,4.883751,0.7338878,0.6752745,1.0123012,10.830360737409274,1.4210350671901173,walk
05/08/2020, 16:46:36,8.6141615,-4.5678983,4.855037,0.7338878,0.6752745,1.0123012,10.892238482978755,1.4210350671901173,walk
05/08/2020, 16:46:36,8.6141615,-4.5678983,4.855037,0.67039,0.7228978,1.0489345,10.892238482978755,1.4395372642796305,walk
05/08/2020, 16:46:36,8.709874,-4.5559344,4.831109,0.67039,0.7228978,1.0489345,10.952536734006397,1.4395372642796305,walk
05/08/2020, 16:46:36,8.709874,-4.5559344,4.831109,0.60811335,0.76075226,1.0880101,10.952536734006397,1.4602437348114556,walk
05/08/2020, 16:46:36,8.769695,-4.5296135,4.816752,0.60811335,0.76075226,1.0880101,10.982989263695162,1.4602437348114556,walk
05/08/2020, 16:46:36,8.769695,-4.5296135,4.816752,0.55438447,0.78273225,1.1222012,10.982989263695162,1.4762613102132078,walk
05/08/2020, 16:46:36,8.839087,-4.4889355,4.766503,0.55438447,0.78273225,1.1222012,10.999979176229296,1.4762613102132078,walk
05/08/2020, 16:46:36,8.839087,-4.4889355,4.766503,0.52019334,0.79128003,1.1539501,10.999979176229296,1.4927578568711442,walk
05/08/2020, 16:46:36,8.927621,-4.4817567,4.7377887,0.52019334,0.79128003,1.1539501,11.056002861269418,1.4927578568711442,walk
05/08/2020, 16:46:36,8.927621,-4.4817567,4.7377887,0.50676113,0.7937223,1.1991311,11.056002861269418,1.5247023844954957,walk
05/08/2020, 16:46:36,9.047262,-4.510471,4.7449675,0.50676113,0.7937223,1.1991311,11.167453461403225,1.5247023844954957,walk
05/08/2020, 16:46:36,9.047262,-4.510471,4.7449675,0.5140878,0.7949434,1.2443123,11.167453461403225,1.5635006636284046,walk
05/08/2020, 16:46:36,9.171689,-4.5415773,4.792824,0.5140878,0.7949434,1.2443123,11.301193049915847,1.5635006636284046,walk
05/08/2020, 16:46:36,9.171689,-4.5415773,4.792824,0.52996224,0.79616445,1.29682,11.301193049915847,1.6113596872531866,walk
05/08/2020, 16:46:37,9.3104725,-5.5274205,4.613362,-1.130749,-0.5458367,-1.9940746,11.76946825459601,2.356451655307315,walk
05/08/2020, 16:46:37,9.3104725,-5.5274205,4.613362,-0.9414767,-0.57270116,-1.9586623,11.76946825459601,2.247381340526736,walk
05/08/2020, 16:46:37,9.178867,-5.584848,4.6636114,-0.9414767,-0.57270116,-1.9586623,11.712873405713916,2.247381340526736,walk
05/08/2020, 16:46:37,9.178867,-5.584848,4.6636114,-0.74121445,-0.61299783,-1.8988279,11.712873405713916,2.128547072525845,walk
05/08/2020, 16:46:37,9.145369,-5.6039906,4.694718,-0.74121445,-0.61299783,-1.8988279,11.70823866092342,2.128547072525845,walk
05/08/2020, 16:46:37,9.145369,-5.6039906,4.694718,-0.5556056,-0.6557367,-1.8389934,11.70823866092342,2.029922414256698,walk
05/08/2020, 16:46:37,9.111869,-5.5968122,4.7210393,-0.5556056,-0.6557367,-1.8389934,11.689254615255237,2.029922414256698,walk
05/08/2020, 16:46:37,9.111869,-5.5968122,4.7210393,-0.40663,-0.6801589,-1.7693901,11.689254615255237,1.9387381101106265,walk
05/08/2020, 16:46:37,9.162118,-5.5537415,4.7282176,-0.40663,-0.6801589,-1.7693901,11.710870647273264,1.9387381101106265,walk
05/08/2020, 16:46:37,9.162118,-5.5537415,4.7282176,-0.30161446,-0.6764956,-1.6997868,11.710870647273264,1.8541555226724673,walk
05/08/2020, 16:46:37,9.176475,-5.4963136,4.706682,-0.30161446,-0.6764956,-1.6997868,11.686317033955733,1.8541555226724673,walk
05/08/2020, 16:46:37,9.176475,-5.4963136,4.706682,-0.2295689,-0.6435256,-1.62652,11.686317033955733,1.7641979794041442,walk
05/08/2020, 16:46:37,9.131011,-5.4173503,4.694718,-0.2295689,-0.6435256,-1.62652,11.60876488907582,1.7641979794041442,walk
05/08/2020, 16:46:37,9.131011,-5.4173503,4.694718,-0.16729222,-0.61788225,-1.5569167,11.60876488907582,1.6833760180445718,walk
05/08/2020, 16:46:37,9.037691,-5.367101,4.6396832,-0.16729222,-0.61788225,-1.5569167,11.489660419411946,1.6833760180445718,walk
05/08/2020, 16:46:37,9.037691,-5.367101,4.6396832,-0.109900005,-0.59346,-1.4970822,11.489660419411946,1.6141648070010919,walk
05/08/2020, 16:46:37,8.877372,-5.3479586,4.6229334,-0.109900005,-0.59346,-1.4970822,11.34812335942928,1.6141648070010919,walk
05/08/2020, 16:46:37,8.877372,-5.3479586,4.6229334,-0.054950003,-0.58613336,-1.4152678,11.34812335942928,1.5328257684220319,walk
05/08/2020, 16:46:37,8.7673025,-5.304888,4.625326,-0.054950003,-0.58613336,-1.4152678,11.242823029872115,1.5328257684220319,walk
05/08/2020, 16:46:37,8.7673025,-5.304888,4.625326,0.0,-0.5690378,-1.3163579,11.242823029872115,1.4340857729503986,walk
05/08/2020, 16:46:38,7.8197446,-3.7974095,3.5581272,0.08303556,-0.82791334,-1.4995245,9.393028984230334,1.7149078860230909,walk
05/08/2020, 16:46:38,7.9537425,-3.7854455,3.6203406,0.08303556,-0.82791334,-1.4995245,9.52357511895844,1.7149078860230909,walk
05/08/2020, 16:46:38,7.9537425,-3.7854455,3.6203406,0.068382226,-0.84623003,-1.5727912,9.52357511895844,1.7873034466478768,walk
05/08/2020, 16:46:38,8.118847,-3.802195,3.6394832,0.068382226,-0.84623003,-1.5727912,9.675649864721397,1.7873034466478768,walk
05/08/2020, 16:46:38,8.118847,-3.802195,3.6394832,0.046402223,-0.8633256,-1.6375101,9.675649864721397,1.8517352541704772,walk
05/08/2020, 16:46:38,8.288737,-3.8237305,3.641876,0.046402223,-0.8633256,-1.6375101,9.82788590428431,1.8517352541704772,walk
05/08/2020, 16:46:38,8.288737,-3.8237305,3.641876,0.025643334,-0.8755367,-1.7022289,9.82788590428431,1.9143681202456664,walk
05/08/2020, 16:46:38,8.441878,-3.8069808,3.6586258,0.025643334,-0.8755367,-1.7022289,9.957105793054511,1.9143681202456664,walk
05/08/2020, 16:46:38,8.441878,-3.8069808,3.6586258,0.0,-0.8853056,-1.7632846,9.957105793054511,1.973053073244766,walk
05/08/2020, 16:46:38,8.6141615,-3.8620157,3.656233,0.0,-0.8853056,-1.7632846,10.12358552749403,1.973053073244766,walk
05/08/2020, 16:46:38,8.6141615,-3.8620157,3.656233,-0.035412222,-0.8987378,-1.8133501,10.12358552749403,2.0241596170482414,walk
05/08/2020, 16:46:38,8.79123,-3.9433718,3.6346977,-0.035412222,-0.8987378,-1.8133501,10.29790933110592,2.0241596170482414,walk
05/08/2020, 16:46:38,8.79123,-3.9433718,3.6346977,-0.078151114,-0.9048434,-1.85731,10.29790933110592,2.067474257091804,walk
05/08/2020, 16:46:38,8.99462,-4.048656,3.6275191,-0.078151114,-0.9048434,-1.85731,10.509695766346633,2.067474257091804,walk
05/08/2020, 16:46:38,8.99462,-4.048656,3.6275191,-0.12943779,-0.91094893,-1.9049335,10.509695766346633,2.1155031451609143,walk
05/08/2020, 16:46:38,9.21476,-4.130012,3.615555,-0.12943779,-0.91094893,-1.9049335,10.725718455206993,2.1155031451609143,walk
05/08/2020, 16:46:38,9.21476,-4.130012,3.615555,-0.20026223,-0.9170545,-1.9342401,10.725718455206993,2.149971778024189,walk
05/08/2020, 16:46:38,9.406186,-4.237689,3.5318062,-0.20026223,-0.9170545,-1.9342401,10.904494508468554,2.149971778024189,walk
05/08/2020, 16:46:38,9.406186,-4.237689,3.5318062,-0.29184556,-0.92071784,-1.9476722,10.904494508468554,2.174010659724288,walk
05/08/2020, 16:46:38,9.614362,-4.362116,3.4863427,-0.29184556,-0.92071784,-1.9476722,11.118389815446195,2.174010659724288,walk
05/08/2020, 16:46:39,8.4347,-4.7282176,3.940979,0.52141446,1.0049745,1.9024912,10.441816005604617,2.2138924010667873,walk
05/08/2020, 16:46:39,8.4347,-4.7282176,3.940979,0.47745445,0.99398446,1.8414357,10.441816005604617,2.1463581233395947,walk
05/08/2020, 16:46:39,8.286345,-4.6468616,3.8931224,0.47745445,0.99398446,1.8414357,10.26709453669573,2.1463581233395947,walk
05/08/2020, 16:46:39,8.286345,-4.6468616,3.8931224,0.4261678,0.9915423,1.7754956,10.26709453669573,2.077777628099645,walk
05/08/2020, 16:46:39,8.118847,-4.5487556,3.8069808,0.4261678,0.9915423,1.7754956,10.0548473872653,2.077777628099645,walk
05/08/2020, 16:46:39,8.118847,-4.5487556,3.8069808,0.38709223,0.97566783,1.7132189,10.0548473872653,2.0092006402092037,walk
05/08/2020, 16:46:39,7.9369926,-4.4578285,3.6849468,0.38709223,0.97566783,1.7132189,9.820739285710877,2.0092006402092037,walk
05/08/2020, 16:46:39,7.9369926,-4.4578285,3.6849468,0.35900667,0.9500245,1.6375101,9.820739285710877,1.9268812924740466,walk
05/08/2020, 16:46:39,7.752745,-4.354937,3.5964124,0.35900667,0.9500245,1.6375101,9.59190891439123,1.9268812924740466,walk
05/08/2020, 16:46:39,7.752745,-4.354937,3.5964124,0.32237336,0.9304867,1.56058,9.59190891439123,1.8453021506570841,walk
05/08/2020, 16:46:39,7.5828547,-4.2448673,3.5174494,0.32237336,0.9304867,1.56058,9.37502185943109,1.8453021506570841,walk
05/08/2020, 16:46:39,7.5828547,-4.2448673,3.5174494,0.26864445,0.9133912,1.4751023,9.37502185943109,1.755670836968015,walk
05/08/2020, 16:46:39,7.429714,-4.1587257,3.4528432,0.26864445,0.9133912,1.4751023,9.187914833858699,1.755670836968015,walk
05/08/2020, 16:46:39,7.429714,-4.1587257,3.4528432,0.21491556,0.8975167,1.3859612,9.187914833858699,1.6651166181164945,walk
05/08/2020, 16:46:39,7.2526455,-4.0414777,3.359523,0.21491556,0.8975167,1.3859612,8.956606704387545,1.6651166181164945,walk
05/08/2020, 16:46:39,7.2526455,-4.0414777,3.359523,0.15508112,0.8767578,1.2882723,8.956606704387545,1.5660139896184937,walk
05/08/2020, 16:46:39,7.051648,-3.9361932,3.2829528,0.15508112,0.8767578,1.2882723,8.71763371608413,1.5660139896184937,walk
05/08/2020, 16:46:39,7.051648,-3.9361932,3.2829528,0.08669889,0.83768225,1.1918045,8.71763371608413,1.4593239113424197,walk
05/08/2020, 16:46:39,6.8410797,-3.8811584,3.2231321,0.08669889,0.83768225,1.1918045,8.500137794598842,1.4593239113424197,walk
05/08/2020, 16:46:39,6.8410797,-3.8811584,3.2231321,0.029306669,0.80104893,1.0977789,8.500137794598842,1.359285409852061,walk
05/08/2020, 16:46:40,8.439486,-5.4676,4.7401814,0.16729222,0.59956557,1.1539501,11.117053783002149,1.3111317162146328,walk
05/08/2020, 16:46:40,8.439486,-5.4676,4.7401814,0.22346334,0.62765115,1.2150056,11.117053783002149,1.3856841391303727,walk
05/08/2020, 16:46:40,8.544769,-5.54417,4.74736,0.22346334,0.62765115,1.2150056,11.237808115002762,1.3856841391303727,walk
05/08/2020, 16:46:40,8.544769,-5.54417,4.74736,0.28085557,0.64841,1.2711767,11.237808115002762,1.4543746415802936,walk
05/08/2020, 16:46:40,8.664411,-5.613562,4.7545385,0.28085557,0.64841,1.2711767,11.36616589324267,1.4543746415802936,walk
05/08/2020, 16:46:40,8.664411,-5.613562,4.7545385,0.3394689,0.67039,1.3481067,11.36616589324267,1.5433903215106841,walk
05/08/2020, 16:46:40,8.836694,-5.706882,4.7425747,0.3394689,0.67039,1.3481067,11.538963278501775,1.5433903215106841,walk
05/08/2020, 16:46:40,8.836694,-5.706882,4.7425747,0.38831335,0.69114894,1.4250367,11.538963278501775,1.6307064788903511,walk
05/08/2020, 16:46:40,9.075976,-5.7834525,4.6612186,0.38831335,0.69114894,1.4250367,11.728112775954875,1.6307064788903511,walk
05/08/2020, 16:46:40,9.075976,-5.7834525,4.6612186,0.4481478,0.7119078,1.4970822,11.728112775954875,1.7172374293860613,walk
05/08/2020, 16:46:40,9.317652,-5.852844,4.5415773,0.4481478,0.7119078,1.4970822,11.903795382755915,1.7172374293860613,walk
05/08/2020, 16:46:40,9.317652,-5.852844,4.5415773,0.5092034,0.7387723,1.5642434,11.903795382755915,1.803310864649704,walk
05/08/2020, 16:46:40,9.554541,-5.9246287,4.4554358,0.5092034,0.7387723,1.5642434,12.093030229035968,1.803310864649704,walk
05/08/2020, 16:46:40,9.554541,-5.9246287,4.4554358,0.58491224,0.75831,1.6387311,12.093030229035968,1.898050606740093,walk
05/08/2020, 16:46:40,9.781859,-5.989235,4.402794,0.58491224,0.75831,1.6387311,12.285776420158992,1.898050606740093,walk
05/08/2020, 16:46:40,9.781859,-5.989235,4.402794,0.6801589,0.7766267,1.7156612,12.285776420158992,2.0023132700710566,walk
05/08/2020, 16:46:40,9.980463,-6.084948,4.4147577,0.6801589,0.7766267,1.7156612,12.495051859937867,2.0023132700710566,walk
05/08/2020, 16:46:40,9.980463,-6.084948,4.4147577,0.8071545,0.7949434,1.7986968,12.495051859937867,2.12573360688473,walk
05/08/2020, 16:46:40,10.176675,-6.1567326,4.5008993,0.8071545,0.7949434,1.7986968,12.717238745302948,2.12573360688473,walk
05/08/2020, 16:46:40,10.176675,-6.1567326,4.5008993,0.9927634,0.7888378,1.8707423,12.717238745302948,2.259982535302499,walk
05/08/2020, 16:46:41,9.633504,-5.235496,4.74736,-0.037854444,-0.9536878,-1.46167,11.947897121908005,1.7456897385078036,walk
05/08/2020, 16:46:41,9.466006,-5.13739,4.7952166,-0.037854444,-0.9536878,-1.46167,11.789493379766252,1.7456897385078036,walk
05/08/2020, 16:46:41,9.466006,-5.13739,4.7952166,-0.07693,-0.93415004,-1.3737501,11.789493379766252,1.6630525650275216,walk
05/08/2020, 16:46:41,9.348758,-4.9842496,4.8191447,-0.07693,-0.93415004,-1.3737501,11.638993566230567,1.6630525650275216,walk
05/08/2020, 16:46:41,9.348758,-4.9842496,4.8191447,-0.14409111,-0.8987378,-1.2980411,11.638993566230567,1.5853714303469804,walk
05/08/2020, 16:46:41,9.269794,-4.847859,4.8239303,-0.14409111,-0.8987378,-1.2980411,11.519597586922703,1.5853714303469804,walk
05/08/2020, 16:46:41,9.269794,-4.847859,4.8239303,-0.2283478,-0.8486723,-1.2211112,11.519597586922703,1.5044932196125438,walk
05/08/2020, 16:46:41,9.140582,-4.7545385,4.8885365,-0.2283478,-0.8486723,-1.2211112,11.40410742636384,1.5044932196125438,walk
05/08/2020, 16:46:41,9.140582,-4.7545385,4.8885365,-0.30161446,-0.79250115,-1.1527289,11.40410742636384,1.431018277901368,walk
05/08/2020, 16:46:41,9.001799,-4.7377887,4.955536,-0.30161446,-0.79250115,-1.1527289,11.315315111150438,1.431018277901368,walk
05/08/2020, 16:46:41,9.001799,-4.7377887,4.955536,-0.3492378,-0.7228978,-1.0733567,11.315315111150438,1.3403891291572079,walk
05/08/2020, 16:46:41,8.848659,-4.776074,5.0105705,-0.3492378,-0.7228978,-1.0733567,11.23456530307392,1.3403891291572079,walk
05/08/2020, 16:46:41,8.848659,-4.776074,5.0105705,-0.3504589,-0.66306335,-0.9927634,11.23456530307392,1.2442080231373236,walk
05/08/2020, 16:46:41,8.721839,-4.8885365,5.0656056,-0.3504589,-0.66306335,-0.9927634,11.208417544328336,1.2442080231373236,walk
05/08/2020, 16:46:41,8.721839,-4.8885365,5.0656056,-0.32359445,-0.60811335,-0.90362227,11.208417544328336,1.136243116354312,walk
05/08/2020, 16:46:41,8.595019,-4.979464,5.0751767,-0.32359445,-0.60811335,-0.90362227,11.154677871955515,1.136243116354312,walk
05/08/2020, 16:46:41,8.595019,-4.979464,5.0751767,-0.28329778,-0.5641534,-0.8205867,11.154677871955515,1.0353208008765673,walk
05/08/2020, 16:46:41,8.453842,-5.0009995,5.096712,-0.28329778,-0.5641534,-0.8205867,11.06588980521064,1.0353208008765673,walk
05/08/2020, 16:46:41,8.453842,-5.0009995,5.096712,-0.2625389,-0.51653004,-0.73999333,11.06588980521064,0.9398511011632598,walk
05/08/2020, 16:46:41,8.310273,-4.910072,5.099105,-0.2625389,-0.51653004,-0.73999333,10.916515759556187,0.9398511011632598,walk
05/08/2020, 16:46:42,8.819944,-4.3908296,3.6777685,0.059834447,-1.2235534,-1.5300523,10.516500561479338,1.9600314242985497,walk
05/08/2020, 16:46:42,8.819944,-4.3908296,3.6777685,-0.06960334,-1.2076789,-1.5422634,10.516500561479338,1.9600789127448266,walk
05/08/2020, 16:46:42,8.965906,-4.476971,3.7878382,-0.06960334,-1.2076789,-1.5422634,10.713471054090464,1.9600789127448266,walk
05/08/2020, 16:46:42,8.965906,-4.476971,3.7878382,-0.21369445,-1.1918045,-1.5410423,10.713471054090464,1.9598149936130511,walk
05/08/2020, 16:46:42,9.128618,-4.551149,3.897908,-0.21369445,-1.1918045,-1.5410423,10.919629745147256,1.9598149936130511,walk
05/08/2020, 16:46:42,9.128618,-4.551149,3.897908,-0.35534334,-1.1734878,-1.5337156,10.919629745147256,1.9635748077128206,walk
05/08/2020, 16:46:42,9.262616,-4.536792,3.912265,-0.35534334,-1.1734878,-1.5337156,11.031063223889195,1.9635748077128206,walk
05/08/2020, 16:46:42,9.262616,-4.536792,3.912265,-0.49699223,-1.1466234,-1.5422634,11.031063223889195,1.9850246337503243,walk
05/08/2020, 16:46:42,9.355937,-4.505685,3.9673,-0.49699223,-1.1466234,-1.5422634,11.116394290195688,1.9850246337503243,walk
05/08/2020, 16:46:42,9.355937,-4.505685,3.9673,-0.6349778,-1.119759,-1.5483689,11.116394290195688,2.013579725565652,walk
05/08/2020, 16:46:42,9.442079,-4.486542,3.9768713,-0.6349778,-1.119759,-1.5483689,11.184695534447384,2.013579725565652,walk
05/08/2020, 16:46:42,9.442079,-4.486542,3.9768713,-0.7717422,-1.0965579,-1.5520322,11.184695534447384,2.0510556409118,walk
05/08/2020, 16:46:42,9.549755,-4.508078,3.9290147,-0.7717422,-1.0965579,-1.5520322,11.26755283633777,2.0510556409118,walk
05/08/2020, 16:46:42,9.549755,-4.508078,3.9290147,-0.89019006,-1.064809,-1.5581379,11.26755283633777,2.086636091593023,walk
05/08/2020, 16:46:42,9.671789,-4.551149,3.9218364,-0.89019006,-1.064809,-1.5581379,11.38583604876504,2.086636091593023,walk
05/08/2020, 16:46:42,9.671789,-4.551149,3.9218364,-0.99032116,-1.0257334,-1.5727912,11.38583604876504,2.1228605995891,walk
05/08/2020, 16:46:42,9.786645,-4.599005,3.912265,-0.99032116,-1.0257334,-1.5727912,11.49935154904556,2.1228605995891,walk
05/08/2020, 16:46:42,9.786645,-4.599005,3.912265,-1.0782411,-0.97811,-1.6008767,11.49935154904556,2.163818214736081,walk
05/08/2020, 16:46:42,9.906285,-4.6229334,3.9338005,-1.0782411,-0.97811,-1.6008767,11.618123227301451,2.163818214736081,walk
05/08/2020, 16:46:42,9.906285,-4.6229334,3.9338005,-1.16494,-0.91461223,-1.6460578,11.618123227301451,2.2142960883475453,walk
05/08/2020, 16:46:43,7.2550383,-3.5270207,3.0149565,0.18438779,0.47623336,0.9720045,8.611934607516575,1.0979935193553367,walk
05/08/2020, 16:46:43,7.2550383,-3.5270207,3.0149565,0.1856089,0.43471557,0.8633256,8.611934607516575,0.9842557451206652,walk
05/08/2020, 16:46:43,7.1688967,-3.4743786,2.9671001,0.1856089,0.43471557,0.8633256,8.50106283691233,0.9842557451206652,walk
05/08/2020, 16:46:43,7.1688967,-3.4743786,2.9671001,0.20881,0.3931978,0.75953114,8.50106283691233,0.8803940501348095,walk
05/08/2020, 16:46:43,7.04447,-3.3762727,2.9503503,0.20881,0.3931978,0.75953114,8.350349647395607,0.8803940501348095,walk
05/08/2020, 16:46:43,7.04447,-3.3762727,2.9503503,0.21980001,0.3492378,0.65085226,8.350349647395607,0.7706411314333216,walk
05/08/2020, 16:46:43,6.893722,-3.2973096,2.9838498,0.21980001,0.3492378,0.65085226,8.203597629086408,0.7706411314333216,walk
05/08/2020, 16:46:43,6.893722,-3.2973096,2.9838498,0.20514667,0.30283555,0.5568267,8.203597629086408,0.6662210705155002,walk
05/08/2020, 16:46:43,6.7764735,-3.2063823,3.0699914,0.20514667,0.30283555,0.5568267,8.10100781249353,0.6662210705155002,walk
05/08/2020, 16:46:43,6.7764735,-3.2063823,3.0699914,0.1526389,0.24788557,0.46524334,8.10100781249353,0.5488144073668736,walk
05/08/2020, 16:46:43,6.6424756,-3.050849,3.1130621,0.1526389,0.24788557,0.46524334,7.944892538823627,0.5488144073668736,walk
05/08/2020, 16:46:43,6.6424756,-3.050849,3.1130621,0.089141116,0.18316667,0.36633334,7.944892538823627,0.41916140027493887,walk
05/08/2020, 16:46:43,6.573084,-2.9216363,3.0963125,0.089141116,0.18316667,0.36633334,7.831254166583476,0.41916140027493887,walk
05/08/2020, 16:46:43,6.573084,-2.9216363,3.0963125,0.045181114,0.12943779,0.2625389,7.831254166583476,0.29617925924157396,walk
05/08/2020, 16:46:43,6.5515485,-2.8809586,3.1441689,0.045181114,0.12943779,0.2625389,7.81719306961121,0.29617925924157396,walk
05/08/2020, 16:46:43,6.5515485,-2.8809586,3.1441689,0.025643334,0.09402556,0.16362889,7.81719306961121,0.19045419516336015,walk
05/08/2020, 16:46:43,6.5682983,-3.0125637,3.1537402,0.025643334,0.09402556,0.16362889,7.884425166453203,0.19045419516336015,walk
05/08/2020, 16:46:43,6.5682983,-3.0125637,3.1537402,0.024422223,0.02198,0.07570889,7.884425166453203,0.08253121340748434,walk
05/08/2020, 16:46:43,6.513263,-3.196811,3.1393833,0.024422223,0.02198,0.07570889,7.905562963464407,0.08253121340748434,walk
05/08/2020, 16:46:43,6.513263,-3.196811,3.1393833,-0.0048844446,-0.06594,-0.01099,7.905562963464407,0.06702776679949175,walk
05/08/2020, 16:46:44,10.4016,-4.761717,4.302295,0.92071784,0.5372889,1.8157923,12.22198721541197,2.1055883871851124,walk
05/08/2020, 16:46:44,10.4016,-4.761717,4.302295,0.7546467,0.62154555,1.8976067,12.22198721541197,2.134647944732137,walk
05/08/2020, 16:46:44,10.516456,-4.9172506,4.685147,0.7546467,0.62154555,1.8976067,12.519017287862814,2.134647944732137,walk
05/08/2020, 16:46:44,10.516456,-4.9172506,4.685147,0.65085226,0.68138003,1.9794211,12.519017287862814,2.1922580739604043,walk
05/08/2020, 16:46:44,10.645668,-4.989035,4.802395,0.65085226,0.68138003,1.9794211,12.699752587443935,2.1922580739604043,walk
05/08/2020, 16:46:44,10.645668,-4.989035,4.802395,0.68260115,0.7021389,2.0111701,12.699752587443935,2.2369060639234264,walk
05/08/2020, 16:46:44,10.753345,-5.0081778,4.735396,0.68260115,0.7021389,2.0111701,12.772636280871378,2.2369060639234264,walk
05/08/2020, 16:46:44,10.753345,-5.0081778,4.735396,0.72411895,0.7167922,2.0307078,12.772636280871378,2.271984520557887,walk
05/08/2020, 16:46:44,10.770095,-5.0416775,4.7425747,0.72411895,0.7167922,2.0307078,12.802557166842869,2.271984520557887,walk
05/08/2020, 16:46:44,10.770095,-5.0416775,4.7425747,0.5922389,0.7558678,2.0929844,12.802557166842869,2.302752022139157,walk
05/08/2020, 16:46:44,10.782059,-5.015356,4.7688956,0.5922389,0.7558678,2.0929844,12.81206275706035,2.302752022139157,walk
05/08/2020, 16:46:44,10.782059,-5.015356,4.7688956,0.37732336,0.81081784,2.151598,12.81206275706035,2.3300584406118836,walk
05/08/2020, 16:46:44,10.932807,-4.7976093,4.7449675,0.37732336,0.81081784,2.151598,12.847491572012304,2.3300584406118836,walk
05/08/2020, 16:46:44,10.932807,-4.7976093,4.7449675,0.2735289,0.85599893,2.1613667,12.847491572012304,2.3407388260430473,walk
05/08/2020, 16:46:44,11.102697,-4.505685,4.517649,0.2735289,0.85599893,2.1613667,12.805476913876404,2.3407388260430473,walk
05/08/2020, 16:46:44,11.102697,-4.505685,4.517649,0.26742333,0.8865267,2.1357234,12.805476913876404,2.3278228182346203,walk
05/08/2020, 16:46:44,11.150554,-4.359723,4.354937,0.26742333,0.8865267,2.1357234,12.739996478120501,2.3278228182346203,walk
05/08/2020, 16:46:44,11.150554,-4.359723,4.354937,0.27719223,0.91217005,2.1271756,12.739996478120501,2.3310438956599713,walk
05/08/2020, 16:46:44,11.112268,-4.254439,4.0869412,0.27719223,0.91217005,2.1271756,12.581170411930325,2.3310438956599713,walk
05/08/2020, 16:46:44,11.112268,-4.254439,4.0869412,0.31260446,0.91217005,2.1381657,12.581170411930325,2.3455337057588133,walk
05/08/2020, 16:46:45,7.4919276,-3.8931224,3.9314077,-0.6007867,-0.18683001,-0.5336256,9.313503542479134,0.8249887150836361,walk
05/08/2020, 16:46:45,7.4919276,-3.8931224,3.9314077,-0.68626446,-0.04396,-0.27963445,9.313503542479134,0.7423522126905349,walk
05/08/2020, 16:46:45,7.7072816,-4.7976093,4.290331,-0.68626446,-0.04396,-0.27963445,10.041224222892536,0.7423522126905349,walk
05/08/2020, 16:46:45,7.7072816,-4.7976093,4.290331,-0.65940005,0.06594,-0.16607112,10.041224222892536,0.6831808837983777,walk
05/08/2020, 16:46:45,7.874779,-5.4963136,4.4147577,-0.65940005,0.06594,-0.16607112,10.5693754080354,0.6831808837983777,walk
05/08/2020, 16:46:45,7.874779,-5.4963136,4.4147577,-0.43960002,0.07570889,-0.17095557,10.5693754080354,0.4777089284965928,walk
05/08/2020, 16:46:45,7.733603,-5.611169,4.5224347,-0.43960002,0.07570889,-0.17095557,10.571009747508967,0.4777089284965928,walk
05/08/2020, 16:46:45,7.733603,-5.611169,4.5224347,-0.25277,0.034191113,-0.12211112,10.571009747508967,0.2827946851251248,walk
05/08/2020, 16:46:45,7.456035,-5.3072805,4.733003,-0.25277,0.034191113,-0.12211112,10.303446288524084,0.2827946851251248,walk
05/08/2020, 16:46:45,7.456035,-5.3072805,4.733003,-0.29795113,0.04396,0.026864445,10.303446288524084,0.30237238168807645,walk
05/08/2020, 16:46:45,7.4249287,-4.996214,4.761717,-0.29795113,0.04396,0.026864445,10.137340205222221,0.30237238168807645,walk
05/08/2020, 16:46:45,7.4249287,-4.996214,4.761717,-0.44326335,0.12577444,0.16973445,10.137340205222221,0.491030948725645,walk
05/08/2020, 16:46:45,7.63789,-4.773681,4.6468616,-0.44326335,0.12577444,0.16973445,10.135024207815459,0.491030948725645,walk
05/08/2020, 16:46:45,7.63789,-4.773681,4.6468616,-0.5690378,0.21369445,0.23933779,10.135024207815459,0.6532625106810149,walk
05/08/2020, 16:46:45,7.771888,-4.599005,4.510471,-0.5690378,0.21369445,0.23933779,10.094425993162712,0.6532625106810149,walk
05/08/2020, 16:46:45,7.771888,-4.599005,4.510471,-0.7106867,0.2759711,0.30772,10.094425993162712,0.8221479308675723,walk
05/08/2020, 16:46:45,7.690532,-4.7042894,4.5320063,-0.7106867,0.2759711,0.30772,10.09027777168713,0.8221479308675723,walk
05/08/2020, 16:46:45,7.690532,-4.7042894,4.5320063,-0.85722005,0.3284789,0.43105224,10.09027777168713,1.014164997190481,walk
05/08/2020, 16:46:45,7.6139617,-4.9722853,4.5391846,-0.85722005,0.3284789,0.43105224,10.163672077264293,1.014164997190481,walk
05/08/2020, 16:46:45,7.6139617,-4.9722853,4.5391846,-0.88408446,0.35656446,0.5482789,10.163672077264293,1.099706022669408,walk
05/08/2020, 16:46:46,10.631311,-4.1036906,2.9240294,-0.4151778,-1.3810767,-1.9598835,11.764990727494702,2.4332876065042006,walk
05/08/2020, 16:46:46,10.631311,-4.1036906,2.9240294,-0.50676113,-1.3859612,-1.9794211,11.764990727494702,2.468968057649375,walk
05/08/2020, 16:46:46,10.872986,-4.2448673,2.885744,-0.50676113,-1.3859612,-1.9794211,12.023653299218097,2.468968057649375,walk
05/08/2020, 16:46:46,10.872986,-4.2448673,2.885744,-0.58491224,-1.3652023,-2.0087278,12.023653299218097,2.498176735150153,walk
05/08/2020, 16:46:46,11.114661,-4.2975097,2.8642087,-0.58491224,-1.3652023,-2.0087278,12.255936308419287,2.498176735150153,walk
05/08/2020, 16:46:46,11.114661,-4.2975097,2.8642087,-0.6569578,-1.3212423,-2.052688,12.255936308419287,2.5280036403058723,walk
05/08/2020, 16:46:46,11.224731,-4.24726,2.8785655,-0.6569578,-1.3212423,-2.052688,12.341797030725143,2.5280036403058723,walk
05/08/2020, 16:46:46,11.224731,-4.24726,2.8785655,-0.72778225,-1.2711767,-2.0807734,12.341797030725143,2.544636505195848,walk
05/08/2020, 16:46:46,11.239088,-4.2329035,2.9647074,-0.72778225,-1.2711767,-2.0807734,12.370289490485174,2.544636505195848,walk
05/08/2020, 16:46:46,11.239088,-4.2329035,2.9647074,-0.79250115,-1.2259957,-2.11008,12.370289490485174,2.565845095737638,walk
05/08/2020, 16:46:46,11.152946,-4.2759743,3.1250265,-0.79250115,-1.2259957,-2.11008,12.346576910375637,2.565845095737638,walk
05/08/2020, 16:46:46,11.152946,-4.2759743,3.1250265,-0.85111445,-1.2015734,-2.1210701,12.346576910375637,2.582075317427277,walk
05/08/2020, 16:46:46,11.078769,-4.4554358,3.2805598,-0.85111445,-1.2015734,-2.1210701,12.383541366782875,2.582075317427277,walk
05/08/2020, 16:46:46,11.078769,-4.4554358,3.2805598,-0.8633256,-1.1979101,-2.1186278,12.383541366782875,2.5824219871235745,walk
05/08/2020, 16:46:46,11.129018,-4.7138605,3.4839497,-0.8633256,-1.1979101,-2.1186278,12.578291776898643,2.5824219871235745,walk
05/08/2020, 16:46:46,11.129018,-4.7138605,3.4839497,-0.85111445,-1.1930256,-2.107638,12.578291776898643,2.567069011307107,walk
05/08/2020, 16:46:46,11.260623,-5.0177493,3.6179478,-0.85111445,-1.1930256,-2.107638,12.847917512041745,2.567069011307107,walk
05/08/2020, 16:46:46,11.260623,-5.0177493,3.6179478,-0.82913446,-1.1698245,-2.09909,12.847917512041745,2.5420724854587804,walk
05/08/2020, 16:46:46,11.416157,-5.2283173,3.739982,-0.82913446,-1.1698245,-2.09909,13.101580106393081,2.5420724854587804,walk
05/08/2020, 16:46:46,11.416157,-5.2283173,3.739982,-0.8218078,-1.1222012,-2.0954268,13.101580106393081,2.5150580651595673,walk
05/08/2020, 16:46:47,6.068198,-4.0007997,2.78046,0.023201112,0.36877558,0.61666113,7.7820552863098795,0.718891277076139,walk
05/08/2020, 16:46:47,5.9916277,-3.9601214,2.7565317,0.023201112,0.36877558,0.61666113,7.692894836179325,0.718891277076139,walk
05/08/2020, 16:46:47,5.9916277,-3.9601214,2.7565317,-0.028085556,0.32970002,0.51164556,7.692894836179325,0.6093209975309419,walk
05/08/2020, 16:46:47,5.8935223,-3.912265,2.7397819,-0.028085556,0.32970002,0.51164556,7.585896598214336,0.6093209975309419,walk
05/08/2020, 16:46:47,5.8935223,-3.912265,2.7397819,-0.070824444,0.28940335,0.4151778,7.585896598214336,0.5110215256163275,walk
05/08/2020, 16:46:47,5.8193445,-3.897908,2.7158537,-0.070824444,0.28940335,0.4151778,7.512277849050919,0.5110215256163275,walk
05/08/2020, 16:46:47,5.8193445,-3.897908,2.7158537,-0.10135223,0.24178001,0.32237336,7.512277849050919,0.4155170665237838,walk
05/08/2020, 16:46:47,5.7690954,-3.9481573,2.7062824,-0.10135223,0.24178001,0.32237336,7.496290577908924,0.4155170665237838,walk
05/08/2020, 16:46:47,5.7690954,-3.9481573,2.7062824,-0.12943779,0.18438779,0.22102112,7.496290577908924,0.3155999546158246,walk
05/08/2020, 16:46:47,5.709275,-3.9649072,2.7302105,-0.12943779,0.18438779,0.22102112,7.467955332943947,0.3155999546158246,walk
05/08/2020, 16:46:47,5.709275,-3.9649072,2.7302105,-0.13188,0.123332225,0.12699556,7.467955332943947,0.22075109350316316,walk
05/08/2020, 16:46:47,5.697311,-4.0414777,2.696711,-0.13188,0.123332225,0.12699556,7.487666136371066,0.22075109350316316,walk
05/08/2020, 16:46:47,5.697311,-4.0414777,2.696711,-0.12699556,0.06594,0.039075557,7.487666136371066,0.1483335967739075,walk
05/08/2020, 16:46:47,5.6997037,-4.125226,2.696711,-0.12699556,0.06594,0.039075557,7.535009122397799,0.1483335967739075,walk
05/08/2020, 16:46:47,5.6997037,-4.125226,2.696711,-0.10013112,0.0024422223,-0.051286668,7.535009122397799,0.11252789554145706,walk
05/08/2020, 16:46:47,5.706882,-4.199404,2.6919255,-0.10013112,0.0024422223,-0.051286668,7.57957499867036,0.11252789554145706,walk
05/08/2020, 16:46:47,5.706882,-4.199404,2.6919255,-0.05250778,-0.06105556,-0.14164889,7.57957499867036,0.1629394243773807,walk
05/08/2020, 16:46:47,5.692525,-4.208975,2.6632116,-0.05250778,-0.06105556,-0.14164889,7.563927880498426,0.1629394243773807,walk
05/08/2020, 16:46:47,5.692525,-4.208975,2.6632116,0.0036633336,-0.13188,-0.23445335,7.563927880498426,0.26902440027659574,walk
05/08/2020, 16:46:47,5.7284174,-4.2281175,2.6536403,0.0036633336,-0.13188,-0.23445335,7.598259659876877,0.26902440027659574,walk
05/08/2020, 16:46:48,10.047462,-5.3766723,3.845266,1.06603,0.43960002,1.8109078,12.026893948071884,2.146871072280615,walk
05/08/2020, 16:46:48,10.047462,-5.3766723,3.845266,1.0672512,0.4713489,1.8377723,12.026893948071884,2.1768329691163975,walk
05/08/2020, 16:46:48,10.164711,-5.2737813,3.8380876,1.0672512,0.4713489,1.8377723,12.077459790380649,2.1768329691163975,walk
05/08/2020, 16:46:48,10.164711,-5.2737813,3.8380876,1.0587034,0.51164556,1.8780689,12.077459790380649,2.215801659553018,walk
05/08/2020, 16:46:48,10.303494,-5.144569,3.9338005,1.0587034,0.51164556,1.8780689,12.16977293857186,2.215801659553018,walk
05/08/2020, 16:46:48,10.303494,-5.144569,3.9338005,1.0306178,0.5507211,1.8988279,12.16977293857186,2.229577155244089,walk
05/08/2020, 16:46:48,10.396814,-5.072784,3.9696927,1.0306178,0.5507211,1.8988279,12.23050880842896,2.229577155244089,walk
05/08/2020, 16:46:48,10.396814,-5.072784,3.9696927,0.9829945,0.59590226,1.9183656,12.23050880842896,2.23640431400467,walk
05/08/2020, 16:46:48,10.468599,-5.015356,3.993621,0.9829945,0.59590226,1.9183656,12.275763835136134,2.23640431400467,walk
05/08/2020, 16:46:48,10.468599,-5.015356,3.993621,0.92316,0.63619894,1.944009,12.275763835136134,2.2441355325524173,walk
05/08/2020, 16:46:48,10.509277,-4.938786,3.9864426,0.92316,0.63619894,1.944009,12.27714307432809,2.2441355325524173,walk
05/08/2020, 16:46:48,10.509277,-4.938786,3.9864426,0.8535567,0.6691689,1.9647678,12.27714307432809,2.244250117939276,walk
05/08/2020, 16:46:48,10.535598,-4.8789654,3.9338005,0.8535567,0.6691689,1.9647678,12.258789101586672,2.244250117939276,walk
05/08/2020, 16:46:48,10.535598,-4.8789654,3.9338005,0.80104893,0.69237006,1.9916323,12.258789101586672,2.2555830905610588,walk
05/08/2020, 16:46:48,10.557134,-4.8358946,3.888337,0.80104893,0.69237006,1.9916323,12.245738511069781,2.2555830905610588,walk
05/08/2020, 16:46:48,10.557134,-4.8358946,3.888337,0.75831,0.70946556,2.0062857,12.245738511069781,2.2591054980199945,walk
05/08/2020, 16:46:48,10.607383,-4.759324,3.8955152,0.75831,0.70946556,2.0062857,12.26143440473116,2.2591054980199945,walk
05/08/2020, 16:46:48,10.607383,-4.759324,3.8955152,0.7106867,0.7338878,2.019718,12.26143440473116,2.2633884723695203,walk
05/08/2020, 16:46:48,10.671989,-4.682754,3.8835511,0.7106867,0.7338878,2.019718,12.284197708093746,2.2633884723695203,walk
05/08/2020, 16:46:48,10.671989,-4.682754,3.8835511,0.6618422,0.74976224,2.0307078,12.284197708093746,2.2636149984839338,walk
05/08/2020, 16:46:49,8.774481,-5.2163534,4.034299,-0.6203245,-0.28940335,-1.1222012,10.9762208527887,1.3144931789008507,walk
05/08/2020, 16:46:49,8.774481,-5.2163534,4.034299,-0.5690378,-0.27719223,-1.0489345,10.9762208527887,1.2251134837525355,walk
05/08/2020, 16:46:49,8.664411,-5.2259245,4.048656,-0.5690378,-0.27719223,-1.0489345,10.898344506657894,1.2251134837525355,walk
05/08/2020, 16:46:49,8.664411,-5.2259245,4.048656,-0.50798225,-0.2625389,-0.9744467,10.898344506657894,1.129831424551295,walk
05/08/2020, 16:46:49,8.578269,-5.245067,4.0677986,-0.50798225,-0.2625389,-0.9744467,10.846400959595867,1.129831424551295,walk
05/08/2020, 16:46:49,8.578269,-5.245067,4.0677986,-0.45547447,-0.23201112,-0.9060645,10.846400959595867,1.0403071892721238,walk
05/08/2020, 16:46:49,8.463413,-5.2283173,4.0677986,-0.45547447,-0.23201112,-0.9060645,10.747634651083258,1.0403071892721238,walk
05/08/2020, 16:46:49,8.463413,-5.2283173,4.0677986,-0.40296668,-0.21247335,-0.8327978,10.747634651083258,0.9492519608073104,walk
05/08/2020, 16:46:49,8.327023,-5.2259245,4.0414777,-0.40296668,-0.21247335,-0.8327978,10.629352436726435,0.9492519608073104,walk
05/08/2020, 16:46:49,8.327023,-5.2259245,4.0414777,-0.35778558,-0.20392556,-0.7522045,10.629352436726435,0.8575591731721968,walk
05/08/2020, 16:46:49,8.26481,-5.237889,4.0438704,-0.35778558,-0.20392556,-0.7522045,10.587513650072054,0.8575591731721968,walk
05/08/2020, 16:46:49,8.26481,-5.237889,4.0438704,-0.30649891,-0.19049335,-0.6764956,10.587513650072054,0.7667304689811105,walk
05/08/2020, 16:46:49,8.226524,-5.194818,4.034299,-0.30649891,-0.19049335,-0.6764956,10.532682696213897,0.7667304689811105,walk
05/08/2020, 16:46:49,8.226524,-5.194818,4.034299,-0.26009667,-0.16729222,-0.6020078,10.532682696213897,0.6767941813017844,walk
05/08/2020, 16:46:49,8.152347,-5.1828537,4.017549,-0.26009667,-0.16729222,-0.6020078,10.462477144581996,0.6767941813017844,walk
05/08/2020, 16:46:49,8.152347,-5.1828537,4.017549,-0.21247335,-0.14409111,-0.52996224,10.462477144581996,0.5888693830910292,walk
05/08/2020, 16:46:49,8.111669,-5.17089,4.0151563,-0.21247335,-0.14409111,-0.52996224,10.423950739172598,0.5888693830910292,walk
05/08/2020, 16:46:49,8.111669,-5.17089,4.0151563,-0.16729222,-0.12821667,-0.4591378,10.423950739172598,0.5052066100416055,walk
05/08/2020, 16:46:49,8.0614195,-5.1613183,4.022335,-0.16729222,-0.12821667,-0.4591378,10.382912406257818,0.5052066100416055,walk
05/08/2020, 16:46:49,8.0614195,-5.1613183,4.022335,-0.11844778,-0.106236674,-0.3858711,10.382912406257818,0.41738785674047524,walk
05/08/2020, 16:46:50,7.003792,-5.003392,3.4480574,0.16362889,-0.74976224,-1.1771512,9.272331601684371,1.4052056010547727,walk
05/08/2020, 16:46:50,7.003792,-5.003392,3.4480574,0.16118668,-0.77296335,-1.229659,9.272331601684371,1.4613400151097824,walk
05/08/2020, 16:46:50,7.159325,-5.0129633,3.4504502,0.16118668,-0.77296335,-1.229659,9.396347357855198,1.4613400151097824,walk
05/08/2020, 16:46:50,7.159325,-5.0129633,3.4504502,0.15019667,-0.7998278,-1.2833878,9.396347357855198,1.5196604116303984,walk
05/08/2020, 16:46:50,7.2789664,-4.9986067,3.4743786,0.15019667,-0.7998278,-1.2833878,9.48897926862241,1.5196604116303984,walk
05/08/2020, 16:46:50,7.2789664,-4.9986067,3.4743786,0.12821667,-0.8266923,-1.32979,9.48897926862241,1.571050947321166,walk
05/08/2020, 16:46:50,7.429714,-4.9340005,3.5174494,0.12821667,-0.8266923,-1.32979,9.587359601375654,1.571050947321166,walk
05/08/2020, 16:46:50,7.429714,-4.9340005,3.5174494,0.089141116,-0.8535567,-1.3847401,9.587359601375654,1.6291133631124222,walk
05/08/2020, 16:46:50,7.570891,-4.8933225,3.5557344,0.089141116,-0.8535567,-1.3847401,9.690523254239933,1.6291133631124222,walk
05/08/2020, 16:46:50,7.570891,-4.8933225,3.5557344,0.023201112,-0.88042116,-1.4372479,9.690523254239933,1.6856337562027983,walk
05/08/2020, 16:46:50,7.769495,-4.847859,3.5700915,0.023201112,-0.88042116,-1.4372479,9.829157741382167,1.6856337562027983,walk
05/08/2020, 16:46:50,7.769495,-4.847859,3.5700915,-0.06227667,-0.8853056,-1.4824289,9.829157741382167,1.727784659014053,walk
05/08/2020, 16:46:50,7.946564,-4.843073,3.5676985,-0.06227667,-0.8853056,-1.4824289,9.966529486755007,1.727784659014053,walk
05/08/2020, 16:46:50,7.946564,-4.843073,3.5676985,-0.12943779,-0.8743156,-1.5288311,9.966529486755007,1.7659293729923398,walk
05/08/2020, 16:46:50,8.051848,-4.8382874,3.548556,-0.12943779,-0.8743156,-1.5288311,10.041590395826656,1.7659293729923398,walk
05/08/2020, 16:46:50,8.051848,-4.8382874,3.548556,-0.17217667,-0.88042116,-1.5740123,10.041590395826656,1.8117121418719893,walk
05/08/2020, 16:46:50,8.126026,-4.84068,3.522235,-0.17217667,-0.88042116,-1.5740123,10.09309783485248,1.8117121418719893,walk
05/08/2020, 16:46:50,8.126026,-4.84068,3.522235,-0.1965989,-0.8987378,-1.6301835,10.09309783485248,1.8718650721004155,walk
