DATE,TIME,ax,ay,az,gx,gy,gz,ma,mg,label
05/08/2020, 16:48:01,-2.5315359,-0.30895755,10.435101,-0.007997297,-0.6259262,-0.021742053,10.742227524942594,0.6263547534723196,walk
05/08/2020, 16:48:01,-2.5315359,-0.30895755,10.435101,0.048202284,-0.6283696,-0.07427645,10.742227524942594,0.6345776878412795,walk
05/08/2020, 16:48:01,-2.4213648,-0.2921924,10.423125,0.048202284,-0.6283696,-0.07427645,10.704668334369922,0.6345776878412795,walk
05/08/2020, 16:48:01,-2.4213648,-0.2921924,10.423125,0.076302074,-0.6295914,-0.12803257,10.704668334369922,0.6469927989972656,walk
05/08/2020, 16:48:01,-2.43813,-0.244292,10.257869,0.076302074,-0.6295914,-0.12803257,10.546469913634226,0.6469927989972656,walk
05/08/2020, 16:48:01,-2.43813,-0.244292,10.257869,0.081189,-0.640587,-0.18056695,10.546469913634226,0.6704832187301013,walk
05/08/2020, 16:48:01,-2.454895,-0.13651612,10.162068,0.081189,-0.640587,-0.18056695,10.455275209419666,0.6704832187301013,walk
05/08/2020, 16:48:01,-2.454895,-0.13651612,10.162068,0.06897169,-0.66990846,-0.24043173,10.455275209419666,0.715081715220052,walk
05/08/2020, 16:48:01,-2.4069948,-0.16046631,10.154883,0.06897169,-0.66990846,-0.24043173,10.43748197873666,0.715081715220052,walk
05/08/2020, 16:48:01,-2.4069948,-0.16046631,10.154883,0.039650172,-0.712669,-0.30640516,10.43748197873666,0.7767582514053832,walk
05/08/2020, 16:48:01,-2.3327491,-0.34727785,10.174044,0.039650172,-0.712669,-0.30640516,10.443825194951915,0.7767582514053832,walk
05/08/2020, 16:48:01,-2.3327491,-0.34727785,10.174044,-6.6691637E-4,-0.75298613,-0.36871338,10.443825194951915,0.8384140487853808,walk
05/08/2020, 16:48:01,-2.2297633,-0.48618898,10.181229,-6.6691637E-4,-0.75298613,-0.36871338,10.433869873301477,0.8384140487853808,walk
05/08/2020, 16:48:01,-2.2297633,-0.48618898,10.181229,-0.029988436,-0.77497727,-0.41758257,10.433869873301477,0.880831581155192,walk
05/08/2020, 16:48:01,-2.1603076,-0.4742139,10.207574,-0.029988436,-0.77497727,-0.41758257,10.444442190923183,0.880831581155192,walk
05/08/2020, 16:48:01,-2.1603076,-0.4742139,10.207574,-0.03854055,-0.78597283,-0.46523005,10.444442190923183,0.9141540715092471,walk
05/08/2020, 16:48:01,-2.0573218,-0.4742139,10.056687,-0.03854055,-0.78597283,-0.46523005,10.275914183811274,0.9141540715092471,walk
05/08/2020, 16:48:01,-2.0573218,-0.4742139,10.056687,-0.055644765,-0.78352934,-0.51654273,10.275914183811274,0.9401228447402116,walk
05/08/2020, 16:48:01,-1.951941,-0.4023633,9.826766,-0.055644765,-0.78352934,-0.51654273,10.026829022220566,0.9401228447402116,walk
05/08/2020, 16:48:01,-1.951941,-0.4023633,9.826766,-0.069083795,-0.78963804,-0.5654119,10.026829022220566,0.973648526984182,walk
05/08/2020, 16:48:02,-0.2706372,-1.7890797,9.388477,0.034763254,0.066794746,-0.08282856,9.561252901360746,0.11194012716739064,walk
05/08/2020, 16:48:02,-0.25387207,-1.6717237,9.316627,0.034763254,0.066794746,-0.08282856,9.468824714972694,0.11194012716739064,walk
05/08/2020, 16:48:02,-0.25387207,-1.6717237,9.316627,-0.03854055,0.04969052,-0.092602395,9.468824714972694,0.11193625446794386,walk
05/08/2020, 16:48:02,-0.244292,-1.7459693,9.369317,-0.03854055,0.04969052,-0.092602395,9.533739530602956,0.11193625446794386,walk
05/08/2020, 16:48:02,-0.244292,-1.7459693,9.369317,-0.075192444,0.02525592,-0.101154506,9.533739530602956,0.128545708905678,walk
05/08/2020, 16:48:02,-0.21076173,-1.9567311,9.395662,-0.075192444,0.02525592,-0.101154506,9.599567033442911,0.128545708905678,walk
05/08/2020, 16:48:02,-0.21076173,-1.9567311,9.395662,-0.06419688,0.02159073,-0.10848489,9.599567033442911,0.12789202198373495,walk
05/08/2020, 16:48:02,-0.14849122,-2.2321582,9.539363,-0.06419688,0.02159073,-0.10848489,9.798164342361199,0.12789202198373495,walk
05/08/2020, 16:48:02,-0.14849122,-2.2321582,9.539363,-0.011662485,0.05457744,-0.101154506,9.798164342361199,0.11552897750602512,walk
05/08/2020, 16:48:02,-0.16525635,-2.3327491,9.604029,-0.011662485,0.05457744,-0.101154506,9.884654544396499,0.11552897750602512,walk
05/08/2020, 16:48:02,-0.16525635,-2.3327491,9.604029,0.08974111,0.09855972,-0.09138066,9.884654544396499,0.16161036921698035,walk
05/08/2020, 16:48:02,-0.08861572,-2.2561085,9.733359,0.08974111,0.09855972,-0.09138066,9.991804761481934,0.16161036921698035,walk
05/08/2020, 16:48:02,-0.08861572,-2.2561085,9.733359,0.16426663,0.14009854,-0.099932775,9.991804761481934,0.23790268393919503,walk
05/08/2020, 16:48:02,-0.12933107,-2.2680836,9.699829,0.16426663,0.14009854,-0.099932775,9.962309682789325,0.23790268393919503,walk
05/08/2020, 16:48:02,-0.12933107,-2.2680836,9.699829,0.17037529,0.16819833,-0.10359797,9.962309682789325,0.26086578291626256,walk
05/08/2020, 16:48:02,-0.2921924,-2.071692,9.75731,0.17037529,0.16819833,-0.10359797,9.979097196142634,0.26086578291626256,walk
05/08/2020, 16:48:02,-0.2921924,-2.071692,9.75731,0.1422755,0.16942006,-0.086493745,9.979097196142634,0.23754292886353684,walk
05/08/2020, 16:48:02,-0.39278322,-1.7794995,9.81958,0.1422755,0.16942006,-0.086493745,9.987244372313754,0.23754292886353684,walk
05/08/2020, 16:48:02,-0.39278322,-1.7794995,9.81958,0.0934063,0.13887681,-0.07427645,9.987244372313754,0.183107879496799,walk
05/08/2020, 16:48:02,-0.5245093,-1.5687379,9.7142,0.0934063,0.13887681,-0.07427645,9.854021033564047,0.183107879496799,walk
05/08/2020, 16:48:03,-8.634046,-6.593489,3.8344264,0.79101413,1.4717842,1.2732917,11.52057588467391,2.100743669367875,walk
05/08/2020, 16:48:03,-8.835227,-6.05461,3.3626075,0.79101413,1.4717842,1.2732917,11.226159849091522,2.100743669367875,walk
05/08/2020, 16:48:03,-8.835227,-6.05461,3.3626075,0.87897867,1.4571235,1.2293094,11.226159849091522,2.0992889621971966,walk
05/08/2020, 16:48:03,-8.933423,-5.484595,3.0656252,0.87897867,1.4571235,1.2293094,10.921762010932955,2.0992889621971966,walk
05/08/2020, 16:48:03,-8.933423,-5.484595,3.0656252,0.82888776,1.3935935,1.181662,10.921762010932955,2.0063606100292306,walk
05/08/2020, 16:48:03,-8.938213,-4.91937,2.8476784,0.82888776,1.3935935,1.181662,10.592503631086322,2.0063606100292306,walk
05/08/2020, 16:48:03,-8.938213,-4.91937,2.8476784,0.72748417,1.3215115,1.1144669,10.592503631086322,1.8755432171970854,walk
05/08/2020, 16:48:03,-9.041199,-4.5553274,2.936294,0.72748417,1.3215115,1.1144669,10.541162424670375,1.8755432171970854,walk
05/08/2020, 16:48:03,-9.041199,-4.5553274,2.936294,0.6358544,1.2518729,1.0252806,10.541162424670375,1.7385904911875008,walk
05/08/2020, 16:48:03,-9.309442,-4.4571314,3.046465,0.6358544,1.2518729,1.0252806,10.761629568928647,1.7385904911875008,walk
05/08/2020, 16:48:03,-9.309442,-4.4571314,3.046465,0.57232445,1.1883429,0.9324291,10.761629568928647,1.6152826930706417,walk
05/08/2020, 16:48:03,-9.553733,-4.5888577,3.056045,0.57232445,1.1883429,0.9324291,11.030450476258448,1.6152826930706417,walk
05/08/2020, 16:48:03,-9.553733,-4.5888577,3.056045,0.5442247,1.1174825,0.8505732,11.030450476258448,1.5061283058734762,walk
05/08/2020, 16:48:03,-9.635164,-4.7014236,3.04407,0.5442247,1.1174825,0.8505732,11.144780698679686,1.5061283058734762,walk
05/08/2020, 16:48:03,-9.635164,-4.7014236,3.04407,0.5613289,1.0270746,0.7809346,11.144780698679686,1.4070647142211796,walk
05/08/2020, 16:48:03,-9.501043,-4.7325587,3.0704153,0.5613289,1.0270746,0.7809346,11.049632850412971,1.4070647142211796,walk
05/08/2020, 16:48:03,-9.501043,-4.7325587,3.0704153,0.5918721,0.9403317,0.7186263,11.049632850412971,1.3232384772478256,walk
05/08/2020, 16:48:03,-9.263936,-4.5816727,3.163821,0.5918721,0.9403317,0.7186263,10.808422579253739,1.3232384772478256,walk
05/08/2020, 16:48:03,-9.263936,-4.5816727,3.163821,0.61752844,0.87558,0.65143114,10.808422579253739,1.2539315235260489,walk
05/08/2020, 16:48:03,-9.024434,-4.4212065,3.2859669,0.61752844,0.87558,0.65143114,10.57284519978526,1.2539315235260489,walk
05/08/2020, 16:48:04,-9.438772,-3.537444,2.2704787,-0.15949182,1.2408773,0.94708985,10.332424941885304,1.5691377338982029,walk
05/08/2020, 16:48:04,-9.438772,-3.537444,2.2704787,-0.10695743,1.2787509,0.9935156,10.332424941885304,1.6228730743080326,walk
05/08/2020, 16:48:04,-9.766891,-3.6404297,2.4644752,-0.10695743,1.2787509,0.9935156,10.71067304090295,1.6228730743080326,walk
05/08/2020, 16:48:04,-9.766891,-3.6404297,2.4644752,-0.0324319,1.3105159,1.0362761,10.71067304090295,1.6710391560786493,walk
05/08/2020, 16:48:04,-10.049502,-3.7146754,2.5291407,-0.0324319,1.3105159,1.0362761,11.008535969829957,1.6710391560786493,walk
05/08/2020, 16:48:04,-10.049502,-3.7146754,2.5291407,0.055532664,1.332507,1.0668194,11.008535969829957,1.7078531888920818,walk
05/08/2020, 16:48:04,-10.190808,-3.6955154,2.6033864,0.055532664,1.332507,1.0668194,11.148409237089279,1.7078531888920818,walk
05/08/2020, 16:48:04,-10.190808,-3.6955154,2.6033864,0.14471896,1.3544981,1.0985844,11.148409237089279,1.749999006813817,walk
05/08/2020, 16:48:04,-10.248289,-3.6500099,2.6704469,0.14471896,1.3544981,1.0985844,11.201843071644475,1.749999006813817,walk
05/08/2020, 16:48:04,-10.248289,-3.6500099,2.6704469,0.20947064,1.3801545,1.136458,11.201843071644475,1.8000670108542987,walk
05/08/2020, 16:48:04,-10.195599,-3.5637891,2.6273365,0.20947064,1.3801545,1.136458,11.115472140762474,1.8000670108542987,walk
05/08/2020, 16:48:04,-10.195599,-3.5637891,2.6273365,0.24978773,1.404589,1.1718881,11.115472140762474,1.8462356512468276,walk
05/08/2020, 16:48:04,-10.193204,-3.5206788,2.6608667,0.24978773,1.404589,1.1718881,11.107510837006176,1.8462356512468276,walk
05/08/2020, 16:48:04,-10.193204,-3.5206788,2.6608667,0.2754441,1.4290237,1.2024314,11.107510837006176,1.8878081663133008,walk
05/08/2020, 16:48:04,-10.166859,-3.5134938,2.7135572,0.2754441,1.4290237,1.2024314,11.09382921753677,1.8878081663133008,walk
05/08/2020, 16:48:04,-10.166859,-3.5134938,2.7135572,0.30598733,1.4583452,1.2317529,11.09382921753677,1.9332909850141657,walk
05/08/2020, 16:48:04,-10.241104,-3.6284547,2.804568,0.30598733,1.4583452,1.2317529,11.221029323625412,1.9332909850141657,walk
05/08/2020, 16:48:04,-10.241104,-3.6284547,2.804568,0.35607827,1.4876667,1.2610744,11.221029323625412,1.9824864999838585,walk
05/08/2020, 16:48:04,-10.391991,-3.7194655,2.9817994,0.35607827,1.4876667,1.2610744,11.433241925242534,1.9824864999838585,walk
05/08/2020, 16:48:04,-10.391991,-3.7194655,2.9817994,0.42449513,1.5157665,1.2830656,11.433241925242534,2.030763754771124,walk
05/08/2020, 16:48:05,-9.189691,-3.5781593,2.5387208,1.2833713,0.54326946,-1.1029731,10.183257871631424,1.77728257100291,walk
05/08/2020, 16:48:05,-8.914263,-3.408113,2.5075855,1.2833713,0.54326946,-1.1029731,9.8674870239949,1.77728257100291,walk
05/08/2020, 16:48:05,-8.914263,-3.408113,2.5075855,1.3285754,0.5701475,-1.1103035,9.8674870239949,1.8228973142056064,walk
05/08/2020, 16:48:05,-8.672366,-3.283572,2.4189699,1.3285754,0.5701475,-1.1103035,9.583485511162593,1.8228973142056064,walk
05/08/2020, 16:48:05,-8.672366,-3.283572,2.4189699,1.3859967,0.58847344,-1.1212991,9.583485511162593,1.8773917059707168,walk
05/08/2020, 16:48:05,-8.475974,-3.2117214,2.3782544,1.3859967,0.58847344,-1.1212991,9.37087963812113,1.8773917059707168,walk
05/08/2020, 16:48:05,-8.475974,-3.2117214,2.3782544,1.4556353,0.6141298,-1.1371816,9.37087963812113,1.9465897420491238,walk
05/08/2020, 16:48:05,-8.349038,-3.166216,2.4692652,1.4556353,0.6141298,-1.1371816,9.264374314579019,1.9465897420491238,walk
05/08/2020, 16:48:05,-8.349038,-3.166216,2.4692652,1.5435998,0.64222956,-1.1518424,9.264374314579019,2.0302463138036715,walk
05/08/2020, 16:48:05,-8.3322735,-3.187771,2.684817,1.5435998,0.64222956,-1.1518424,9.316485850415498,2.0302463138036715,walk
05/08/2020, 16:48:05,-8.3322735,-3.187771,2.684817,1.64256,0.6691076,-1.1603944,9.316485850415498,2.1194866373511236,walk
05/08/2020, 16:48:05,-8.523875,-3.1542408,2.818938,1.64256,0.6691076,-1.1603944,9.515886501491034,2.1194866373511236,walk
05/08/2020, 16:48:05,-8.523875,-3.1542408,2.818938,1.7354114,0.6849901,-1.1640596,9.515886501491034,2.1990677656067423,walk
05/08/2020, 16:48:05,-8.811277,-3.1015503,2.8213332,1.7354114,0.6849901,-1.1640596,9.75797851025342,2.1990677656067423,walk
05/08/2020, 16:48:05,-8.811277,-3.1015503,2.8213332,1.8148239,0.6727728,-1.1640596,9.75797851025342,2.2585933190909784,walk
05/08/2020, 16:48:05,-9.048384,-2.9722195,2.7255323,1.8148239,0.6727728,-1.1640596,9.906354660338334,2.2585933190909784,walk
05/08/2020, 16:48:05,-9.048384,-2.9722195,2.7255323,1.8600279,0.6385644,-1.1616162,9.906354660338334,2.28403601912767,walk
05/08/2020, 16:48:05,-9.216036,-2.818938,2.6536818,1.8600279,0.6385644,-1.1616162,9.996187025950471,2.28403601912767,walk
05/08/2020, 16:48:05,-9.216036,-2.818938,2.6536818,1.8698018,0.59580386,-1.1555076,9.996187025950471,2.27735341750207,walk
05/08/2020, 16:48:05,-9.21364,-2.680027,2.5291407,1.8698018,0.59580386,-1.1555076,9.923218403015163,2.27735341750207,walk
05/08/2020, 16:48:06,-9.611214,-2.4069948,3.3218923,0.4916903,-1.604532,-0.45301273,10.45007276242192,1.7382470614211158,walk
05/08/2020, 16:48:06,-9.062755,-2.5530908,3.300337,0.4916903,-1.604532,-0.45301273,9.977174901093244,1.7382470614211158,walk
05/08/2020, 16:48:06,-9.062755,-2.5530908,3.300337,0.35974345,-1.7108225,-0.5128775,9.977174901093244,1.8219144331082886,walk
05/08/2020, 16:48:06,-8.770562,-2.682422,3.4655933,0.35974345,-1.7108225,-0.5128775,9.80451352018893,1.8219144331082886,walk
05/08/2020, 16:48:06,-8.770562,-2.682422,3.4655933,0.27422234,-1.7780176,-0.55685985,9.80451352018893,1.8832518461742127,walk
05/08/2020, 16:48:06,-8.691526,-2.8692336,3.6332448,0.27422234,-1.7780176,-0.55685985,9.847619017828347,1.8832518461742127,walk
05/08/2020, 16:48:06,-8.691526,-2.8692336,3.6332448,0.2119141,-1.8171129,-0.5959552,9.847619017828347,1.9240502994140196,walk
05/08/2020, 16:48:06,-8.933423,-2.8979738,3.796106,0.2119141,-1.8171129,-0.5959552,10.129892436809271,1.9240502994140196,walk
05/08/2020, 16:48:06,-8.933423,-2.8979738,3.796106,0.19969681,-1.839104,-0.63871574,10.129892436809271,1.9570744358140764,walk
05/08/2020, 16:48:06,-9.371712,-2.672842,3.781736,0.19969681,-1.839104,-0.63871574,10.453448792525535,1.9570744358140764,walk
05/08/2020, 16:48:06,-9.371712,-2.672842,3.781736,0.1386103,-1.8684256,-0.70713264,10.453448792525535,2.0025642648032806,walk
05/08/2020, 16:48:06,-9.917776,-2.9482691,3.5039136,0.1386103,-1.8684256,-0.70713264,10.923918005160115,2.0025642648032806,walk
05/08/2020, 16:48:06,-9.917776,-2.9482691,3.5039136,-0.012884216,-1.9307339,-0.7352324,10.923918005160115,2.06602666256213,walk
05/08/2020, 16:48:06,-10.394385,-2.8141482,3.4655933,-0.012884216,-1.9307339,-0.7352324,11.312515801436355,2.06602666256213,walk
05/08/2020, 16:48:06,-10.394385,-2.8141482,3.4655933,-0.13627896,-2.006481,-0.7340107,11.312515801436355,2.1408665040182933,walk
05/08/2020, 16:48:06,-10.645863,-2.806963,3.391348,-0.13627896,-2.006481,-0.7340107,11.520185399287449,2.1408665040182933,walk
05/08/2020, 16:48:06,-10.645863,-2.806963,3.391348,-0.27189097,-2.0492415,-0.7633322,11.520185399287449,2.203631463916745,walk
05/08/2020, 16:48:06,-10.897339,-3.1350808,3.396138,-0.27189097,-2.0492415,-0.7633322,11.836996202304576,2.203631463916745,walk
05/08/2020, 16:48:06,-10.897339,-3.1350808,3.396138,-0.3830684,-2.0822282,-0.82197523,11.836996202304576,2.271136036994115,walk
05/08/2020, 16:48:06,-11.201507,-3.4727786,3.2236965,-0.3830684,-2.0822282,-0.82197523,12.162489888554326,2.271136036994115,walk
05/08/2020, 16:48:07,-9.908196,-3.7003052,4.9481106,0.6798367,1.4607887,0.41319385,11.67683235901877,1.663373316217677,walk
05/08/2020, 16:48:07,-9.920172,-3.6260598,5.151687,0.6798367,1.4607887,0.41319385,11.751510422370966,1.663373316217677,walk
05/08/2020, 16:48:07,-9.920172,-3.6260598,5.151687,0.6627325,1.3679372,0.35577253,11.751510422370966,1.5611023781734044,walk
05/08/2020, 16:48:07,-9.994417,-3.4751735,5.206773,0.6627325,1.3679372,0.35577253,11.793035600892285,1.5611023781734044,walk
05/08/2020, 16:48:07,-9.994417,-3.4751735,5.206773,0.60042423,1.2640902,0.29957294,11.793035600892285,1.4311454116988946,walk
05/08/2020, 16:48:07,-9.948912,-3.2811768,5.144502,0.60042423,1.2640902,0.29957294,11.671026822372426,1.4311454116988946,walk
05/08/2020, 16:48:07,-9.948912,-3.2811768,5.144502,0.50512934,1.1358085,0.24215165,11.671026822372426,1.2664335527855766,walk
05/08/2020, 16:48:07,-9.802815,-3.1422658,5.142107,0.50512934,1.1358085,0.24215165,11.506966991179846,1.2664335527855766,walk
05/08/2020, 16:48:07,-9.802815,-3.1422658,5.142107,0.38173458,0.98309225,0.18106514,11.506966991179846,1.0700356274732967,walk
05/08/2020, 16:48:07,-9.592053,-2.9051588,5.1756372,0.38173458,0.98309225,0.18106514,11.279834085178644,1.0700356274732967,walk
05/08/2020, 16:48:07,-9.592053,-2.9051588,5.1756372,0.24734427,0.8425933,0.1260873,11.279834085178644,0.8871531341368025,walk
05/08/2020, 16:48:07,-9.347761,-2.7782228,5.206773,0.24734427,0.8425933,0.1260873,11.054847061503853,0.8871531341368025,walk
05/08/2020, 16:48:07,-9.347761,-2.7782228,5.206773,0.12761474,0.7191986,0.08332673,11.054847061503853,0.7351703669711832,walk
05/08/2020, 16:48:07,-9.328602,-2.7375073,5.2762284,0.12761474,0.7191986,0.08332673,11.061435038640006,0.7351703669711832,walk
05/08/2020, 16:48:07,-9.328602,-2.7375073,5.2762284,0.031098064,0.60435593,0.05156175,11.061435038640006,0.6073481665191859,walk
05/08/2020, 16:48:07,-9.522598,-2.7207422,5.376819,0.031098064,0.60435593,0.05156175,11.269094906098427,0.6073481665191859,walk
05/08/2020, 16:48:07,-9.522598,-2.7207422,5.376819,-0.053201303,0.48706985,0.025905417,11.269094906098427,0.490651101472202,walk
05/08/2020, 16:48:07,-9.73815,-2.6297317,5.3792143,-0.053201303,0.48706985,0.025905417,11.431666256048588,0.490651101472202,walk
05/08/2020, 16:48:07,-9.73815,-2.6297317,5.3792143,-0.13872242,0.34901437,-0.003416102,11.431666256048588,0.37558835325022133,walk
05/08/2020, 16:48:07,-9.862691,-2.6297317,5.3097587,-0.13872242,0.34901437,-0.003416102,11.5057245722731,0.37558835325022133,walk
05/08/2020, 16:48:08,-7.472461,-2.1124072,2.5459058,0.33530885,1.1529127,0.65753984,8.171999598382227,1.3689406300400533,walk
05/08/2020, 16:48:08,-7.810159,-1.7651294,2.090852,0.33530885,1.1529127,0.65753984,8.275622693936015,1.3689406300400533,walk
05/08/2020, 16:48:08,-7.810159,-1.7651294,2.090852,0.19480988,1.1077087,0.63554865,8.275622693936015,1.291855845850007,walk
05/08/2020, 16:48:08,-8.262817,-1.5591577,1.7363893,0.19480988,1.1077087,0.63554865,8.586045169667385,1.291855845850007,walk
05/08/2020, 16:48:08,-8.262817,-1.5591577,1.7363893,0.009106924,1.056396,0.6404356,8.586045169667385,1.2354000114829593,walk
05/08/2020, 16:48:08,-8.703502,-1.4441968,1.468147,0.009106924,1.056396,0.6404356,8.943830390301127,1.2354000114829593,walk
05/08/2020, 16:48:08,-8.703502,-1.4441968,1.468147,-0.21202622,1.0136355,0.6697571,8.943830390301127,1.2332828910234102,walk
05/08/2020, 16:48:08,-9.182506,-1.341211,1.2933106,-0.21202622,1.0136355,0.6697571,9.369626913269173,1.2332828910234102,walk
05/08/2020, 16:48:08,-9.182506,-1.341211,1.2933106,-0.45759395,0.9782053,0.7222915,9.369626913269173,1.299223971616426,walk
05/08/2020, 16:48:08,-9.730965,-1.2813355,1.2094849,-0.45759395,0.9782053,0.7222915,9.889203589205799,1.299223971616426,walk
05/08/2020, 16:48:08,-9.730965,-1.2813355,1.2094849,-0.7275963,0.93422306,0.79315186,9.889203589205799,1.4252224159307265,walk
05/08/2020, 16:48:08,-10.296189,-1.3483961,1.3076807,-0.7275963,0.93422306,0.79315186,10.466122256748214,1.4252224159307265,walk
05/08/2020, 16:48:08,-10.296189,-1.3483961,1.3076807,-1.0195898,0.8743583,0.87622947,10.466122256748214,1.6036969255109395,walk
05/08/2020, 16:48:08,-10.796748,-1.4992822,1.4274317,-1.0195898,0.8743583,0.87622947,10.993415272893438,1.6036969255109395,walk
05/08/2020, 16:48:08,-10.796748,-1.4992822,1.4274317,-1.3323526,0.8096066,0.96785927,10.993415272893438,1.8350416838346018,walk
05/08/2020, 16:48:08,-11.211087,-1.7699195,1.6645386,-1.3323526,0.8096066,0.96785927,11.471346072741458,1.8350416838346018,walk
05/08/2020, 16:48:08,-11.211087,-1.7699195,1.6645386,-1.6243461,0.7411897,1.0778149,11.471346072741458,2.0855569062034456,walk
05/08/2020, 16:48:08,-11.520044,-2.1100123,1.9950514,-1.6243461,0.7411897,1.0778149,11.880395750636639,2.0855569062034456,walk
05/08/2020, 16:48:08,-11.520044,-2.1100123,1.9950514,-1.9041224,0.6886553,1.1987662,11.880395750636639,2.353076402699712,walk
05/08/2020, 16:48:08,-11.64219,-2.4525,2.1076174,-1.9041224,0.6886553,1.1987662,12.082938189761713,2.353076402699712,walk
05/08/2020, 16:48:09,-8.0305,-3.1015503,2.7087672,0.74703187,-0.223977,-0.40047836,9.024742156679102,0.8767013326339365,walk
05/08/2020, 16:48:09,-8.006551,-2.7782228,2.562671,0.74703187,-0.223977,-0.40047836,8.853850000737292,0.8767013326339365,walk
05/08/2020, 16:48:09,-8.006551,-2.7782228,2.562671,0.84354854,-0.16289051,-0.3125138,8.853850000737292,0.9142058439870531,walk
05/08/2020, 16:48:09,-7.92512,-2.4812403,2.44292,0.84354854,-0.16289051,-0.3125138,8.656323488079686,0.9142058439870531,walk
05/08/2020, 16:48:09,-7.92512,-2.4812403,2.44292,0.89119595,-0.101804,-0.2233275,8.656323488079686,0.9243751700062207,walk
05/08/2020, 16:48:09,-7.7694435,-2.3327491,2.3303542,0.89119595,-0.101804,-0.2233275,8.440173087249958,0.9243751700062207,walk
05/08/2020, 16:48:09,-7.7694435,-2.3327491,2.3303542,0.8838656,-0.043160964,-0.12681083,8.440173087249958,0.8939587496929511,walk
05/08/2020, 16:48:09,-7.6257424,-2.1722827,2.2920337,0.8838656,-0.043160964,-0.12681083,8.253737223667484,0.8939587496929511,walk
05/08/2020, 16:48:09,-7.6257424,-2.1722827,2.2920337,0.84232676,0.0130386185,-0.025407242,8.253737223667484,0.842810716949466,walk
05/08/2020, 16:48:09,-7.5083866,-2.0381618,2.2608986,0.84232676,0.0130386185,-0.025407242,8.101952560151519,0.842810716949466,walk
05/08/2020, 16:48:09,-7.5083866,-2.0381618,2.2608986,0.7678012,0.06801647,0.080883265,8.101952560151519,0.7750400402556229,walk
05/08/2020, 16:48:09,-7.448511,-1.9232007,2.2345533,0.7678012,0.06801647,0.080883265,8.010758241890878,0.7750400402556229,walk
05/08/2020, 16:48:09,-7.448511,-1.9232007,2.2345533,0.660289,0.1181074,0.18717378,8.010758241890878,0.6963942368938886,walk
05/08/2020, 16:48:09,-7.4676714,-1.8561403,2.1650977,0.660289,0.1181074,0.18717378,7.993686309364233,0.6963942368938886,walk
05/08/2020, 16:48:09,-7.4676714,-1.8561403,2.1650977,0.53567255,0.1669766,0.3020164,7.993686309364233,0.6372128148609179,walk
05/08/2020, 16:48:09,-7.470066,-1.8561403,2.2441335,0.53567255,0.1669766,0.3020164,8.01768537611046,0.6372128148609179,walk
05/08/2020, 16:48:09,-7.470066,-1.8561403,2.2441335,0.40861264,0.21095888,0.4205242,8.01768537611046,0.6231440843637098,walk
05/08/2020, 16:48:09,-7.4676714,-1.8848804,2.2249732,0.40861264,0.21095888,0.4205242,8.016819569726211,0.6231440843637098,walk
05/08/2020, 16:48:09,-7.4676714,-1.8848804,2.2249732,0.28155273,0.25127596,0.5414755,8.016819569726211,0.660005482643404,walk
05/08/2020, 16:48:09,-7.4988065,-1.9687061,2.2321582,0.28155273,0.25127596,0.5414755,8.06786418838254,0.660005482643404,walk
05/08/2020, 16:48:10,-9.889036,-2.9458742,6.495293,0.19480988,-0.9863365,-1.3436539,12.192622540169126,1.6781586603450769,walk
05/08/2020, 16:48:10,-9.347761,-2.4501052,5.815108,0.19480988,-0.9863365,-1.3436539,11.278259308300717,1.6781586603450769,walk
05/08/2020, 16:48:10,-9.347761,-2.4501052,5.815108,0.17281874,-1.1036227,-1.3900797,11.278259308300717,1.7833033949127655,walk
05/08/2020, 16:48:10,-8.964559,-1.9902613,5.1540823,0.17281874,-1.1036227,-1.3900797,10.530385337781055,1.7833033949127655,walk
05/08/2020, 16:48:10,-8.964559,-1.9902613,5.1540823,0.08729765,-1.1940306,-1.4352837,10.530385337781055,1.8690557085986768,walk
05/08/2020, 16:48:10,-8.756192,-1.6908839,4.526587,0.08729765,-1.1940306,-1.4352837,10.000998960310554,1.8690557085986768,walk
05/08/2020, 16:48:10,-8.756192,-1.6908839,4.526587,-0.03731882,-1.2587824,-1.4865963,10.000998960310554,1.9483055425450673,walk
05/08/2020, 16:48:10,-8.629255,-1.4298267,4.0691385,-0.03731882,-1.2587824,-1.4865963,9.647089705726515,1.9483055425450673,walk
05/08/2020, 16:48:10,-8.629255,-1.4298267,4.0691385,-0.1827047,-1.3052081,-1.5305786,9.647089705726515,2.0198069338081144,walk
05/08/2020, 16:48:10,-8.629255,-1.3867164,3.803291,-0.1827047,-1.3052081,-1.5305786,9.53163429215449,2.0198069338081144,walk
05/08/2020, 16:48:10,-8.629255,-1.3867164,3.803291,-0.31709498,-1.3369731,-1.5574567,9.53163429215449,2.0769491307348225,walk
05/08/2020, 16:48:10,-8.727451,-1.5040723,3.8440065,-0.31709498,-1.3369731,-1.5574567,9.654378612701109,2.0769491307348225,walk
05/08/2020, 16:48:10,-8.727451,-1.5040723,3.8440065,-0.39284223,-1.3491904,-1.5623436,9.654378612701109,2.101322714103868,walk
05/08/2020, 16:48:10,-8.923843,-1.7914747,4.0523734,-0.39284223,-1.3491904,-1.5623436,9.96323705364936,2.101322714103868,walk
05/08/2020, 16:48:10,-8.923843,-1.7914747,4.0523734,-0.40261608,-1.3418599,-1.5403525,9.96323705364936,2.082155977117181,walk
05/08/2020, 16:48:10,-9.242381,-2.3016138,4.28948,-0.40261608,-1.3418599,-1.5403525,10.445988460059706,2.082155977117181,walk
05/08/2020, 16:48:10,-9.242381,-2.3016138,4.28948,-0.3451948,-1.3259774,-1.492705,10.445988460059706,2.0262141555933746,walk
05/08/2020, 16:48:10,-9.711804,-2.6704469,4.550537,-0.3451948,-1.3259774,-1.492705,11.052502838384353,2.0262141555933746,walk
05/08/2020, 16:48:10,-9.711804,-2.6704469,4.550537,-0.23035218,-1.323534,-1.4242882,11.052502838384353,1.9579073397715747,walk
05/08/2020, 16:48:10,-10.224339,-3.1063404,4.8139896,-0.23035218,-1.323534,-1.4242882,11.720108591054364,1.9579073397715747,walk
05/08/2020, 16:48:11,-8.8879175,-3.891907,2.7375073,-2.1631289,0.19263293,0.48649764,10.081466370899621,2.2255142851630842,walk
05/08/2020, 16:48:11,-8.631651,-4.0044727,3.1135256,-2.1631289,0.19263293,0.48649764,10.011755160508745,2.2255142851630842,walk
05/08/2020, 16:48:11,-8.631651,-4.0044727,3.1135256,-2.0299604,0.20118505,0.44129363,10.011755160508745,2.0870924007972778,walk
05/08/2020, 16:48:11,-8.387359,-3.9541774,3.542234,-2.0299604,0.20118505,0.44129363,9.92626442556175,2.0870924007972778,walk
05/08/2020, 16:48:11,-8.387359,-3.9541774,3.542234,-1.8760226,0.20362851,0.38265058,9.92626442556175,1.9254471558807549,walk
05/08/2020, 16:48:11,-8.222102,-3.887117,3.9350173,-1.8760226,0.20362851,0.38265058,9.909440115547863,1.9254471558807549,walk
05/08/2020, 16:48:11,-8.222102,-3.887117,3.9350173,-1.7220845,0.19263293,0.30812505,9.909440115547863,1.7600067024438741,walk
05/08/2020, 16:48:11,-8.1071415,-3.7074904,4.272715,-1.7220845,0.19263293,0.30812505,9.885713068085193,1.7600067024438741,walk
05/08/2020, 16:48:11,-8.1071415,-3.7074904,4.272715,-1.588916,0.17675045,0.23359953,9.885713068085193,1.6156928356752833,walk
05/08/2020, 16:48:11,-8.068821,-3.5613942,4.4379716,-1.588916,0.17675045,0.23359953,9.873448849337311,1.6156928356752833,walk
05/08/2020, 16:48:11,-8.068821,-3.5613942,4.4379716,-1.4997296,0.1633114,0.17373475,9.873448849337311,1.5185662164023561,walk
05/08/2020, 16:48:11,-7.9897857,-3.278782,4.3254056,-1.4997296,0.1633114,0.17373475,9.658996808398358,1.5185662164023561,walk
05/08/2020, 16:48:11,-7.9897857,-3.278782,4.3254056,-1.4789603,0.14865066,0.11753517,9.658996808398358,1.4910516528109072,walk
05/08/2020, 16:48:11,-7.879615,-2.9674294,4.1242237,-1.4789603,0.14865066,0.11753517,9.375670019424781,1.4910516528109072,walk
05/08/2020, 16:48:11,-7.879615,-2.9674294,4.1242237,-1.5192773,0.11688568,0.06377905,9.375670019424781,1.5251011923083335,walk
05/08/2020, 16:48:11,-7.829319,-2.8907888,4.0523734,-1.5192773,0.11688568,0.06377905,9.277748978321563,1.5251011923083335,walk
05/08/2020, 16:48:11,-7.829319,-2.8907888,4.0523734,-1.5901377,0.072903395,0.007579468,9.277748978321563,1.59182609672259,walk
05/08/2020, 16:48:11,-7.8484793,-3.04407,4.0763235,-1.5901377,0.072903395,0.007579468,9.353149331426582,1.59182609672259,walk
05/08/2020, 16:48:11,-7.8484793,-3.04407,4.0763235,-1.6328982,0.04236014,-0.051063575,9.353149331426582,1.6342455259331046,walk
05/08/2020, 16:48:11,-7.9826,-3.3769777,4.2751102,-1.6328982,0.04236014,-0.051063575,9.664494400455833,1.6342455259331046,walk
05/08/2020, 16:48:12,-9.266331,-3.5542092,2.5938063,0.16426663,1.016079,1.62515,10.257929577188955,1.9236715848298316,walk
05/08/2020, 16:48:12,-9.266331,-3.5542092,2.5938063,0.23268351,1.0392919,1.6544715,10.257929577188955,1.9676242482775004,walk
05/08/2020, 16:48:12,-9.7740755,-3.7266505,2.7207422,0.23268351,1.0392919,1.6544715,10.80846492664299,1.9676242482775004,walk
05/08/2020, 16:48:12,-9.7740755,-3.7266505,2.7207422,0.28766137,1.0588396,1.6752409,10.80846492664299,2.0025789037245065,walk
05/08/2020, 16:48:12,-10.049502,-3.7601807,2.687212,0.28766137,1.0588396,1.6752409,11.061309380260765,2.0025789037245065,walk
05/08/2020, 16:48:12,-10.049502,-3.7601807,2.687212,0.30598733,1.0735003,1.6874583,11.061309380260765,2.023251472897265,walk
05/08/2020, 16:48:12,-10.255474,-3.558999,2.5698562,0.30598733,1.0735003,1.6874583,11.155509126036419,2.023251472897265,walk
05/08/2020, 16:48:12,-10.255474,-3.558999,2.5698562,0.2754441,1.0857176,1.6825713,11.155509126036419,2.0213110144016815,walk
05/08/2020, 16:48:12,-10.312955,-3.3554225,2.3495142,0.2754441,1.0857176,1.6825713,11.096671399485905,2.0213110144016815,walk
05/08/2020, 16:48:12,-10.312955,-3.3554225,2.3495142,0.17892739,1.1089305,1.6727974,11.096671399485905,2.0149424497623594,walk
05/08/2020, 16:48:12,-10.423125,-3.1925611,2.1124072,0.17892739,1.1089305,1.6727974,11.103884511122361,2.0149424497623594,walk
05/08/2020, 16:48:12,-10.423125,-3.1925611,2.1124072,0.031098064,1.1370302,1.6752409,11.103884511122361,2.024904158710597,walk
05/08/2020, 16:48:12,-10.595567,-3.0225148,2.0166066,0.031098064,1.1370302,1.6752409,11.201264778482532,2.024904158710597,walk
05/08/2020, 16:48:12,-10.595567,-3.0225148,2.0166066,-0.13505723,1.1724604,1.6935669,11.201264778482532,2.0642366233465945,walk
05/08/2020, 16:48:12,-10.94045,-2.955454,1.9663111,-0.13505723,1.1724604,1.6935669,11.501935849785786,2.0642366233465945,walk
05/08/2020, 16:48:12,-10.94045,-2.955454,1.9663111,-0.3060994,1.2396555,1.7253319,11.501935849785786,2.146441886254878,walk
05/08/2020, 16:48:12,-11.553575,-2.9794044,1.949546,-0.3060994,1.2396555,1.7253319,12.089775248574217,2.146441886254878,walk
05/08/2020, 16:48:12,-11.553575,-2.9794044,1.949546,-0.47958508,1.3215115,1.7619838,12.089775248574217,2.254103204527745,walk
05/08/2020, 16:48:12,-12.430152,-3.1111305,1.8896705,-0.47958508,1.3215115,1.7619838,12.952168337403519,2.254103204527745,walk
05/08/2020, 16:48:12,-12.430152,-3.1111305,1.8896705,-0.6616229,1.3887066,1.805966,12.952168337403519,2.3722908812590324,walk
05/08/2020, 16:48:13,-11.51765,-5.3049684,4.169729,0.628524,-1.7633568,-1.4352837,13.34861732981414,2.3589211164846544,walk
05/08/2020, 16:48:13,-11.297308,-5.1947975,3.9637575,0.628524,-1.7633568,-1.4352837,13.050918059478537,2.3589211164846544,walk
05/08/2020, 16:48:13,-11.297308,-5.1947975,3.9637575,0.6810584,-1.767022,-1.3632016,13.050918059478537,2.3333508099160656,walk
05/08/2020, 16:48:13,-10.8925495,-4.998406,3.5829494,0.6810584,-1.767022,-1.3632016,12.508765854758233,2.3333508099160656,walk
05/08/2020, 16:48:13,-10.8925495,-4.998406,3.5829494,0.678615,-1.767022,-1.2996716,12.508765854758233,2.296090476740847,walk
05/08/2020, 16:48:13,-10.475816,-4.5816727,3.2045362,0.678615,-1.767022,-1.2996716,11.874489159761325,2.296090476740847,walk
05/08/2020, 16:48:13,-10.475816,-4.5816727,3.2045362,0.6517369,-1.7596917,-1.2459155,11.874489159761325,2.252461198858555,walk
05/08/2020, 16:48:13,-10.013577,-4.287085,2.8428884,0.6517369,-1.7596917,-1.2459155,11.257568389876456,2.252461198858555,walk
05/08/2020, 16:48:13,-10.013577,-4.287085,2.8428884,0.596759,-1.740144,-1.203155,11.257568389876456,2.198136613645719,walk
05/08/2020, 16:48:13,-9.508228,-3.7434156,2.579436,0.596759,-1.740144,-1.203155,10.539120274491996,2.198136613645719,walk
05/08/2020, 16:48:13,-9.508228,-3.7434156,2.579436,0.5161249,-1.7120442,-1.189716,10.539120274491996,2.1477673313772403,walk
05/08/2020, 16:48:13,-9.026829,-3.293152,2.4620802,0.5161249,-1.7120442,-1.189716,9.919189855589256,2.1477673313772403,walk
05/08/2020, 16:48:13,-9.026829,-3.293152,2.4620802,0.40861264,-1.6692836,-1.1958246,9.919189855589256,2.093673482184695,walk
05/08/2020, 16:48:13,-8.55501,-2.8309133,2.2680836,0.40861264,-1.6692836,-1.1958246,9.292279947821791,2.093673482184695,walk
05/08/2020, 16:48:13,-8.55501,-2.8309133,2.2680836,0.27055717,-1.617971,-1.2141505,9.292279947821791,2.0408803753837352,walk
05/08/2020, 16:48:13,-8.056846,-2.4572902,2.0980372,0.27055717,-1.617971,-1.2141505,8.68059890411193,2.0408803753837352,walk
05/08/2020, 16:48:13,-8.056846,-2.4572902,2.0980372,0.105623595,-1.56788,-1.2373635,8.68059890411193,2.0001181146938642,walk
05/08/2020, 16:48:13,-7.7239385,-2.1770728,1.9327809,0.105623595,-1.56788,-1.2373635,8.25436327588096,2.0001181146938642,walk
05/08/2020, 16:48:13,-7.7239385,-2.1770728,1.9327809,-0.08007937,-1.5116805,-1.253246,8.25436327588096,1.9652521469491062,walk
05/08/2020, 16:48:13,-7.3383403,-2.066902,1.84177,-0.08007937,-1.5116805,-1.253246,7.843177837125791,1.9652521469491062,walk
05/08/2020, 16:48:14,-9.263936,-4.1050634,4.785249,1.6413382,-1.3198688,-1.049217,11.205831832689569,2.353062073734809,walk
05/08/2020, 16:48:14,-9.503438,-4.0595584,4.670288,1.6413382,-1.3198688,-1.049217,11.340499939700312,2.353062073734809,walk
05/08/2020, 16:48:14,-9.503438,-4.0595584,4.670288,1.655999,-1.3675163,-1.1103035,11.340499939700312,2.4176863298717706,walk
05/08/2020, 16:48:14,-9.72857,-4.169729,4.591253,1.655999,-1.3675163,-1.1103035,11.537387838036022,2.4176863298717706,walk
05/08/2020, 16:48:14,-9.72857,-4.169729,4.591253,1.6511121,-1.4078335,-1.157951,11.537387838036022,2.459474873701154,walk
05/08/2020, 16:48:14,-9.8938265,-4.296665,4.517007,1.6511121,-1.4078335,-1.157951,11.694121830160029,2.459474873701154,walk
05/08/2020, 16:48:14,-9.8938265,-4.296665,4.517007,1.64256,-1.4469287,-1.2117071,11.694121830160029,2.5019672821469996,walk
05/08/2020, 16:48:14,-10.114168,-4.622388,4.6511283,1.64256,-1.4469287,-1.2117071,12.053873314049994,2.5019672821469996,walk
05/08/2020, 16:48:14,-10.114168,-4.622388,4.6511283,1.6413382,-1.4872459,-1.2862327,12.053873314049994,2.561305562624003,walk
05/08/2020, 16:48:14,-10.542876,-5.113367,5.0343313,1.6413382,-1.4872459,-1.2862327,12.75316644000087,2.561305562624003,walk
05/08/2020, 16:48:14,-10.542876,-5.113367,5.0343313,1.7134203,-1.5177891,-1.365645,12.75316644000087,2.665422905038921,walk
05/08/2020, 16:48:14,-11.326048,-5.863008,5.3935843,1.7134203,-1.5177891,-1.365645,13.847200985017059,2.665422905038921,walk
05/08/2020, 16:48:14,-11.326048,-5.863008,5.3935843,1.8930146,-1.5336716,-1.4194012,13.847200985017059,2.8196369262210594,walk
05/08/2020, 16:48:14,-12.245735,-6.550379,5.848638,1.8930146,-1.5336716,-1.4194012,15.06891035749425,2.8196369262210594,walk
05/08/2020, 16:48:14,-12.245735,-6.550379,5.848638,2.117813,-1.5446671,-1.4438359,15.06891035749425,2.992622741255948,walk
05/08/2020, 16:48:14,-12.803775,-6.8665214,6.085745,2.117813,-1.5446671,-1.4438359,15.751890554223964,2.992622741255948,walk
05/08/2020, 16:48:14,-12.803775,-6.8665214,6.085745,2.276638,-1.5752105,-1.4878181,15.751890554223964,3.1429240296971357,walk
05/08/2020, 16:48:14,-12.899576,-6.720425,5.855823,2.276638,-1.5752105,-1.4878181,15.679727140394018,3.1429240296971357,walk
05/08/2020, 16:48:14,-12.899576,-6.720425,5.855823,2.303516,-1.6448491,-1.5599002,15.679727140394018,3.2318729110043676,walk
05/08/2020, 16:48:14,-12.758269,-6.198311,5.333709,2.303516,-1.6448491,-1.5599002,15.15390848510332,3.2318729110043676,walk
05/08/2020, 16:48:15,-11.958333,-2.8620484,4.6104126,0.08851938,1.6574873,0.62577486,13.131982097207704,1.7738923071332435,walk
05/08/2020, 16:48:15,-11.675721,-2.9099488,4.6966333,0.08851938,1.6574873,0.62577486,12.91699004003248,1.7738923071332435,walk
05/08/2020, 16:48:15,-11.675721,-2.9099488,4.6966333,-0.0324319,1.5389794,0.61966616,12.91699004003248,1.6593660249736193,walk
05/08/2020, 16:48:15,-11.294912,-2.9985645,5.017566,-0.0324319,1.5389794,0.61966616,12.717798720386579,1.6593660249736193,walk
05/08/2020, 16:48:15,-11.294912,-2.9985645,5.017566,-0.11306607,1.4449062,0.60989237,12.717798720386579,1.5724206384618635,walk
05/08/2020, 16:48:15,-10.95482,-3.1302907,5.1564775,-0.11306607,1.4449062,0.60989237,12.505840798200301,1.5724206384618635,walk
05/08/2020, 16:48:15,-10.95482,-3.1302907,5.1564775,-0.15093972,1.3728241,0.58912295,12.505840798200301,1.5014974474938556,walk
05/08/2020, 16:48:15,-10.811119,-3.2380664,5.3863993,-0.15093972,1.3728241,0.58912295,12.505145623935938,1.5014974474938556,walk
05/08/2020, 16:48:15,-10.811119,-3.2380664,5.3863993,-0.1423876,1.2970768,0.5585797,12.505145623935938,1.4193990881012803,walk
05/08/2020, 16:48:15,-10.6817875,-3.297942,5.503755,-0.1423876,1.2970768,0.5585797,12.460671131505356,1.4193990881012803,walk
05/08/2020, 16:48:15,-10.6817875,-3.297942,5.503755,-0.11306607,1.2078906,0.5133757,12.460671131505356,1.317322404909252,walk
05/08/2020, 16:48:15,-10.483001,-3.2548318,5.527705,-0.11306607,1.2078906,0.5133757,12.289945464442122,1.317322404909252,walk
05/08/2020, 16:48:15,-10.483001,-3.2548318,5.527705,-0.097183585,1.0991566,0.45961958,12.289945464442122,1.1953409891159221,walk
05/08/2020, 16:48:15,-10.075848,-3.175796,5.49178,-0.097183585,1.0991566,0.45961958,11.906638116264588,1.1953409891159221,walk
05/08/2020, 16:48:15,-10.075848,-3.175796,5.49178,-0.09229667,0.97942704,0.3960896,11.906638116264588,1.0605107178293718,walk
05/08/2020, 16:48:15,-9.544153,-3.04407,5.465435,-0.09229667,0.97942704,0.3960896,11.411757218184308,1.0605107178293718,walk
05/08/2020, 16:48:15,-9.544153,-3.04407,5.465435,-0.10084878,0.86458445,0.326451,11.411757218184308,0.9296488574438496,walk
05/08/2020, 16:48:15,-9.065149,-2.9674294,5.5564456,-0.10084878,0.86458445,0.326451,11.038870272538734,0.9296488574438496,walk
05/08/2020, 16:48:15,-9.065149,-2.9674294,5.5564456,-0.1057357,0.75585043,0.25436893,11.038870272538734,0.8044833557702625,walk
05/08/2020, 16:48:15,-8.636441,-2.9099488,5.606741,-0.1057357,0.75585043,0.25436893,10.700068382924075,0.8044833557702625,walk
05/08/2020, 16:48:16,-6.5192432,-2.7806177,2.320774,-3.2932293,0.7912806,0.5927881,7.4577717597667705,3.438441835863131,walk
05/08/2020, 16:48:16,-6.4114676,-3.7003052,2.5291407,-3.2932293,0.7912806,0.5927881,7.822769819872315,3.438441835863131,walk
05/08/2020, 16:48:16,-6.4114676,-3.7003052,2.5291407,-3.2602425,0.8731365,0.70518726,7.822769819872315,3.4480193399276184,walk
05/08/2020, 16:48:16,-6.4210477,-4.639153,2.7830129,-3.2602425,0.8731365,0.70518726,8.396234549782033,3.4480193399276184,walk
05/08/2020, 16:48:16,-6.4210477,-4.639153,2.7830129,-3.023227,0.9574359,0.8310255,8.396234549782033,3.2782904409485307,walk
05/08/2020, 16:48:16,-6.4593678,-5.4366946,2.955454,-3.023227,0.9574359,0.8310255,8.94515450803835,3.2782904409485307,walk
05/08/2020, 16:48:16,-6.4593678,-5.4366946,2.955454,-2.6457124,1.0380701,0.9849635,8.94515450803835,3.0079123194488675,walk
05/08/2020, 16:48:16,-6.5168486,-5.985154,3.0704153,-2.6457124,1.0380701,0.9849635,9.365833400680513,3.0079123194488675,walk
05/08/2020, 16:48:16,-6.5168486,-5.985154,3.0704153,-2.198559,1.1321433,1.1572274,9.365833400680513,2.7303086794587,walk
05/08/2020, 16:48:16,-6.581514,-6.1312504,2.9338992,-2.198559,1.1321433,1.1572274,9.461306491217572,2.7303086794587,walk
05/08/2020, 16:48:16,-6.581514,-6.1312504,2.9338992,-1.7355236,1.2359904,1.3197175,9.461306491217572,2.506265894313249,walk
05/08/2020, 16:48:16,-6.67971,-5.9372535,2.668052,-1.7355236,1.2359904,1.3197175,9.32673600888449,2.506265894313249,walk
05/08/2020, 16:48:16,-6.67971,-5.9372535,2.668052,-1.3115833,1.319068,1.4638816,9.32673600888449,2.367095339280367,walk
05/08/2020, 16:48:16,-6.9862723,-5.601951,2.6033864,-1.3115833,1.319068,1.4638816,9.325635542673435,2.367095339280367,walk
05/08/2020, 16:48:16,-6.9862723,-5.601951,2.6033864,-0.9536164,1.3557199,1.6007154,9.325635542673435,2.304267888440766,walk
05/08/2020, 16:48:16,-7.563472,-5.2355127,3.0919704,-0.9536164,1.3557199,1.6007154,9.704482489430594,2.304267888440766,walk
05/08/2020, 16:48:16,-7.563472,-5.2355127,3.0919704,-0.69216615,1.3544981,1.7412144,9.704482489430594,2.3120525035927373,walk
05/08/2020, 16:48:16,-8.301138,-4.993616,3.6332448,-0.69216615,1.3544981,1.7412144,10.346282427337957,2.3120525035927373,walk
05/08/2020, 16:48:16,-8.301138,-4.993616,3.6332448,-0.52112395,1.3312854,1.874383,10.346282427337957,2.3573719261576236,walk
05/08/2020, 16:48:16,-9.105865,-4.7708793,3.9972878,-0.52112395,1.3312854,1.874383,11.029794517533578,2.3573719261576236,walk
05/08/2020, 16:48:17,-10.614727,-6.0570045,4.272715,0.86553967,-1.3785119,-2.9209073,12.946653115695273,3.3438231427524943,walk
05/08/2020, 16:48:17,-10.686578,-6.1240654,4.054768,0.86553967,-1.3785119,-2.9209073,12.967199630232486,3.3438231427524943,walk
05/08/2020, 16:48:17,-10.686578,-6.1240654,4.054768,0.8154487,-1.3992813,-2.9367898,12.967199630232486,3.3537559065084888,walk
05/08/2020, 16:48:17,-10.617122,-6.0186844,3.8559816,0.8154487,-1.3992813,-2.9367898,12.799079220018491,3.3537559065084888,walk
05/08/2020, 16:48:17,-10.617122,-6.0186844,3.8559816,0.7665795,-1.4432635,-2.931903,12.799079220018491,3.356591767262762,walk
05/08/2020, 16:48:17,-10.31535,-6.013894,4.016448,0.7665795,-1.4432635,-2.931903,12.597825751207463,3.356591767262762,walk
05/08/2020, 16:48:17,-10.31535,-6.013894,4.016448,0.737258,-1.5031284,-2.9453418,12.597825751207463,3.3879171872669596,walk
05/08/2020, 16:48:17,-9.958491,-6.248606,4.164939,0.737258,-1.5031284,-2.9453418,12.472503567678302,3.3879171872669596,walk
05/08/2020, 16:48:17,-9.958491,-6.248606,4.164939,0.7018278,-1.5324498,-2.981994,12.472503567678302,3.4253835569849795,walk
05/08/2020, 16:48:17,-9.704619,-6.586304,4.2272096,0.7018278,-1.5324498,-2.981994,12.467090335491275,3.4253835569849795,walk
05/08/2020, 16:48:17,-9.704619,-6.586304,4.2272096,0.7091582,-1.522676,-2.989324,12.467090335491275,3.42892199287628,walk
05/08/2020, 16:48:17,-9.496253,-6.68929,4.1146436,0.7091582,-1.522676,-2.989324,12.32297506150105,3.42892199287628,walk
05/08/2020, 16:48:17,-9.496253,-6.68929,4.1146436,0.7873489,-1.5006849,-2.9514506,12.32297506150105,3.403385657840884,walk
05/08/2020, 16:48:17,-9.223221,-6.4905033,3.9398074,0.7873489,-1.5006849,-2.9514506,11.946401888845685,3.403385657840884,walk
05/08/2020, 16:48:17,-9.223221,-6.4905033,3.9398074,0.8960829,-1.4848024,-2.8989162,11.946401888845685,3.378064235789785,walk
05/08/2020, 16:48:17,-8.825647,-6.0737696,3.6859353,0.8960829,-1.4848024,-2.8989162,11.329997649340902,3.378064235789785,walk
05/08/2020, 16:48:17,-8.825647,-6.0737696,3.6859353,0.9730519,-1.4774721,-2.8476036,11.329997649340902,3.3524020867887576,walk
05/08/2020, 16:48:17,-8.339458,-5.613926,3.4536183,0.9730519,-1.4774721,-2.8476036,10.629685374891073,3.3524020867887576,walk
05/08/2020, 16:48:17,-8.339458,-5.613926,3.4536183,0.9877127,-1.4762503,-2.791404,10.629685374891073,3.3085990392903883,walk
05/08/2020, 16:48:17,-7.829319,-5.240303,3.3099172,0.9877127,-1.4762503,-2.791404,9.985717996273916,3.3085990392903883,walk
05/08/2020, 16:48:18,-8.56459,-4.1218286,3.2021413,-0.50157624,0.3429057,0.44251537,10.029725275438995,0.7516534468476863,walk
05/08/2020, 16:48:18,-8.56459,-4.1218286,3.2021413,-0.47469816,0.26349327,0.38998097,10.029725275438995,0.6684700449281524,walk
05/08/2020, 16:48:18,-8.432864,-4.009263,3.1350808,-0.47469816,0.26349327,0.38998097,9.849676149912682,0.6684700449281524,walk
05/08/2020, 16:48:18,-8.432864,-4.009263,3.1350808,-0.4563722,0.17797217,0.3423335,9.849676149912682,0.5976135046646799,walk
05/08/2020, 16:48:18,-8.222102,-3.999683,3.1231055,-0.4563722,0.17797217,0.3423335,9.661998523523328,0.5976135046646799,walk
05/08/2020, 16:48:18,-8.222102,-3.999683,3.1231055,-0.43560278,0.10344664,0.28857738,9.661998523523328,0.5326611454607163,walk
05/08/2020, 16:48:18,-8.013736,-3.9661524,3.1614258,-0.43560278,0.10344664,0.28857738,9.483930586881955,0.5326611454607163,walk
05/08/2020, 16:48:18,-8.013736,-3.9661524,3.1614258,-0.407503,0.048468787,0.22993433,9.483930586881955,0.47040166225231556,walk
05/08/2020, 16:48:18,-7.807764,-3.9877076,3.2165112,-0.407503,0.048468787,0.22993433,9.33857249011083,0.47040166225231556,walk
05/08/2020, 16:48:18,-7.807764,-3.9877076,3.2165112,-0.36107728,0.004486508,0.16884784,9.33857249011083,0.3986308122616167,walk
05/08/2020, 16:48:18,-7.702383,-3.9924977,3.276387,-0.36107728,0.004486508,0.16884784,9.273696883098628,0.3986308122616167,walk
05/08/2020, 16:48:18,-7.702383,-3.9924977,3.276387,-0.30365595,-0.037052315,0.10409614,9.273696883098628,0.32313436381498667,walk
05/08/2020, 16:48:18,-7.6401124,-4.026028,3.3123121,-0.30365595,-0.037052315,0.10409614,9.249412512248602,0.32313436381498667,walk
05/08/2020, 16:48:18,-7.6401124,-4.026028,3.3123121,-0.24134775,-0.074925944,0.0454531,9.249412512248602,0.2567656822633862,walk
05/08/2020, 16:48:18,-7.699988,-4.045188,3.3769777,-0.24134775,-0.074925944,0.0454531,9.330452148632943,0.2567656822633862,walk
05/08/2020, 16:48:18,-7.699988,-4.045188,3.3769777,-0.18148297,-0.11524303,-0.009524752,9.330452148632943,0.21519234680722454,walk
05/08/2020, 16:48:18,-7.7430983,-4.021238,3.3650026,-0.18148297,-0.11524303,-0.009524752,9.351425945288172,0.21519234680722454,walk
05/08/2020, 16:48:18,-7.7430983,-4.021238,3.3650026,-0.12772684,-0.15800358,-0.06205914,9.351425945288172,0.21243967291062282,walk
05/08/2020, 16:48:18,-7.8436894,-3.9781277,3.427273,-0.12772684,-0.15800358,-0.06205914,9.439023501126009,0.21243967291062282,walk
05/08/2020, 16:48:18,-7.8436894,-3.9781277,3.427273,-0.082522824,-0.20442933,-0.10970662,9.439023501126009,0.24624562713760634,walk
05/08/2020, 16:48:19,-9.697434,-3.4464333,2.7542725,-0.3781815,1.4131413,1.4932032,10.653832819883934,2.0903696127627005,walk
05/08/2020, 16:48:19,-9.960887,-3.5110989,2.9003687,-0.3781815,1.4131413,1.4932032,10.952589771047919,2.0903696127627005,walk
05/08/2020, 16:48:19,-9.960887,-3.5110989,2.9003687,-0.36962938,1.4449062,1.4858727,10.952589771047919,2.1052785383166,walk
05/08/2020, 16:48:19,-10.174044,-3.5110989,3.0249097,-0.36962938,1.4449062,1.4858727,11.17985055453447,2.1052785383166,walk
05/08/2020, 16:48:19,-10.174044,-3.5110989,3.0249097,-0.3781815,1.4668974,1.4773207,11.17985055453447,2.1159597094623166,walk
05/08/2020, 16:48:19,-10.439891,-3.4679885,3.0728102,-0.3781815,1.4668974,1.4773207,11.421927496437903,2.1159597094623166,walk
05/08/2020, 16:48:19,-10.439891,-3.4679885,3.0728102,-0.41238993,1.4791147,1.4638816,11.421927496437903,2.1215077148027093,walk
05/08/2020, 16:48:19,-10.593172,-3.415298,2.9913795,-0.41238993,1.4791147,1.4638816,11.525098967575824,2.1215077148027093,walk
05/08/2020, 16:48:19,-10.593172,-3.415298,2.9913795,-0.47469816,1.4717842,1.4504426,11.525098967575824,2.1202053601731685,walk
05/08/2020, 16:48:19,-10.768008,-3.3434474,3.051255,-0.47469816,1.4717842,1.4504426,11.68070199588479,2.1202053601731685,walk
05/08/2020, 16:48:19,-10.768008,-3.3434474,3.051255,-0.55777586,1.4522365,1.439447,11.68070199588479,2.1194604617803727,walk
05/08/2020, 16:48:19,-10.902129,-3.2452517,3.0105398,-0.55777586,1.4522365,1.439447,11.766538510811282,2.1194604617803727,walk
05/08/2020, 16:48:19,-10.902129,-3.2452517,3.0105398,-0.6506273,1.4290237,1.4223428,11.766538510811282,2.118604195269725,walk
05/08/2020, 16:48:19,-10.928474,-3.1901662,3.027305,-0.6506273,1.4290237,1.4223428,11.780207501393864,2.118604195269725,walk
05/08/2020, 16:48:19,-10.928474,-3.1901662,3.027305,-0.7434788,1.4021456,1.4040169,11.780207501393864,2.1189705901755196,walk
05/08/2020, 16:48:19,-10.950029,-3.2332766,2.9817994,-0.7434788,1.4021456,1.4040169,11.800353737465228,2.1189705901755196,walk
05/08/2020, 16:48:19,-10.950029,-3.2332766,2.9817994,-0.8253347,1.3764893,1.3954648,11.800353737465228,2.1267868021623646,walk
05/08/2020, 16:48:19,-10.8925495,-3.2692018,2.9937747,-0.8253347,1.3764893,1.3954648,11.760017079914661,2.1267868021623646,walk
05/08/2020, 16:48:19,-10.8925495,-3.2692018,2.9937747,-0.9023037,1.3557199,1.3930213,11.760017079914661,2.1430438491791666,walk
05/08/2020, 16:48:19,-10.916499,-3.3602126,3.0919704,-0.9023037,1.3557199,1.3930213,11.8330580633488,2.1430438491791666,walk
05/08/2020, 16:48:20,-9.163345,-4.095484,3.391348,0.040871903,-0.9460195,-1.7150599,10.59439123465884,1.9590951307142417,walk
05/08/2020, 16:48:20,-9.096285,-4.119434,3.415298,0.040871903,-0.9460195,-1.7150599,10.553501513091483,1.9590951307142417,walk
05/08/2020, 16:48:20,-9.096285,-4.119434,3.415298,0.11661917,-0.9166979,-1.678408,10.553501513091483,1.9159824138531032,walk
05/08/2020, 16:48:20,-8.926238,-4.054768,3.3123121,0.11661917,-0.9166979,-1.678408,10.348443445846257,1.9159824138531032,walk
05/08/2020, 16:48:20,-8.926238,-4.054768,3.3123121,0.19114469,-0.8873764,-1.6441995,10.348443445846257,1.8781281057342616,walk
05/08/2020, 16:48:20,-8.737032,-3.9326222,3.1326857,0.19114469,-0.8873764,-1.6441995,10.080424784581325,1.8781281057342616,walk
05/08/2020, 16:48:20,-8.737032,-3.9326222,3.1326857,0.24612254,-0.8653853,-1.6087694,10.080424784581325,1.8432598969458,walk
05/08/2020, 16:48:20,-8.461604,-3.6907253,3.1207106,0.24612254,-0.8653853,-1.6087694,9.744692525232933,1.8432598969458,walk
05/08/2020, 16:48:20,-8.461604,-3.6907253,3.1207106,0.27422234,-0.8507245,-1.5635654,9.744692525232933,1.8010182611601002,walk
05/08/2020, 16:48:20,-8.224498,-3.5925295,3.0847852,0.27422234,-0.8507245,-1.5635654,9.490233522718341,1.8010182611601002,walk
05/08/2020, 16:48:20,-8.224498,-3.5925295,3.0847852,0.2644485,-0.8287334,-1.5073658,9.490233522718341,1.7403688552481402,walk
05/08/2020, 16:48:20,-7.927515,-3.4536183,2.9865894,0.2644485,-0.8287334,-1.5073658,9.14837090758825,1.7403688552481402,walk
05/08/2020, 16:48:20,-7.927515,-3.4536183,2.9865894,0.22535314,-0.79941183,-1.4475011,9.14837090758825,1.6688626797284247,walk
05/08/2020, 16:48:20,-7.7478886,-3.4248781,2.919529,0.22535314,-0.79941183,-1.4475011,8.96009021782524,1.6688626797284247,walk
05/08/2020, 16:48:20,-7.7478886,-3.4248781,2.919529,0.17281874,-0.77375555,-1.3754189,8.96009021782524,1.5875582261603678,walk
05/08/2020, 16:48:20,-7.527547,-3.3769777,2.8740237,0.17281874,-0.77375555,-1.3754189,8.736587000964262,1.5875582261603678,walk
05/08/2020, 16:48:20,-7.527547,-3.3769777,2.8740237,0.10928879,-0.7480992,-1.293563,8.736587000964262,1.4982996098128707,walk
05/08/2020, 16:48:20,-7.29523,-3.2620168,2.8716285,0.10928879,-0.7480992,-1.293563,8.491606636453078,1.4982996098128707,walk
05/08/2020, 16:48:20,-7.29523,-3.2620168,2.8716285,0.033541523,-0.7163342,-1.2043767,8.491606636453078,1.401707167510183,walk
05/08/2020, 16:48:20,-7.1467385,-3.2428565,2.8309133,0.033541523,-0.7163342,-1.2043767,8.343024633960646,1.401707167510183,walk
05/08/2020, 16:48:21,-8.435259,-3.6116896,3.288362,-0.30487767,-0.60393506,-0.9013877,9.747369823367183,1.127026052666327,walk
05/08/2020, 16:48:21,-8.471185,-3.7146754,3.3602126,-0.30487767,-0.60393506,-0.9013877,9.841281051839236,1.127026052666327,walk
05/08/2020, 16:48:21,-8.471185,-3.7146754,3.3602126,-0.22546525,-0.5929395,-0.9514786,9.841281051839236,1.1435573240927495,walk
05/08/2020, 16:48:21,-8.638836,-3.8008962,3.4871485,-0.22546525,-0.5929395,-0.9514786,10.061635171759699,1.1435573240927495,walk
05/08/2020, 16:48:21,-8.638836,-3.8008962,3.4871485,-0.1301703,-0.58438736,-1.0015695,10.061635171759699,1.1668737628384662,walk
05/08/2020, 16:48:21,-8.763377,-3.8320315,3.4655933,-0.1301703,-0.58438736,-1.0015695,10.173081257934887,1.1668737628384662,walk
05/08/2020, 16:48:21,-8.763377,-3.8320315,3.4655933,-0.022658056,-0.58438736,-1.0467736,10.173081257934887,1.199064988811921,walk
05/08/2020, 16:48:21,-8.808882,-3.915857,3.4871485,-0.022658056,-0.58438736,-1.0467736,10.251367680649166,1.199064988811921,walk
05/08/2020, 16:48:21,-8.808882,-3.915857,3.4871485,0.098293215,-0.58683085,-1.0834255,10.251367680649166,1.2360594116845245,walk
05/08/2020, 16:48:21,-8.842413,-3.9589674,3.547024,0.098293215,-0.58683085,-1.0834255,10.317125052130503,1.2360594116845245,walk
05/08/2020, 16:48:21,-8.842413,-3.9589674,3.547024,0.23512697,-0.58316565,-1.1164122,10.317125052130503,1.2813051863109624,walk
05/08/2020, 16:48:21,-8.866363,-4.028423,3.4512234,0.23512697,-0.58316565,-1.1164122,10.332062647102148,1.2813051863109624,walk
05/08/2020, 16:48:21,-8.866363,-4.028423,3.4512234,0.38173458,-0.5697266,-1.1457337,10.332062647102148,1.3352960032273278,walk
05/08/2020, 16:48:21,-8.847202,-4.0116577,3.4536183,0.38173458,-0.5697266,-1.1457337,10.309891631623477,1.3352960032273278,walk
05/08/2020, 16:48:21,-8.847202,-4.0116577,3.4536183,0.5405595,-0.55017895,-1.1738335,10.309891631623477,1.4045591741841537,walk
05/08/2020, 16:48:21,-8.964559,-4.018843,3.295547,0.5405595,-0.55017895,-1.1738335,10.362192888570686,1.4045591741841537,walk
05/08/2020, 16:48:21,-8.964559,-4.018843,3.295547,0.7042713,-0.53185296,-1.1909378,10.362192888570686,1.4822949777926926,walk
05/08/2020, 16:48:21,-9.093889,-4.018843,3.2739918,0.7042713,-0.53185296,-1.1909378,10.467518538805319,1.4822949777926926,walk
05/08/2020, 16:48:21,-9.093889,-4.018843,3.2739918,0.8557658,-0.51597047,-1.203155,10.467518538805319,1.564014934185614,walk
05/08/2020, 16:48:21,-9.206455,-3.9326222,3.175796,0.8557658,-0.51597047,-1.203155,10.502857500447474,1.564014934185614,walk
05/08/2020, 16:48:22,-10.356065,-4.064348,3.0895753,-0.4111682,0.9940878,1.4748772,11.546102372884512,1.825522591254496,walk
05/08/2020, 16:48:22,-10.312955,-4.0116577,3.04407,-0.4111682,0.9940878,1.4748772,11.476793918295064,1.825522591254496,walk
05/08/2020, 16:48:22,-10.312955,-4.0116577,3.04407,-0.40139437,0.9574359,1.4565512,11.476793918295064,1.788670549124123,walk
05/08/2020, 16:48:22,-10.116563,-3.9422023,3.0871804,-0.40139437,0.9574359,1.4565512,11.287891107065523,1.788670549124123,walk
05/08/2020, 16:48:22,-10.116563,-3.9422023,3.0871804,-0.39650744,0.93177956,1.4321166,11.287891107065523,1.753963894068192,walk
05/08/2020, 16:48:22,-9.874666,-3.9757326,3.182981,-0.39650744,0.93177956,1.4321166,11.110663814669312,1.753963894068192,walk
05/08/2020, 16:48:22,-9.874666,-3.9757326,3.182981,-0.3830684,0.9097884,1.4064603,11.110663814669312,1.7183093229622064,walk
05/08/2020, 16:48:22,-9.75731,-4.033213,3.3147073,-0.3830684,0.9097884,1.4064603,11.066128018361187,1.7183093229622064,walk
05/08/2020, 16:48:22,-9.75731,-4.033213,3.3147073,-0.35130343,0.8951277,1.380804,11.066128018361187,1.682642936197026,walk
05/08/2020, 16:48:22,-9.75252,-4.157754,3.5709743,-0.35130343,0.8951277,1.380804,11.187064600057571,1.682642936197026,walk
05/08/2020, 16:48:22,-9.75252,-4.157754,3.5709743,-0.3097646,0.89390594,1.3551477,11.187064600057571,1.6527090700879234,walk
05/08/2020, 16:48:22,-9.946517,-4.2751102,3.5566041,-0.3097646,0.89390594,1.3551477,11.39557812962772,1.6527090700879234,walk
05/08/2020, 16:48:22,-9.946517,-4.2751102,3.5566041,-0.26700404,0.88168865,1.3258262,11.39557812962772,1.6144599933590555,walk
05/08/2020, 16:48:22,-10.159674,-4.263135,3.5805542,-0.26700404,0.88168865,1.3258262,11.585061841638959,1.6144599933590555,walk
05/08/2020, 16:48:22,-10.159674,-4.263135,3.5805542,-0.22668697,0.8401498,1.290396,11.585061841638959,1.5563934189268005,walk
05/08/2020, 16:48:22,-10.219549,-4.1984696,3.420088,-0.22668697,0.8401498,1.290396,11.565610015051865,1.5563934189268005,walk
05/08/2020, 16:48:22,-10.219549,-4.1984696,3.420088,-0.19980891,0.7815068,1.2488571,11.565610015051865,1.486714700401776,walk
05/08/2020, 16:48:22,-10.080638,-4.1170387,3.4536183,-0.19980891,0.7815068,1.2488571,11.42351733355513,1.486714700401776,walk
05/08/2020, 16:48:22,-10.080638,-4.1170387,3.4536183,-0.19858718,0.72286373,1.199988,11.42351733355513,1.414899312172734,walk
05/08/2020, 16:48:22,-9.788445,-4.0595584,3.412903,-0.19858718,0.72286373,1.199988,11.132905572006809,1.414899312172734,walk
05/08/2020, 16:48:23,-5.1636624,-3.5973196,2.6081765,0.031098064,0.264715,0.4193025,6.812246512857668,0.49684574503677204,walk
05/08/2020, 16:48:23,-5.1971927,-3.6811452,2.6896071,0.031098064,0.264715,0.4193025,6.913438228718174,0.49684574503677204,walk
05/08/2020, 16:48:23,-5.1971927,-3.6811452,2.6896071,0.06652824,0.33924052,0.5744622,6.913438228718174,0.6704602364404222,walk
05/08/2020, 16:48:23,-5.2834134,-3.666775,2.703977,0.06652824,0.33924052,0.5744622,6.976473914338124,0.6704602364404222,walk
05/08/2020, 16:48:23,-5.2834134,-3.666775,2.703977,0.11051052,0.41376606,0.7320653,6.976473914338124,0.8481359309010942,walk
05/08/2020, 16:48:23,-5.3313136,-3.6763551,2.7470875,0.11051052,0.41376606,0.7320653,7.0345562346540556,0.8481359309010942,walk
05/08/2020, 16:48:23,-5.3313136,-3.6763551,2.7470875,0.15693626,0.48706985,0.8835599,7.0345562346540556,1.0210504832839784,walk
05/08/2020, 16:48:23,-5.4414845,-3.7027004,2.8812087,0.15693626,0.48706985,0.8835599,7.184782978217104,1.0210504832839784,walk
05/08/2020, 16:48:23,-5.4414845,-3.7027004,2.8812087,0.20091853,0.5530433,1.0252806,7.184782978217104,1.1821275101147513,walk
05/08/2020, 16:48:23,-5.640271,-3.8128712,2.8979738,0.20091853,0.5530433,1.0252806,7.399249826133625,1.1821275101147513,walk
05/08/2020, 16:48:23,-5.640271,-3.8128712,2.8979738,0.24123563,0.6165732,1.1596708,7.399249826133625,1.3353627188405457,walk
05/08/2020, 16:48:23,-5.8438478,-3.9422023,2.943479,0.24123563,0.6165732,1.1596708,7.639082715559506,1.3353627188405457,walk
05/08/2020, 16:48:23,-5.8438478,-3.9422023,2.943479,0.2852179,0.67643803,1.2940612,7.639082715559506,1.4877876252293445,walk
05/08/2020, 16:48:23,-6.090535,-4.064348,3.056045,0.2852179,0.67643803,1.2940612,7.934289912975601,1.4877876252293445,walk
05/08/2020, 16:48:23,-6.090535,-4.064348,3.056045,0.3499696,0.72775066,1.4162341,7.934289912975601,1.6302818365147906,walk
05/08/2020, 16:48:23,-6.346802,-4.232,3.1925611,0.3499696,0.72775066,1.4162341,8.26947206502207,1.6302818365147906,walk
05/08/2020, 16:48:23,-6.346802,-4.232,3.1925611,0.42082995,0.7876154,1.5274116,8.26947206502207,1.7692998701848788,walk
05/08/2020, 16:48:23,-6.715635,-4.394861,3.178191,0.42082995,0.7876154,1.5274116,8.632233426022268,1.7692998701848788,walk
05/08/2020, 16:48:23,-6.715635,-4.394861,3.178191,0.49779895,0.8548106,1.630037,8.632233426022268,1.9067053802389435,walk
05/08/2020, 16:48:23,-6.969507,-4.430786,3.1542408,0.49779895,0.8548106,1.630037,8.840539119691105,1.9067053802389435,walk
05/08/2020, 16:48:24,-10.289004,-4.1002736,3.0967603,1.2882582,-0.7395471,-1.2080419,11.5006859741493,1.914655138328682,walk
05/08/2020, 16:48:24,-10.090218,-3.9565725,3.0177248,1.2882582,-0.7395471,-1.2080419,11.250494207269384,1.914655138328682,walk
05/08/2020, 16:48:24,-10.090218,-3.9565725,3.0177248,1.3126929,-0.744434,-1.2043767,11.250494207269384,1.9307687089330106,walk
05/08/2020, 16:48:24,-9.831555,-3.788921,3.032095,1.3126929,-0.744434,-1.2043767,10.963986682793886,1.9307687089330106,walk
05/08/2020, 16:48:24,-9.831555,-3.788921,3.032095,1.3114711,-0.7456557,-1.2068202,10.963986682793886,1.9319353040427112,walk
05/08/2020, 16:48:24,-9.683064,-3.7218604,2.8476784,1.3114711,-0.7456557,-1.2068202,10.757474362228326,1.9319353040427112,walk
05/08/2020, 16:48:24,-9.683064,-3.7218604,2.8476784,1.2821496,-0.744434,-1.2068202,10.757474362228326,1.9116758539892518,walk
05/08/2020, 16:48:24,-9.651929,-3.6308498,2.802173,1.2821496,-0.744434,-1.2068202,10.686204893608297,1.9116758539892518,walk
05/08/2020, 16:48:24,-9.651929,-3.6308498,2.802173,1.2381673,-0.744434,-1.1970464,10.686204893608297,1.8762090204764321,walk
05/08/2020, 16:48:24,-9.577683,-3.558999,2.682422,1.2381673,-0.744434,-1.1970464,10.563800544165346,1.8762090204764321,walk
05/08/2020, 16:48:24,-9.577683,-3.558999,2.682422,1.1905198,-0.7432123,-1.189716,10.563800544165346,1.8398711995770132,walk
05/08/2020, 16:48:24,-9.580078,-3.4560134,2.6105714,1.1905198,-0.7432123,-1.189716,10.5136581996598,1.8398711995770132,walk
05/08/2020, 16:48:24,-9.580078,-3.4560134,2.6105714,1.1502028,-0.74199057,-1.1884942,10.5136581996598,1.812742355005808,walk
05/08/2020, 16:48:24,-9.532178,-3.4464333,2.703977,1.1502028,-0.74199057,-1.1884942,10.490558170443814,1.812742355005808,walk
05/08/2020, 16:48:24,-9.532178,-3.4464333,2.703977,1.1257682,-0.7432123,-1.1860508,10.490558170443814,1.7962279749613774,walk
05/08/2020, 16:48:24,-9.412427,-3.4464333,2.7662477,1.1257682,-0.7432123,-1.1860508,10.39825996036465,1.7962279749613774,walk
05/08/2020, 16:48:24,-9.412427,-3.4464333,2.7662477,1.1196595,-0.73343843,-1.1787204,10.39825996036465,1.7835221057049853,walk
05/08/2020, 16:48:24,-9.287886,-3.535049,2.8692336,1.1196595,-0.73343843,-1.1787204,10.343785226046908,1.7835221057049853,walk
05/08/2020, 16:48:24,-9.287886,-3.535049,2.8692336,1.1416507,-0.7102256,-1.1652814,10.343785226046908,1.7792322561387366,walk
05/08/2020, 16:48:24,-9.15137,-3.523074,2.9937747,1.1416507,-0.7102256,-1.1652814,10.252917156688083,1.7792322561387366,walk
05/08/2020, 16:48:25,-8.459209,-3.0608351,4.071533,-0.9267383,0.010595159,0.159074,9.87442751052881,0.9403513757491772,walk
05/08/2020, 16:48:25,-8.432864,-3.046465,4.1242237,-0.9267383,0.010595159,0.159074,9.869314471858113,0.9403513757491772,walk
05/08/2020, 16:48:25,-8.432864,-3.046465,4.1242237,-0.9377339,-0.07859113,0.12364382,9.869314471858113,0.9491096915828895,walk
05/08/2020, 16:48:25,-8.485555,-3.0368848,4.164939,-0.9377339,-0.07859113,0.12364382,9.928445192610965,0.9491096915828895,walk
05/08/2020, 16:48:25,-8.485555,-3.0368848,4.164939,-0.9499512,-0.15800358,0.088213645,9.928445192610965,0.9670336129172846,walk
05/08/2020, 16:48:25,-8.471185,-2.9794044,4.253555,-0.9499512,-0.15800358,0.088213645,9.936324784728765,0.9670336129172846,walk
05/08/2020, 16:48:25,-8.471185,-2.9794044,4.253555,-0.9523946,-0.23252912,0.04300964,9.936324784728765,0.9813129485954635,walk
05/08/2020, 16:48:25,-8.509504,-3.04886,4.2008643,-0.9523946,-0.23252912,0.04300964,9.967671367009277,0.9813129485954635,walk
05/08/2020, 16:48:25,-8.509504,-3.04886,4.2008643,-0.94506425,-0.31438503,-0.003416102,9.967671367009277,0.9959899824124329,walk
05/08/2020, 16:48:25,-8.52148,-3.046465,4.1793094,-0.94506425,-0.31438503,-0.003416102,9.968108646569378,0.9959899824124329,walk
05/08/2020, 16:48:25,-8.52148,-3.046465,4.1793094,-0.92796004,-0.3937975,-0.04739838,9.968108646569378,1.0091743653935434,walk
05/08/2020, 16:48:25,-8.461604,-3.1326857,4.1936793,-0.92796004,-0.3937975,-0.04739838,9.94984472512196,1.0091743653935434,walk
05/08/2020, 16:48:25,-8.461604,-3.1326857,4.1936793,-0.8986385,-0.46221438,-0.086493745,9.94984472512196,1.0142358855881415,walk
05/08/2020, 16:48:25,-8.384964,-3.1614258,4.2128396,-0.8986385,-0.46221438,-0.086493745,9.902032715416457,1.0142358855881415,walk
05/08/2020, 16:48:25,-8.384964,-3.1614258,4.2128396,-0.8461041,-0.5208574,-0.13291948,9.902032715416457,1.0024231317028458,walk
05/08/2020, 16:48:25,-8.353828,-3.2308815,4.253555,-0.8461041,-0.5208574,-0.13291948,9.915531907905244,1.0024231317028458,walk
05/08/2020, 16:48:25,-8.353828,-3.2308815,4.253555,-0.7764655,-0.56728315,-0.17812349,9.915531907905244,0.9779758628720324,walk
05/08/2020, 16:48:25,-8.384964,-3.3458424,4.3278003,-0.7764655,-0.56728315,-0.17812349,10.011600142811979,0.9779758628720324,walk
05/08/2020, 16:48:25,-8.384964,-3.3458424,4.3278003,-0.68850094,-0.60271335,-0.21721885,10.011600142811979,0.9404684740076618,walk
05/08/2020, 16:48:25,-8.480764,-3.3721876,4.3158255,-0.68850094,-0.60271335,-0.21721885,10.095611093478137,0.9404684740076618,walk
05/08/2020, 16:48:26,-10.071057,-2.3614893,2.579436,-1.3238006,0.9366665,0.84079933,10.660971702311526,1.8266733588228594,walk
05/08/2020, 16:48:26,-9.79563,-2.311194,2.675237,-1.3238006,0.9366665,0.84079933,10.414071544824452,1.8266733588228594,walk
05/08/2020, 16:48:26,-9.79563,-2.311194,2.675237,-1.4533039,0.92689264,0.84324276,10.414071544824452,1.9189269513684146,walk
05/08/2020, 16:48:26,-9.623189,-2.4620802,2.7973828,-1.4533039,0.92689264,0.84324276,10.319542422788839,1.9189269513684146,walk
05/08/2020, 16:48:26,-9.623189,-2.4620802,2.7973828,-1.5424902,0.94644034,0.8505732,10.319542422788839,1.999625016380498,walk
05/08/2020, 16:48:26,-9.666299,-2.6584718,2.8812087,-1.5424902,0.94644034,0.8505732,10.431019582791452,1.999625016380498,walk
05/08/2020, 16:48:26,-9.666299,-2.6584718,2.8812087,-1.5925812,0.9769836,0.8688991,10.431019582791452,2.060533269500535,walk
05/08/2020, 16:48:26,-9.908196,-2.7758276,3.0416749,-1.5925812,0.9769836,0.8688991,10.729835129524792,2.060533269500535,walk
05/08/2020, 16:48:26,-9.908196,-2.7758276,3.0416749,-1.6121289,1.0001965,0.8969989,10.729835129524792,2.0985612663197606,walk
05/08/2020, 16:48:26,-10.169253,-2.8955786,3.06802,-1.6121289,1.0001965,0.8969989,11.009579311225307,2.0985612663197606,walk
05/08/2020, 16:48:26,-10.169253,-2.8955786,3.06802,-1.6194593,0.997753,0.92754215,11.009579311225307,2.1162452289353815,walk
05/08/2020, 16:48:26,-10.408755,-2.929109,3.1183155,-1.6194593,0.997753,0.92754215,11.253699762418773,2.1162452289353815,walk
05/08/2020, 16:48:26,-10.408755,-2.929109,3.1183155,-1.6280113,0.9769836,0.96297234,11.253699762418773,2.128904329359808,walk
05/08/2020, 16:48:26,-10.502161,-2.9746144,3.0728102,-1.6280113,0.9769836,0.96297234,11.33957138942703,2.128904329359808,walk
05/08/2020, 16:48:26,-10.502161,-2.9746144,3.0728102,-1.6402286,0.94644034,1.0008459,11.33957138942703,2.141913117988872,walk
05/08/2020, 16:48:26,-10.408755,-3.032095,3.0344899,-1.6402286,0.94644034,1.0008459,11.258060025432666,2.141913117988872,walk
05/08/2020, 16:48:26,-10.408755,-3.032095,3.0344899,-1.6365634,0.91345364,1.0362761,11.258060025432666,2.1416361824899304,walk
05/08/2020, 16:48:26,-10.195599,-3.2524366,3.0823903,-1.6365634,0.91345364,1.0362761,11.136862437676411,2.1416361824899304,walk
05/08/2020, 16:48:26,-10.195599,-3.2524366,3.0823903,-1.5828073,0.8877973,1.0729281,11.136862437676411,2.108230926920462,walk
05/08/2020, 16:48:26,-9.869876,-3.4679885,3.271597,-1.5828073,0.8877973,1.0729281,10.961055649141555,2.108230926920462,walk
05/08/2020, 16:48:27,-8.351434,-2.6441016,2.3638844,0.58454174,0.30625382,0.3020164,9.073349371128653,0.7257371124721818,walk
05/08/2020, 16:48:27,-8.47837,-2.6441016,2.3447242,0.58454174,0.30625382,0.3020164,9.185410052643578,0.7257371124721818,walk
05/08/2020, 16:48:27,-8.47837,-2.6441016,2.3447242,0.6028677,0.34168398,0.35210735,9.185410052643578,0.777288246907949,walk
05/08/2020, 16:48:27,-8.571775,-2.5842261,2.3614893,0.6028677,0.34168398,0.35210735,9.259059915857456,0.777288246907949,walk
05/08/2020, 16:48:27,-8.571775,-2.5842261,2.3614893,0.61752844,0.36978376,0.3948679,9.259059915857456,0.8209762828821411,walk
05/08/2020, 16:48:27,-8.634046,-2.6009912,2.3950195,0.61752844,0.36978376,0.3948679,9.329952704657734,0.8209762828821411,walk
05/08/2020, 16:48:27,-8.634046,-2.6009912,2.3950195,0.628524,0.39910528,0.4315198,9.329952704657734,0.8605444751527856,walk
05/08/2020, 16:48:27,-8.631651,-2.5147705,2.4045997,0.628524,0.39910528,0.4315198,9.306533616182172,0.8605444751527856,walk
05/08/2020, 16:48:27,-8.631651,-2.5147705,2.4045997,0.63463265,0.43087026,0.46084133,9.306533616182172,0.8948645211725867,walk
05/08/2020, 16:48:27,-8.614885,-2.5315359,2.3998096,0.63463265,0.43087026,0.46084133,9.294299822669394,0.8948645211725867,walk
05/08/2020, 16:48:27,-8.614885,-2.5315359,2.3998096,0.6297458,0.4650787,0.48405418,9.294299822669394,0.9204272944435503,walk
05/08/2020, 16:48:27,-8.641231,-2.5578809,2.3662794,0.6297458,0.4650787,0.48405418,9.317343967406059,0.9204272944435503,walk
05/08/2020, 16:48:27,-8.641231,-2.5578809,2.3662794,0.615085,0.49440023,0.5109322,9.317343967406059,0.9401132245592744,walk
05/08/2020, 16:48:27,-8.660391,-2.5578809,2.3327491,0.615085,0.49440023,0.5109322,9.32667372786844,0.9401132245592744,walk
05/08/2020, 16:48:27,-8.660391,-2.5578809,2.3327491,0.596759,0.52250004,0.53781027,9.32667372786844,0.9583149281835964,walk
05/08/2020, 16:48:27,-8.737032,-2.5459058,2.3495142,0.596759,0.52250004,0.53781027,9.3988074105988,0.9583149281835964,walk
05/08/2020, 16:48:27,-8.737032,-2.5459058,2.3495142,0.5772114,0.5530433,0.55735797,9.3988074105988,0.9745141243952289,walk
05/08/2020, 16:48:27,-8.835227,-2.5578809,2.3495142,0.5772114,0.5530433,0.55735797,9.493377067472375,0.9745141243952289,walk
05/08/2020, 16:48:27,-8.835227,-2.5578809,2.3495142,0.5539985,0.5811431,0.57201874,9.493377067472375,0.9858230205042897,walk
05/08/2020, 16:48:27,-8.962164,-2.5411158,2.304009,0.5539985,0.5811431,0.57201874,9.596150729460907,0.9858230205042897,walk
05/08/2020, 16:48:28,-9.558523,-3.803291,3.2644117,1.4959524,-0.19465548,-0.91604847,10.79290378310638,1.7649104895078545,walk
05/08/2020, 16:48:28,-9.568104,-3.791316,3.3985329,1.4959524,-0.19465548,-0.91604847,10.838482968121117,1.7649104895078545,walk
05/08/2020, 16:48:28,-9.568104,-3.791316,3.3985329,1.5387129,-0.22275527,-0.972248,10.838482968121117,1.8337184572708285,walk
05/08/2020, 16:48:28,-9.659114,-3.772156,3.4488282,1.5387129,-0.22275527,-0.972248,10.928039989244125,1.8337184572708285,walk
05/08/2020, 16:48:28,-9.659114,-3.772156,3.4488282,1.5753648,-0.2594072,-1.0211172,10.928039989244125,1.8951904364735075,walk
05/08/2020, 16:48:28,-9.697434,-3.6859353,3.4584084,1.5753648,-0.2594072,-1.0211172,10.935581444141528,1.8951904364735075,walk
05/08/2020, 16:48:28,-9.697434,-3.6859353,3.4584084,1.5936908,-0.29850256,-1.062656,10.935581444141528,1.9386056502046316,walk
05/08/2020, 16:48:28,-9.74294,-3.5494192,3.4416432,1.5936908,-0.29850256,-1.062656,10.925573826353007,1.9386056502046316,walk
05/08/2020, 16:48:28,-9.74294,-3.5494192,3.4416432,1.5826951,-0.3449283,-1.0968645,10.925573826353007,1.9562747863276078,walk
05/08/2020, 16:48:28,-9.77168,-3.408113,3.3410523,1.5826951,-0.3449283,-1.0968645,10.87490654268597,1.9562747863276078,walk
05/08/2020, 16:48:28,-9.77168,-3.408113,3.3410523,1.5374912,-0.39990613,-1.126186,10.87490654268597,1.9473312623745707,walk
05/08/2020, 16:48:28,-9.81958,-3.2069314,3.3841627,1.5374912,-0.39990613,-1.126186,10.870194043820318,1.9473312623745707,walk
05/08/2020, 16:48:28,-9.81958,-3.2069314,3.3841627,1.4678526,-0.46832302,-1.1457337,10.870194043820318,1.9200581839892148,walk
05/08/2020, 16:48:28,-9.857901,-3.1326857,3.410508,1.4678526,-0.46832302,-1.1457337,10.891441058526837,1.9200581839892148,walk
05/08/2020, 16:48:28,-9.857901,-3.1326857,3.410508,1.3823315,-0.53796166,-1.1616162,10.891441058526837,1.8840369714239225,walk
05/08/2020, 16:48:28,-9.845925,-3.1374757,3.4536183,1.3823315,-0.53796166,-1.1616162,10.895571524953821,1.8840369714239225,walk
05/08/2020, 16:48:28,-9.845925,-3.1374757,3.4536183,1.298032,-0.5941612,-1.1701683,10.895571524953821,1.845862546911876,walk
05/08/2020, 16:48:28,-9.898616,-3.1087356,3.5039136,1.298032,-0.5941612,-1.1701683,10.950992789897176,1.845862546911876,walk
05/08/2020, 16:48:28,-9.898616,-3.1087356,3.5039136,1.2173979,-0.6466956,-1.1665031,10.950992789897176,1.8058245621180675,walk
05/08/2020, 16:48:28,-9.927357,-3.0823903,3.4919386,1.2173979,-0.6466956,-1.1665031,10.965727362199106,1.8058245621180675,walk
05/08/2020, 16:48:29,-8.856783,-2.9506643,3.911067,0.1508276,0.42231816,0.7161829,10.121534884814666,0.8449967588885179,walk
05/08/2020, 16:48:29,-8.878338,-2.668052,3.7937112,0.1508276,0.42231816,0.7161829,10.016767391124848,0.8449967588885179,walk
05/08/2020, 16:48:29,-8.878338,-2.668052,3.7937112,0.09951495,0.3954401,0.6770875,10.016767391124848,0.7903945609195144,walk
05/08/2020, 16:48:29,-8.909473,-2.548301,3.671565,0.09951495,0.3954401,0.6770875,9.967594717833656,0.7903945609195144,walk
05/08/2020, 16:48:29,-8.909473,-2.548301,3.671565,-6.6691637E-4,0.36000994,0.64287907,9.967594717833656,0.7368182257165271,walk
05/08/2020, 16:48:29,-8.792117,-2.4141798,3.6380348,-6.6691637E-4,0.36000994,0.64287907,9.816561765862906,0.7368182257165271,walk
05/08/2020, 16:48:29,-8.792117,-2.4141798,3.6380348,-0.11184435,0.32091457,0.6074489,9.816561765862906,0.6960527675559888,walk
05/08/2020, 16:48:29,-8.782537,-2.42376,3.7050953,-0.11184435,0.32091457,0.6074489,9.835410901027716,0.6960527675559888,walk
05/08/2020, 16:48:29,-8.782537,-2.42376,3.7050953,-0.18881334,0.25982806,0.5610231,9.835410901027716,0.6464580703826817,walk
05/08/2020, 16:48:29,-8.777747,-2.6896071,3.7003052,-0.18881334,0.25982806,0.5610231,9.898236733698436,0.6464580703826817,walk
05/08/2020, 16:48:29,-8.777747,-2.6896071,3.7003052,-0.21324794,0.20729369,0.5084888,9.898236733698436,0.5890723139670316,walk
05/08/2020, 16:48:29,-8.818462,-3.0871804,3.915857,-0.21324794,0.20729369,0.5084888,10.130641535574627,0.5890723139670316,walk
05/08/2020, 16:48:29,-8.818462,-3.0871804,3.915857,-0.14727452,0.15598103,0.4645065,10.130641535574627,0.5116504308244348,walk
05/08/2020, 16:48:29,-8.837623,-3.3817677,4.021238,-0.14727452,0.15598103,0.4645065,10.281550512097885,0.5116504308244348,walk
05/08/2020, 16:48:29,-8.837623,-3.3817677,4.021238,0.013993844,0.1181074,0.42541113,10.281550512097885,0.44172369141714113,walk
05/08/2020, 16:48:29,-8.677156,-3.5925295,4.143384,0.013993844,0.1181074,0.42541113,10.264840149529244,0.44172369141714113,walk
05/08/2020, 16:48:29,-8.677156,-3.5925295,4.143384,0.20214026,0.11932913,0.3789854,10.264840149529244,0.4457915009959011,walk
05/08/2020, 16:48:29,-8.382568,-3.5949244,4.1864944,0.20214026,0.11932913,0.3789854,10.035819301205187,0.4457915009959011,walk
05/08/2020, 16:48:29,-8.382568,-3.5949244,4.1864944,0.38051286,0.13643335,0.32034236,10.035819301205187,0.5157744919233559,walk
05/08/2020, 16:48:29,-8.308323,-3.3745828,4.1218286,0.38051286,0.13643335,0.32034236,9.869422932408499,0.5157744919233559,walk
05/08/2020, 16:48:30,-9.546548,-2.3854396,2.3662794,-1.1368759,0.3881097,1.2158704,10.120581845243267,1.709226921963111,walk
05/08/2020, 16:48:30,-9.644744,-2.4812403,2.3590944,-1.1368759,0.3881097,1.2158704,10.234401050393371,1.709226921963111,walk
05/08/2020, 16:48:30,-9.644744,-2.4812403,2.3590944,-1.2321708,0.38322282,1.2537441,10.234401050393371,1.7991606350336946,walk
05/08/2020, 16:48:30,-9.711804,-2.5890162,2.4572902,-1.2321708,0.38322282,1.2537441,10.347000743221647,1.7991606350336946,walk
05/08/2020, 16:48:30,-9.711804,-2.5890162,2.4572902,-1.3066963,0.38077936,1.2916178,10.347000743221647,1.8763593851084457,walk
05/08/2020, 16:48:30,-9.75731,-2.7375073,2.4812403,-1.3066963,0.38077936,1.2916178,10.43338854329161,1.8763593851084457,walk
05/08/2020, 16:48:30,-9.75731,-2.7375073,2.4812403,-1.3543438,0.3783359,1.3258262,10.43338854329161,1.9326665849390587,walk
05/08/2020, 16:48:30,-9.716595,-2.8357031,2.5004005,-1.3543438,0.3783359,1.3258262,10.426189506762723,1.9326665849390587,walk
05/08/2020, 16:48:30,-9.716595,-2.8357031,2.5004005,-1.3812219,0.38322282,1.3527042,10.426189506762723,1.9708988313937814,walk
05/08/2020, 16:48:30,-9.601634,-2.9674294,2.5099807,-1.3812219,0.38322282,1.3527042,10.358427303830979,1.9708988313937814,walk
05/08/2020, 16:48:30,-9.601634,-2.9674294,2.5099807,-1.3934392,0.39910528,1.3771389,10.358427303830979,1.9993671940076012,walk
05/08/2020, 16:48:30,-9.513018,-3.0249097,2.5530908,-1.3934392,0.39910528,1.3771389,10.303681695617056,1.9993671940076012,walk
05/08/2020, 16:48:30,-9.513018,-3.0249097,2.5530908,-1.3861088,0.41865298,1.3979082,10.303681695617056,2.012638856891859,walk
05/08/2020, 16:48:30,-9.465117,-3.0416749,2.5818312,-1.3861088,0.41865298,1.3979082,10.271615587028117,2.012638856891859,walk
05/08/2020, 16:48:30,-9.465117,-3.0416749,2.5818312,-1.3494569,0.44675276,1.4198993,10.271615587028117,2.009163038706224,walk
05/08/2020, 16:48:30,-9.510623,-3.1326857,2.668052,-1.3494569,0.44675276,1.4198993,10.362633359205342,2.009163038706224,walk
05/08/2020, 16:48:30,-9.510623,-3.1326857,2.668052,-1.2932574,0.48218295,1.4370036,10.362633359205342,1.9924844710804854,walk
05/08/2020, 16:48:30,-9.6615095,-3.2189064,2.7470875,-1.2932574,0.48218295,1.4370036,10.547635475793598,1.9924844710804854,walk
05/08/2020, 16:48:30,-9.6615095,-3.2189064,2.7470875,-1.21751,0.5115045,1.4467775,10.547635475793598,1.9588599784034504,walk
05/08/2020, 16:48:30,-9.845925,-3.3123121,2.7542725,-1.21751,0.5115045,1.4467775,10.747077464878037,1.9588599784034504,walk
05/08/2020, 16:48:31,-9.405242,-2.4501052,2.9937747,0.7678012,-0.6100437,-1.1836073,10.169772787871183,1.5370746168538054,walk
05/08/2020, 16:48:31,-9.201666,-2.4668703,3.056045,0.7678012,-0.6100437,-1.1836073,10.004774631768276,1.5370746168538054,walk
05/08/2020, 16:48:31,-9.201666,-2.4668703,3.056045,0.769023,-0.5807222,-1.1384033,10.004774631768276,1.4915082065513559,walk
05/08/2020, 16:48:31,-9.077125,-2.3878345,3.1039455,0.769023,-0.5807222,-1.1384033,9.885869834557788,1.4915082065513559,walk
05/08/2020, 16:48:31,-9.077125,-2.3878345,3.1039455,0.75680566,-0.5526224,-1.0883124,9.885869834557788,1.436165084429513,walk
05/08/2020, 16:48:31,-9.0891,-2.2824538,3.046465,0.75680566,-0.5526224,-1.0883124,9.85404893674957,1.436165084429513,walk
05/08/2020, 16:48:31,-9.0891,-2.2824538,3.046465,0.72381896,-0.5367399,-1.0406649,9.85404893674957,1.3765852847694824,walk
05/08/2020, 16:48:31,-9.09868,-2.2393434,2.9506643,0.72381896,-0.5367399,-1.0406649,9.823800079730152,1.3765852847694824,walk
05/08/2020, 16:48:31,-9.09868,-2.2393434,2.9506643,0.67250633,-0.53185296,-0.9881305,9.823800079730152,1.3082561841254285,walk
05/08/2020, 16:48:31,-9.110655,-2.1579127,2.8500733,0.67250633,-0.53185296,-0.9881305,9.786906397487703,1.3082561841254285,walk
05/08/2020, 16:48:31,-9.110655,-2.1579127,2.8500733,0.60897636,-0.53551817,-0.92948747,9.786906397487703,1.2335229518730682,walk
05/08/2020, 16:48:31,-9.024434,-2.1650977,2.8309133,0.60897636,-0.53551817,-0.92948747,9.702686684085505,1.2335229518730682,walk
05/08/2020, 16:48:31,-9.024434,-2.1650977,2.8309133,0.5442247,-0.53063124,-0.8720662,9.702686684085505,1.1568273319060753,walk
05/08/2020, 16:48:31,-8.947793,-2.1483326,2.816543,0.5442247,-0.53063124,-0.8720662,9.62347378463061,1.1568273319060753,walk
05/08/2020, 16:48:31,-8.947793,-2.1483326,2.816543,0.48558164,-0.5208574,-0.8170883,9.62347378463061,1.0838428160820708,walk
05/08/2020, 16:48:31,-8.787327,-2.1076174,2.7782228,0.48558164,-0.5208574,-0.8170883,9.453977229164792,1.0838428160820708,walk
05/08/2020, 16:48:31,-8.787327,-2.1076174,2.7782228,0.4306038,-0.5049749,-0.76088876,9.453977229164792,1.0096390363740035,walk
05/08/2020, 16:48:31,-8.646021,-2.1603076,2.8213332,0.4306038,-0.5049749,-0.76088876,9.34775519567047,1.0096390363740035,walk
05/08/2020, 16:48:31,-8.646021,-2.1603076,2.8213332,0.3853998,-0.48176205,-0.70468915,9.34775519567047,0.9365972787793165,walk
05/08/2020, 16:48:31,-8.571775,-2.1315675,2.8333082,0.3853998,-0.48176205,-0.70468915,9.276127937622244,0.9365972787793165,walk
05/08/2020, 16:48:32,-9.072334,-3.3051271,4.0020776,0.092184566,-0.71389073,-0.33939186,10.452164362023831,0.795817066508836,walk
05/08/2020, 16:48:32,-9.172925,-3.3458424,3.9350173,0.092184566,-0.71389073,-0.33939186,10.527182700188725,0.795817066508836,walk
05/08/2020, 16:48:32,-9.172925,-3.3458424,3.9350173,0.21924448,-0.7468775,-0.38703933,10.527182700188725,0.8693063758417258,walk
05/08/2020, 16:48:32,-9.19927,-3.3530276,3.796106,0.21924448,-0.7468775,-0.38703933,10.501418408634342,0.8693063758417258,walk
05/08/2020, 16:48:32,-9.19927,-3.3530276,3.796106,0.34386095,-0.7774207,-0.42979988,10.501418408634342,0.952549862550194,walk
05/08/2020, 16:48:32,-9.153765,-3.3530276,3.671565,0.34386095,-0.7774207,-0.42979988,10.4170337698329,0.952549862550194,walk
05/08/2020, 16:48:32,-9.153765,-3.3530276,3.671565,0.46481222,-0.8018553,-0.4640083,10.4170337698329,1.036497017011552,walk
05/08/2020, 16:48:32,-9.134604,-3.515889,3.5637891,0.46481222,-0.8018553,-0.4640083,10.416480521425399,1.036497017011552,walk
05/08/2020, 16:48:32,-9.134604,-3.515889,3.5637891,0.58454174,-0.80796397,-0.5067689,10.416480521425399,1.118619468826496,walk
05/08/2020, 16:48:32,-9.09868,-3.5901344,3.2739918,0.58454174,-0.80796397,-0.5067689,10.314749476299408,1.118619468826496,walk
05/08/2020, 16:48:32,-9.09868,-3.5901344,3.2739918,0.7091582,-0.80307704,-0.54952943,10.314749476299408,1.2040849890531635,walk
05/08/2020, 16:48:32,-9.168135,-3.781736,3.2260914,0.7091582,-0.80307704,-0.54952943,10.428992554437178,1.2040849890531635,walk
05/08/2020, 16:48:32,-9.168135,-3.781736,3.2260914,0.8838656,-0.78597283,-0.58740306,10.428992554437178,1.3206112367851301,walk
05/08/2020, 16:48:32,-9.290281,-4.0020776,3.1494508,0.8838656,-0.78597283,-0.58740306,10.594573692040388,1.3206112367851301,walk
05/08/2020, 16:48:32,-9.290281,-4.0020776,3.1494508,1.1196595,-0.7566513,-0.6313854,10.594573692040388,1.491578412614897,walk
05/08/2020, 16:48:32,-9.570498,-4.311035,3.427273,1.1196595,-0.7566513,-0.6313854,11.041995538503011,1.491578412614897,walk
05/08/2020, 16:48:32,-9.570498,-4.311035,3.427273,1.4348658,-0.72244287,-0.6802546,11.041995538503011,1.7445658320064281,walk
05/08/2020, 16:48:32,-9.989627,-4.6199927,3.7218604,1.4348658,-0.72244287,-0.6802546,11.6184862631149,1.7445658320064281,walk
05/08/2020, 16:48:32,-9.989627,-4.6199927,3.7218604,1.8087152,-0.6906779,-0.7266803,11.6184862631149,2.067982332055117,walk
05/08/2020, 16:48:32,-10.432706,-4.9145803,3.899092,1.8087152,-0.6906779,-0.7266803,12.17363421644664,2.067982332055117,walk
05/08/2020, 16:48:33,-9.963282,-3.4991236,2.7015822,-1.0586852,0.75951564,1.1670012,10.899972155780365,1.7491627258223916,walk
05/08/2020, 16:48:33,-10.133328,-3.6452198,2.7662477,-1.0586852,0.75951564,1.1670012,11.11863747274069,1.7491627258223916,walk
05/08/2020, 16:48:33,-10.133328,-3.6452198,2.7662477,-0.94384253,0.76684606,1.1376797,11.11863747274069,1.665294776813287,walk
05/08/2020, 16:48:33,-10.291399,-3.8008962,2.8309133,-0.94384253,0.76684606,1.1376797,11.330215145353417,1.665294776813287,walk
05/08/2020, 16:48:33,-10.291399,-3.8008962,2.8309133,-0.819226,0.7741764,1.0949192,11.330215145353417,1.571409709399926,walk
05/08/2020, 16:48:33,-10.298584,-3.7937112,2.806963,-0.819226,0.7741764,1.0949192,11.328376659501064,1.571409709399926,walk
05/08/2020, 16:48:33,-10.298584,-3.7937112,2.806963,-0.70438343,0.76073736,1.0423847,11.328376659501064,1.4701847858513486,walk
05/08/2020, 16:48:33,-10.157278,-3.67875,2.8859987,-0.70438343,0.76073736,1.0423847,11.181792704916228,1.4701847858513486,walk
05/08/2020, 16:48:33,-10.157278,-3.67875,2.8859987,-0.6151971,0.7411897,0.9849635,11.181792704916228,1.3776729466098512,walk
05/08/2020, 16:48:33,-9.867481,-3.5566041,2.787803,-0.6151971,0.7411897,0.9849635,10.853039395410043,1.3776729466098512,walk
05/08/2020, 16:48:33,-9.867481,-3.5566041,2.787803,-0.55533236,0.72652894,0.92387694,10.853039395410043,1.2999180512288897,walk
05/08/2020, 16:48:33,-9.608819,-3.5206788,2.7662477,-0.55533236,0.72652894,0.92387694,10.600788096087197,1.2999180512288897,walk
05/08/2020, 16:48:33,-9.608819,-3.5206788,2.7662477,-0.51745874,0.7191986,0.8676774,10.600788096087197,1.2401105606092042,walk
05/08/2020, 16:48:33,-9.472302,-3.4416432,2.7590625,-0.51745874,0.7191986,0.8676774,10.449011803499266,1.2401105606092042,walk
05/08/2020, 16:48:33,-9.472302,-3.4416432,2.7590625,-0.497911,0.7155334,0.82247335,10.449011803499266,1.1984847886970824,walk
05/08/2020, 16:48:33,-9.501043,-3.3697927,2.6417067,-0.497911,0.7155334,0.82247335,10.421321476583996,1.1984847886970824,walk
05/08/2020, 16:48:33,-9.501043,-3.3697927,2.6417067,-0.49546757,0.708203,0.77238244,10.421321476583996,1.159143762181501,walk
05/08/2020, 16:48:33,-9.529783,-3.2284865,2.5363257,-0.49546757,0.708203,0.77238244,10.376552516047507,1.159143762181501,walk
05/08/2020, 16:48:33,-9.529783,-3.2284865,2.5363257,-0.5125718,0.67888147,0.7186263,10.376552516047507,1.1135680023456478,walk
05/08/2020, 16:48:33,-9.596844,-3.178191,2.3758595,-0.5125718,0.67888147,0.7186263,10.384845469623906,1.1135680023456478,walk
05/08/2020, 16:48:34,-7.4844365,-2.6488917,2.4860303,-0.20103064,-0.040717505,-0.29418784,8.319480988978182,0.3586331295159953,walk
05/08/2020, 16:48:34,-7.4844365,-2.6488917,2.4860303,-0.17293085,0.035029758,-0.23921,8.319480988978182,0.29724330927511716,walk
05/08/2020, 16:48:34,-7.4844365,-2.6536818,2.562671,-0.17293085,0.035029758,-0.23921,8.344225496552905,0.29724330927511716,walk
05/08/2020, 16:48:34,-7.4844365,-2.6536818,2.562671,-0.13139203,0.1095553,-0.18056695,8.344225496552905,0.24873812149298713,walk
05/08/2020, 16:48:34,-7.5059915,-2.675237,2.5938063,-0.13139203,0.1095553,-0.18056695,8.380013807731947,0.24873812149298713,walk
05/08/2020, 16:48:34,-7.5059915,-2.675237,2.5938063,-0.08130109,0.18652429,-0.120702185,8.380013807731947,0.2365802078168383,walk
05/08/2020, 16:48:34,-7.580237,-2.6967921,2.680027,-0.08130109,0.18652429,-0.120702185,8.480284439320242,0.2365802078168383,walk
05/08/2020, 16:48:34,-7.580237,-2.6967921,2.680027,-0.029988436,0.264715,-0.059615687,8.480284439320242,0.27299699675091654,walk
05/08/2020, 16:48:34,-7.702383,-2.7470875,2.7662477,-0.029988436,0.264715,-0.059615687,8.632804917413582,0.27299699675091654,walk
05/08/2020, 16:48:34,-7.702383,-2.7470875,2.7662477,0.020102493,0.33191013,0.0051360084,8.632804917413582,0.33255800314199147,walk
05/08/2020, 16:48:34,-7.776629,-2.7063723,2.7303224,0.020102493,0.33191013,0.0051360084,8.674967963309806,0.33255800314199147,walk
05/08/2020, 16:48:34,-7.776629,-2.7063723,2.7303224,0.055532664,0.39055318,0.067444235,8.674967963309806,0.4002054287769848,walk
05/08/2020, 16:48:34,-7.8365045,-2.6656568,2.8261232,0.055532664,0.39055318,0.067444235,8.746627973013725,0.4002054287769848,walk
05/08/2020, 16:48:34,-7.8365045,-2.6656568,2.8261232,0.08729765,0.4394224,0.12853074,8.746627973013725,0.4660826914470001,walk
05/08/2020, 16:48:34,-7.8484793,-2.6584718,2.912344,0.08729765,0.4394224,0.12853074,8.783384697821333,0.4660826914470001,walk
05/08/2020, 16:48:34,-7.8484793,-2.6584718,2.912344,0.10806706,0.48706985,0.18839552,8.783384697821333,0.5332995342555434,walk
05/08/2020, 16:48:34,-7.846084,-2.6057813,3.0416749,0.10806706,0.48706985,0.18839552,8.80925185037326,0.5332995342555434,walk
05/08/2020, 16:48:34,-7.846084,-2.6057813,3.0416749,0.12761474,0.5371608,0.24581683,8.80925185037326,0.6043617900114951,walk
05/08/2020, 16:48:34,-7.8556643,-2.5698562,3.0728102,0.12761474,0.5371608,0.24581683,8.818037419817458,0.6043617900114951,walk
05/08/2020, 16:48:34,-7.8556643,-2.5698562,3.0728102,0.14838414,0.59091693,0.29712948,8.818037419817458,0.677854410524463,walk
05/08/2020, 16:48:35,-9.484278,-3.2596216,3.6931202,1.2552716,-0.7590948,-0.515321,10.687178963203348,1.5548270968596076,walk
05/08/2020, 16:48:35,-9.438772,-3.1853762,3.6931202,1.2552716,-0.7590948,-0.515321,10.62432017191773,1.5548270968596076,walk
05/08/2020, 16:48:35,-9.438772,-3.1853762,3.6931202,1.2247282,-0.7798642,-0.5556381,10.62432017191773,1.5546321292866476,walk
05/08/2020, 16:48:35,-9.400452,-3.1853762,3.63564,1.2247282,-0.7798642,-0.5556381,10.570382692585353,1.5546321292866476,walk
05/08/2020, 16:48:35,-9.400452,-3.1853762,3.63564,1.194185,-0.7957467,-0.5959552,10.570382692585353,1.5538510983469584,walk
05/08/2020, 16:48:35,-9.386082,-3.163821,3.551814,1.194185,-0.7957467,-0.5959552,10.522531827249615,1.5538510983469584,walk
05/08/2020, 16:48:35,-9.386082,-3.163821,3.551814,1.16242,-0.8128509,-0.6289419,10.522531827249615,1.5516168391070673,walk
05/08/2020, 16:48:35,-9.462723,-3.1470559,3.5254688,1.16242,-0.8128509,-0.6289419,10.577145807719216,1.5516168391070673,walk
05/08/2020, 16:48:35,-9.462723,-3.1470559,3.5254688,1.1233246,-0.8311768,-0.65704167,10.577145807719216,1.5441557197310771,walk
05/08/2020, 16:48:35,-9.503438,-3.0799952,3.5063088,1.1233246,-0.8311768,-0.65704167,10.587535372221204,1.5441557197310771,walk
05/08/2020, 16:48:35,-9.503438,-3.0799952,3.5063088,1.0732337,-0.85927665,-0.6851415,10.587535372221204,1.536100866171664,walk
05/08/2020, 16:48:35,-9.580078,-3.0153298,3.5254688,1.0732337,-0.85927665,-0.6851415,10.644202241454984,1.536100866171664,walk
05/08/2020, 16:48:35,-9.580078,-3.0153298,3.5254688,1.013369,-0.8824895,-0.7107978,10.644202241454984,1.5201769216406478,walk
05/08/2020, 16:48:35,-9.532178,-2.9219239,3.4560134,1.013369,-0.8824895,-0.7107978,10.551970623392515,1.5201769216406478,walk
05/08/2020, 16:48:35,-9.532178,-2.9219239,3.4560134,0.9400652,-0.9008154,-0.7340107,10.551970623392515,1.4946446823068171,walk
05/08/2020, 16:48:35,-9.608819,-2.8692336,3.3865578,0.9400652,-0.9008154,-0.7340107,10.584454547861814,1.4946446823068171,walk
05/08/2020, 16:48:35,-9.608819,-2.8692336,3.3865578,0.8667614,-0.92402834,-0.75355834,10.584454547861814,1.4740942428578316,walk
05/08/2020, 16:48:35,-9.584868,-2.8524685,3.288362,0.8667614,-0.92402834,-0.75355834,10.527089063299984,1.4740942428578316,walk
05/08/2020, 16:48:35,-9.584868,-2.8524685,3.288362,0.79590106,-0.9472412,-0.7694408,10.527089063299984,1.4569706772951727,walk
05/08/2020, 16:48:35,-9.584868,-2.907554,3.3554225,0.79590106,-0.9472412,-0.7694408,10.563258622220726,1.4569706772951727,walk
05/08/2020, 16:48:36,-9.951306,-3.432063,2.938689,-0.6860575,1.0209659,1.0240588,10.929018623605284,1.60054453441591,walk
05/08/2020, 16:48:36,-9.999207,-3.4847536,2.9219239,-0.6860575,1.0209659,1.0240588,10.984774842405416,1.60054453441591,walk
05/08/2020, 16:48:36,-9.999207,-3.4847536,2.9219239,-0.67628366,1.029518,1.0240588,10.984774842405416,1.6018624719811878,walk
05/08/2020, 16:48:36,-10.085427,-3.537444,2.919529,-0.67628366,1.029518,1.0240588,11.079395458480825,1.6018624719811878,walk
05/08/2020, 16:48:36,-10.085427,-3.537444,2.919529,-0.65673596,1.0307397,1.0118415,11.079395458480825,1.5866788165699932,walk
05/08/2020, 16:48:36,-10.200389,-3.539839,2.9602442,-0.65673596,1.0307397,1.0118415,11.19559912794861,1.5866788165699932,walk
05/08/2020, 16:48:36,-10.200389,-3.539839,2.9602442,-0.63230133,1.0099703,0.99229383,11.19559912794861,1.5506424632136908,walk
05/08/2020, 16:48:36,-10.214759,-3.544629,2.9794044,-0.63230133,1.0099703,0.99229383,11.215281768280008,1.5506424632136908,walk
05/08/2020, 16:48:36,-10.214759,-3.544629,2.9794044,-0.61886233,0.98064876,0.969081,11.215281768280008,1.5112182244865002,walk
05/08/2020, 16:48:36,-10.162068,-3.551814,3.0033545,-0.61886233,0.98064876,0.969081,11.176008021602598,1.5112182244865002,walk
05/08/2020, 16:48:36,-10.162068,-3.551814,3.0033545,-0.60786676,0.94766206,0.94831157,11.176008021602598,1.4720258839322982,walk
05/08/2020, 16:48:36,-10.042317,-3.5134938,3.0871804,-0.60786676,0.94766206,0.94831157,11.078062094107743,1.4720258839322982,walk
05/08/2020, 16:48:36,-10.042317,-3.5134938,3.0871804,-0.60297984,0.91345364,0.92387694,11.078062094107743,1.432316598497949,walk
05/08/2020, 16:48:36,-9.889036,-3.4703834,3.1255007,-0.60297984,0.91345364,0.92387694,10.936423182120672,1.432316598497949,walk
05/08/2020, 16:48:36,-9.889036,-3.4703834,3.1255007,-0.6017581,0.8768017,0.89333373,10.936423182120672,1.3888625810070268,walk
05/08/2020, 16:48:36,-9.769285,-3.4584084,3.1350808,-0.6017581,0.8768017,0.89333373,10.827199703800337,1.3888625810070268,walk
05/08/2020, 16:48:36,-9.769285,-3.4584084,3.1350808,-0.6005364,0.8364847,0.8566818,10.827199703800337,1.3394977888387618,walk
05/08/2020, 16:48:36,-9.733359,-3.3793726,3.151846,-0.6005364,0.8364847,0.8566818,10.774626485730918,1.3394977888387618,walk
05/08/2020, 16:48:36,-9.733359,-3.3793726,3.151846,-0.60664505,0.7900589,0.82247335,10.774626485730918,1.2917715368041607,walk
05/08/2020, 16:48:36,-9.683064,-3.2476466,3.1374757,-0.60664505,0.7900589,0.82247335,10.684226670474864,1.2917715368041607,walk
05/08/2020, 16:48:37,-7.7598634,-2.5195606,3.4703834,0.018880764,0.094894536,-0.13536294,8.86607162726338,0.1663868419642785,walk
05/08/2020, 16:48:37,-7.807764,-2.5123756,3.4991236,0.018880764,0.094894536,-0.13536294,8.91723479645917,0.1663868419642785,walk
05/08/2020, 16:48:37,-7.807764,-2.5123756,3.4991236,0.043315366,0.13765508,-0.11581527,8.91723479645917,0.18503599071932408,walk
05/08/2020, 16:48:37,-7.7694435,-2.5219557,3.5613942,0.043315366,0.13765508,-0.11581527,8.911119005728345,0.18503599071932408,walk
05/08/2020, 16:48:37,-7.7694435,-2.5219557,3.5613942,0.07508034,0.17552872,-0.093824126,8.911119005728345,0.2127213105989413,walk
05/08/2020, 16:48:37,-7.781419,-2.4932153,3.661985,0.07508034,0.17552872,-0.093824126,8.954146232266147,0.2127213105989413,walk
05/08/2020, 16:48:37,-7.781419,-2.4932153,3.661985,0.11051052,0.21462408,-0.071832985,8.954146232266147,0.2518651371736789,walk
05/08/2020, 16:48:37,-7.7646537,-2.4836354,3.7697608,0.11051052,0.21462408,-0.071832985,8.981613918656391,0.2518651371736789,walk
05/08/2020, 16:48:37,-7.7646537,-2.4836354,3.7697608,0.1508276,0.24272387,-0.048620112,8.981613918656391,0.28987541541132456,walk
05/08/2020, 16:48:37,-7.7239385,-2.4692652,3.8344264,0.1508276,0.24272387,-0.048620112,8.969912039290099,0.28987541541132456,walk
05/08/2020, 16:48:37,-7.7239385,-2.4692652,3.8344264,0.18137085,0.26715845,-0.022963783,8.969912039290099,0.3237226572958076,walk
05/08/2020, 16:48:37,-7.709568,-2.3471193,3.9422023,0.18137085,0.26715845,-0.022963783,8.971475211758772,0.3237226572958076,walk
05/08/2020, 16:48:37,-7.709568,-2.3471193,3.9422023,0.19236642,0.28792787,0.003914278,8.971475211758772,0.34629845162124345,walk
05/08/2020, 16:48:37,-7.702383,-2.2465284,3.9948928,0.19236642,0.28792787,0.003914278,8.96285462774785,0.34629845162124345,walk
05/08/2020, 16:48:37,-7.702383,-2.2465284,3.9948928,0.18014912,0.30503207,0.034457527,8.96285462774785,0.3559291982430034,walk
05/08/2020, 16:48:37,-7.719148,-2.1603076,3.9445972,0.18014912,0.30503207,0.034457527,8.933757599406222,0.3559291982430034,walk
05/08/2020, 16:48:37,-7.719148,-2.1603076,3.9445972,0.14105377,0.31969285,0.06622251,8.933757599406222,0.355647443844884,walk
05/08/2020, 16:48:37,-7.7383084,-1.9878663,3.8416114,0.14105377,0.31969285,0.06622251,8.86515694990305,0.355647443844884,walk
05/08/2020, 16:48:37,-7.7383084,-1.9878663,3.8416114,0.07874554,0.32946667,0.10409614,8.86515694990305,0.3543799548386306,walk
05/08/2020, 16:48:37,-7.8197393,-1.9040406,3.7506008,0.07874554,0.32946667,0.10409614,8.879228590151605,0.3543799548386306,walk
05/08/2020, 16:48:38,-10.219549,-3.7529957,3.6811452,1.497174,-1.1085095,-0.6313854,11.492388450076861,1.9669699964749117,walk
05/08/2020, 16:48:38,-10.403965,-3.7242556,3.63564,1.497174,-1.1085095,-0.6313854,11.63316142157509,1.9669699964749117,walk
05/08/2020, 16:48:38,-10.403965,-3.7242556,3.63564,1.4690742,-1.1769265,-0.64360267,11.63316142157509,1.9893615853221762,walk
05/08/2020, 16:48:38,-10.676997,-3.6068995,3.786526,1.4690742,-1.1769265,-0.64360267,11.88889278979288,1.9893615853221762,walk
05/08/2020, 16:48:38,-10.676997,-3.6068995,3.786526,1.4238703,-1.2624476,-0.65704167,11.88889278979288,2.013177684397184,walk
05/08/2020, 16:48:38,-10.947635,-3.4416432,3.8655617,1.4238703,-1.2624476,-0.65704167,12.10942529916403,2.013177684397184,walk
05/08/2020, 16:48:38,-10.947635,-3.4416432,3.8655617,1.3200232,-1.3418599,-0.682698,12.10942529916403,2.002280164653861,walk
05/08/2020, 16:48:38,-11.158397,-3.3817677,3.6691701,1.3200232,-1.3418599,-0.682698,12.22329661013758,2.002280164653861,walk
05/08/2020, 16:48:38,-11.158397,-3.3817677,3.6691701,1.1477593,-1.4310462,-0.72179335,12.22329661013758,1.9713524445254185,walk
05/08/2020, 16:48:38,-11.409874,-3.2260914,3.3362625,1.1477593,-1.4310462,-0.72179335,12.317610835455907,1.9713524445254185,walk
05/08/2020, 16:48:38,-11.409874,-3.2260914,3.3362625,0.9400652,-1.5348934,-0.75600183,12.317610835455907,1.952219015994681,walk
05/08/2020, 16:48:38,-11.620635,-3.1326857,3.0296998,0.9400652,-1.5348934,-0.75600183,12.410961240267007,1.952219015994681,walk
05/08/2020, 16:48:38,-11.620635,-3.1326857,3.0296998,0.70793647,-1.6387404,-0.7841016,12.410961240267007,1.9497331951835513,walk
05/08/2020, 16:48:38,-11.673326,-2.936294,2.8309133,0.70793647,-1.6387404,-0.7841016,12.365371898585744,1.9497331951835513,walk
05/08/2020, 16:48:38,-11.673326,-2.936294,2.8309133,0.46114704,-1.7291484,-0.8244187,12.365371898585744,1.9703494542395588,walk
05/08/2020, 16:48:38,-11.587105,-2.8404932,2.7399025,0.46114704,-1.7291484,-0.8244187,12.240770601000412,1.9703494542395588,walk
05/08/2020, 16:48:38,-11.587105,-2.8404932,2.7399025,0.21557929,-1.8085608,-0.8842835,12.240770601000412,2.0246787519938594,walk
05/08/2020, 16:48:38,-11.371553,-2.816543,2.7063723,0.21557929,-1.8085608,-0.8842835,12.023709621801544,2.0246787519938594,walk
05/08/2020, 16:48:38,-11.371553,-2.816543,2.7063723,-0.007997297,-1.8696474,-0.96247417,12.023709621801544,2.102855634346767,walk
05/08/2020, 16:48:38,-11.223062,-2.931504,2.8548634,-0.007997297,-1.8696474,-0.96247417,11.945755381935292,2.102855634346767,walk
05/08/2020, 16:48:39,-10.051897,-3.6164796,3.300337,-1.2285056,0.3795576,1.2048749,11.180866873871853,1.7621048425784989,walk
05/08/2020, 16:48:39,-10.035132,-3.535049,3.1374757,-1.2285056,0.3795576,1.2048749,11.092529358091614,1.7621048425784989,walk
05/08/2020, 16:48:39,-10.035132,-3.535049,3.1374757,-1.2822617,0.3025886,1.1535622,11.092529358091614,1.7511312721256973,walk
05/08/2020, 16:48:39,-9.891431,-3.4057178,2.9722195,-1.2822617,0.3025886,1.1535622,10.875357786675337,1.7511312721256973,walk
05/08/2020, 16:48:39,-9.891431,-3.4057178,2.9722195,-1.3702263,0.23661521,1.1083581,10.875357786675337,1.7781913703479224,walk
05/08/2020, 16:48:39,-9.72857,-3.3793726,3.051255,-1.3702263,0.23661521,1.1083581,10.741293687900809,1.7781913703479224,walk
05/08/2020, 16:48:39,-9.72857,-3.3793726,3.051255,-1.4691864,0.19263293,1.0582672,10.741293687900809,1.820864009044028,walk
05/08/2020, 16:48:39,-9.656719,-3.427273,3.0057497,-1.4691864,0.19263293,1.0582672,10.678621520972115,1.820864009044028,walk
05/08/2020, 16:48:39,-9.656719,-3.427273,3.0057497,-1.5632596,0.14987238,0.99962425,10.678621520972115,1.8615829171271694,walk
05/08/2020, 16:48:39,-9.599238,-3.4679885,3.032095,-1.5632596,0.14987238,0.99962425,10.647343413746498,1.8615829171271694,walk
05/08/2020, 16:48:39,-9.599238,-3.4679885,3.032095,-1.6426721,0.10344664,0.94464636,10.647343413746498,1.8977432526461795,walk
05/08/2020, 16:48:39,-9.491463,-3.415298,2.943479,-1.6426721,0.10344664,0.94464636,10.507911002592081,1.8977432526461795,walk
05/08/2020, 16:48:39,-9.491463,-3.415298,2.943479,-1.7147541,0.061907817,0.8835599,10.507911002592081,1.9299980008460138,walk
05/08/2020, 16:48:39,-9.3309965,-3.4679885,2.9698243,-1.7147541,0.061907817,0.8835599,10.388180618534593,1.9299980008460138,walk
05/08/2020, 16:48:39,-9.3309965,-3.4679885,2.9698243,-1.7733972,0.02647765,0.8163647,10.388180618534593,1.952457439522225,walk
05/08/2020, 16:48:39,-9.244776,-3.547024,2.9937747,-1.7733972,0.02647765,0.8163647,10.344561135451784,1.952457439522225,walk
05/08/2020, 16:48:39,-9.244776,-3.547024,2.9937747,-1.8173795,-0.0028438717,0.7467261,10.344561135451784,1.9648094320856777,walk
05/08/2020, 16:48:39,-9.223221,-3.6404297,2.9913795,-1.8173795,-0.0028438717,0.7467261,10.357069197256955,1.9648094320856777,walk
05/08/2020, 16:48:39,-9.223221,-3.6404297,2.9913795,-1.8405924,-0.035830583,0.6783092,10.357069197256955,1.9619295425101915,walk
05/08/2020, 16:48:39,-9.081915,-3.755391,2.9410841,-1.8405924,-0.035830583,0.6783092,10.258368043671624,1.9619295425101915,walk
05/08/2020, 16:48:40,-8.023315,-2.8476784,3.0895753,0.15815797,0.23417176,0.25925586,9.05694972722331,0.3834891895752459,walk
05/08/2020, 16:48:40,-8.023315,-2.8596535,3.0919704,0.15815797,0.23417176,0.25925586,9.061539035627744,0.3834891895752459,walk
05/08/2020, 16:48:40,-8.023315,-2.8596535,3.0919704,0.126393,0.25982806,0.28979912,9.061539035627744,0.40923018615721557,walk
05/08/2020, 16:48:40,-8.018526,-2.8620484,3.1566358,0.126393,0.25982806,0.28979912,9.080332083888091,0.40923018615721557,walk
05/08/2020, 16:48:40,-8.018526,-2.8620484,3.1566358,0.0934063,0.2854844,0.32034236,9.080332083888091,0.43914156007212907,walk
05/08/2020, 16:48:40,-8.006551,-2.8285182,3.1374757,0.0934063,0.2854844,0.32034236,9.052575568446361,0.43914156007212907,walk
05/08/2020, 16:48:40,-8.006551,-2.8285182,3.1374757,0.07263689,0.31358418,0.34722042,9.052575568446361,0.4734692969818104,walk
05/08/2020, 16:48:40,-7.9921803,-2.792593,3.1470559,0.07263689,0.31358418,0.34722042,9.032025409391338,0.4734692969818104,walk
05/08/2020, 16:48:40,-7.9921803,-2.792593,3.1470559,0.059197858,0.34168398,0.37776366,9.032025409391338,0.5127940259573303,walk
05/08/2020, 16:48:40,-7.9969707,-2.7710378,3.1901662,0.059197858,0.34168398,0.37776366,9.044741611758614,0.5127940259573303,walk
05/08/2020, 16:48:40,-7.9969707,-2.7710378,3.1901662,0.045758825,0.36611858,0.40952864,9.044741611758614,0.551226263972329,walk
05/08/2020, 16:48:40,-8.052056,-2.7830129,3.159031,0.045758825,0.36611858,0.40952864,9.086266989030271,0.551226263972329,walk
05/08/2020, 16:48:40,-8.052056,-2.7830129,3.159031,0.024989415,0.38933146,0.4437371,9.086266989030271,0.5908519791977258,walk
05/08/2020, 16:48:40,-8.076006,-2.7901978,3.1087356,0.024989415,0.38933146,0.4437371,9.092376625590433,0.5908519791977258,walk
05/08/2020, 16:48:40,-8.076006,-2.7901978,3.1087356,-0.0018886458,0.41743124,0.480389,9.092376625590433,0.6364165251974371,walk
05/08/2020, 16:48:40,-8.248447,-2.7399025,3.04886,-0.0018886458,0.41743124,0.480389,9.21083591460305,0.6364165251974371,walk
05/08/2020, 16:48:40,-8.248447,-2.7399025,3.04886,-0.043427467,0.4443093,0.5133757,9.21083591460305,0.6803317592994658,walk
05/08/2020, 16:48:40,-8.351434,-2.672842,2.955454,-0.043427467,0.4443093,0.5133757,9.253390689059303,0.6803317592994658,walk
05/08/2020, 16:48:40,-8.351434,-2.672842,2.955454,-0.09962705,0.463857,0.54880583,9.253390689059303,0.7254493109388251,walk
05/08/2020, 16:48:40,-8.4448395,-2.6273365,2.7782228,-0.09962705,0.463857,0.54880583,9.270206730116413,0.7254493109388251,walk
05/08/2020, 16:48:41,-10.40157,-3.8080812,3.2045362,0.56865925,-1.2587824,-1.112747,11.530966976986493,1.773728338514225,walk
05/08/2020, 16:48:41,-10.447076,-3.8799317,3.1446607,0.56865925,-1.2587824,-1.112747,11.57947125655586,1.773728338514225,walk
05/08/2020, 16:48:41,-10.447076,-3.8799317,3.1446607,0.5576637,-1.2575606,-1.1665031,11.57947125655586,1.803656531953874,walk
05/08/2020, 16:48:41,-10.574012,-3.8583767,3.1973512,0.5576637,-1.2575606,-1.1665031,11.701275635087853,1.803656531953874,walk
05/08/2020, 16:48:41,-10.574012,-3.8583767,3.1973512,0.5588854,-1.2673345,-1.2153723,11.701275635087853,1.8427206537697698,walk
05/08/2020, 16:48:41,-10.696157,-3.791316,3.1350808,0.5588854,-1.2673345,-1.2153723,11.773300016641132,1.8427206537697698,walk
05/08/2020, 16:48:41,-10.696157,-3.791316,3.1350808,0.55522025,-1.2783301,-1.2569112,11.773300016641132,1.8767586407037808,walk
05/08/2020, 16:48:41,-10.712923,-3.67875,3.1159205,0.55522025,-1.2783301,-1.2569112,11.747718201901474,1.8767586407037808,walk
05/08/2020, 16:48:41,-10.712923,-3.67875,3.1159205,0.52101177,-1.2881038,-1.3008934,11.747718201901474,1.903414935883945,walk
05/08/2020, 16:48:41,-10.691368,-3.5566041,3.0105398,0.52101177,-1.2881038,-1.3008934,11.662681281767817,1.903414935883945,walk
05/08/2020, 16:48:41,-10.691368,-3.5566041,3.0105398,0.45748186,-1.2942125,-1.3399888,11.662681281767817,1.9182923668158067,walk
05/08/2020, 16:48:41,-10.6817875,-3.3793726,2.8309133,0.45748186,-1.2942125,-1.3399888,11.555726428450745,1.9182923668158067,walk
05/08/2020, 16:48:41,-10.6817875,-3.3793726,2.8309133,0.36829555,-1.3003212,-1.3693103,11.555726428450745,1.9239250190035937,walk
05/08/2020, 16:48:41,-10.643467,-3.3099172,2.7638526,0.36829555,-1.3003212,-1.3693103,11.483806939577512,1.9239250190035937,walk
05/08/2020, 16:48:41,-10.643467,-3.3099172,2.7638526,0.2839962,-1.3015429,-1.3864145,11.483806939577512,1.9227097922895877,walk
05/08/2020, 16:48:41,-10.619517,-3.3099172,2.7710378,0.2839962,-1.3015429,-1.3864145,11.463348148564839,1.9227097922895877,walk
05/08/2020, 16:48:41,-10.619517,-3.3099172,2.7710378,0.21069238,-1.2881038,-1.4010752,11.463348148564839,1.9148406107869098,walk
05/08/2020, 16:48:41,-10.585987,-3.3506324,2.680027,0.21069238,-1.2881038,-1.4010752,11.4224518003442,1.9148406107869098,walk
05/08/2020, 16:48:41,-10.585987,-3.3506324,2.680027,0.16182317,-1.2734431,-1.4108491,11.4224518003442,1.907443116094342,walk
05/08/2020, 16:48:41,-10.468631,-3.3650026,2.7830129,0.16182317,-1.2734431,-1.4108491,11.342867096297553,1.907443116094342,walk
05/08/2020, 16:48:42,-9.845925,-3.2236965,3.278782,-1.1894102,0.5786996,0.7943736,10.866686488813803,1.5429255434311344,walk
05/08/2020, 16:48:42,-9.766891,-3.1973512,3.302732,-1.1894102,0.5786996,0.7943736,10.79459327409031,1.5429255434311344,walk
05/08/2020, 16:48:42,-9.766891,-3.1973512,3.302732,-1.2187318,0.5261652,0.7674955,10.79459327409031,1.5333643637517953,walk
05/08/2020, 16:48:42,-9.618399,-3.2404616,3.4488282,-1.2187318,0.5261652,0.7674955,10.719542914777298,1.5333643637517953,walk
05/08/2020, 16:48:42,-9.618399,-3.2404616,3.4488282,-1.235836,0.47729602,0.73695225,10.719542914777298,1.5159817932693183,walk
05/08/2020, 16:48:42,-9.426797,-3.3314724,3.542234,-1.235836,0.47729602,0.73695225,10.607102794179465,1.5159817932693183,walk
05/08/2020, 16:48:42,-9.426797,-3.3314724,3.542234,-1.2346143,0.44308758,0.7027438,10.607102794179465,1.4881020944972148,walk
05/08/2020, 16:48:42,-9.278306,-3.3673975,3.65959,-1.2346143,0.44308758,0.7027438,10.527056930394137,1.4881020944972148,walk
05/08/2020, 16:48:42,-9.278306,-3.3673975,3.65959,-1.2114013,0.41376606,0.66731364,10.527056930394137,1.4436076516588883,walk
05/08/2020, 16:48:42,-9.16095,-3.4344583,3.7194655,-1.2114013,0.41376606,0.66731364,10.466753393845867,1.4436076516588883,walk
05/08/2020, 16:48:42,-9.16095,-3.4344583,3.7194655,-1.1686409,0.386888,0.6306618,10.466753393845867,1.3831623372715958,walk
05/08/2020, 16:48:42,-9.065149,-3.537444,3.8224514,-1.1686409,0.386888,0.6306618,10.454739459875762,1.3831623372715958,walk
05/08/2020, 16:48:42,-9.065149,-3.537444,3.8224514,-1.1112195,0.36367512,0.5964533,10.454739459875762,1.3125642744115764,walk
05/08/2020, 16:48:42,-9.024434,-3.5781593,3.9326222,-1.1112195,0.36367512,0.5964533,10.474213677828144,1.3125642744115764,walk
05/08/2020, 16:48:42,-9.024434,-3.5781593,3.9326222,-1.0318071,0.33557534,0.5549145,10.474213677828144,1.2186741581236271,walk
05/08/2020, 16:48:42,-9.002879,-3.5709743,4.018843,-1.0318071,0.33557534,0.5549145,10.485933011630397,1.2186741581236271,walk
05/08/2020, 16:48:42,-9.002879,-3.5709743,4.018843,-0.9475077,0.29892343,0.5060453,10.485933011630397,1.1149923087867055,walk
05/08/2020, 16:48:42,-8.943004,-3.5997145,4.040398,-0.9475077,0.29892343,0.5060453,10.45275446700182,1.1149923087867055,walk
05/08/2020, 16:48:42,-8.943004,-3.5997145,4.040398,-0.85954314,0.25371942,0.4559544,10.45275446700182,1.005525921413129,walk
05/08/2020, 16:48:42,-8.820857,-3.5757644,4.136199,-0.85954314,0.25371942,0.4559544,10.377945479683467,1.005525921413129,walk
05/08/2020, 16:48:43,-8.183782,-2.3710694,2.4908204,-0.2938821,0.6678859,0.70763075,8.876961091444768,1.0164544002934228,walk
05/08/2020, 16:48:43,-8.267608,-2.4644752,2.4860303,-0.2938821,0.6678859,0.70763075,8.978158025953572,1.0164544002934228,walk
05/08/2020, 16:48:43,-8.267608,-2.4644752,2.4860303,-0.28533,0.73141587,0.75772166,8.978158025953572,1.0911115877982804,walk
05/08/2020, 16:48:43,-8.425679,-2.6488917,2.4644752,-0.28533,0.73141587,0.75772166,9.169642035393666,1.0911115877982804,walk
05/08/2020, 16:48:43,-8.425679,-2.6488917,2.4644752,-0.24501292,0.8059414,0.801704,9.169642035393666,1.162885275803807,walk
05/08/2020, 16:48:43,-8.557405,-2.7854078,2.440525,-0.24501292,0.8059414,0.801704,9.324368475257447,1.162885275803807,walk
05/08/2020, 16:48:43,-8.557405,-2.7854078,2.440525,-0.17537431,0.8914625,0.84446454,9.324368475257447,1.2403958673689315,walk
05/08/2020, 16:48:43,-8.720266,-2.8859987,2.4884255,-0.17537431,0.8914625,0.84446454,9.516527473796101,1.2403958673689315,walk
05/08/2020, 16:48:43,-8.720266,-2.8859987,2.4884255,-0.09474013,0.98675746,0.8860033,9.516527473796101,1.329536703769754,walk
05/08/2020, 16:48:43,-8.851993,-2.9338992,2.4213648,-0.09474013,0.98675746,0.8860033,9.63475712410553,1.329536703769754,walk
05/08/2020, 16:48:43,-8.851993,-2.9338992,2.4213648,-0.015327675,1.0857176,0.93120736,9.63475712410553,1.430442134586419,walk
05/08/2020, 16:48:43,-9.026829,-2.919529,2.4333398,-0.015327675,1.0857176,0.93120736,9.794305982164838,1.430442134586419,walk
05/08/2020, 16:48:43,-9.026829,-2.919529,2.4333398,0.059197858,1.1810125,0.9715244,9.794305982164838,1.5304099554469095,walk
05/08/2020, 16:48:43,-9.230406,-2.9003687,2.42855,0.059197858,1.1810125,0.9715244,9.975489212986265,1.5304099554469095,walk
05/08/2020, 16:48:43,-9.230406,-2.9003687,2.42855,0.11661917,1.2677554,1.0130633,9.975489212986265,1.6269914046753295,walk
05/08/2020, 16:48:43,-9.378897,-2.9051588,2.3950195,0.11661917,1.2677554,1.0130633,10.106422192009527,1.6269914046753295,walk
05/08/2020, 16:48:43,-9.378897,-2.9051588,2.3950195,0.16182317,1.3471678,1.0509369,10.106422192009527,1.7162506806743751,walk
05/08/2020, 16:48:43,-9.441168,-2.8716285,2.4022048,0.16182317,1.3471678,1.0509369,10.15640133437103,1.7162506806743751,walk
05/08/2020, 16:48:43,-9.441168,-2.8716285,2.4022048,0.19969681,1.4229151,1.086367,10.15640133437103,1.8013215934662385,walk
05/08/2020, 16:48:43,-9.484278,-2.8979738,2.3806496,0.19969681,1.4229151,1.086367,10.198885641769161,1.8013215934662385,walk
05/08/2020, 16:48:44,-7.8604546,-3.1231055,2.560276,0.9535042,-0.22642046,-0.9258223,8.837168515029132,1.3481778287431474,walk
05/08/2020, 16:48:44,-7.814949,-3.0536501,2.562671,0.9535042,-0.22642046,-0.9258223,8.772997776700562,1.3481778287431474,walk
05/08/2020, 16:48:44,-7.814949,-3.0536501,2.562671,1.0084821,-0.15556012,-0.8122014,8.772997776700562,1.304187937852995,walk
05/08/2020, 16:48:44,-7.879615,-3.0177248,2.562671,1.0084821,-0.15556012,-0.8122014,8.818292064165515,1.304187937852995,walk
05/08/2020, 16:48:44,-7.879615,-3.0177248,2.562671,1.0402471,-0.09813881,-0.69247186,8.818292064165515,1.2535000990819256,walk
05/08/2020, 16:48:44,-7.9227247,-2.943479,2.4692652,1.0402471,-0.09813881,-0.69247186,8.805163642542228,1.2535000990819256,walk
05/08/2020, 16:48:44,-7.9227247,-2.943479,2.4692652,1.0512426,-0.050491344,-0.57274234,8.805163642542228,1.1982045527246383,walk
05/08/2020, 16:48:44,-7.94428,-2.8740237,2.4501052,1.0512426,-0.050491344,-0.57274234,8.79628413569957,1.1982045527246383,walk
05/08/2020, 16:48:44,-7.94428,-2.8740237,2.4501052,1.0610164,-0.012617712,-0.46278659,8.79628413569957,1.1576210592316365,walk
05/08/2020, 16:48:44,-7.913145,-2.8285182,2.4668703,1.0610164,-0.012617712,-0.46278659,8.758072212436087,1.1576210592316365,walk
05/08/2020, 16:48:44,-7.913145,-2.8285182,2.4668703,1.0671251,0.024034189,-0.361383,8.758072212436087,1.1269122632885447,walk
05/08/2020, 16:48:44,-7.8700347,-2.7973828,2.42855,1.0671251,0.024034189,-0.361383,8.698313165683572,1.1269122632885447,walk
05/08/2020, 16:48:44,-7.8700347,-2.7973828,2.42855,1.0781207,0.06068609,-0.27341843,8.698313165683572,1.113905157268604,walk
05/08/2020, 16:48:44,-7.7502837,-2.8141482,2.42855,1.0781207,0.06068609,-0.27341843,8.595590896486224,1.113905157268604,walk
05/08/2020, 16:48:44,-7.7502837,-2.8141482,2.42855,1.0891162,0.094894536,-0.18789732,8.595590896486224,1.1092720625812535,walk
05/08/2020, 16:48:44,-7.673643,-2.792593,2.440525,1.0891162,0.094894536,-0.18789732,8.522883129170536,1.1092720625812535,walk
05/08/2020, 16:48:44,-7.673643,-2.792593,2.440525,1.1025553,0.1339899,-0.10970662,8.522883129170536,1.1160721167356449,walk
05/08/2020, 16:48:44,-7.6425076,-2.8093581,2.3998096,1.1025553,0.1339899,-0.10970662,8.488786771764985,1.1160721167356449,walk
05/08/2020, 16:48:44,-7.6425076,-2.8093581,2.3998096,1.1074421,0.17552872,-0.037624545,8.488786771764985,1.1218975143475447,walk
05/08/2020, 16:48:44,-7.654483,-2.7279274,2.3950195,1.1074421,0.17552872,-0.037624545,8.47164767199352,1.1218975143475447,walk
05/08/2020, 16:48:45,-9.0004835,-3.3530276,3.6955154,0.08241072,-0.6381435,-0.39925662,10.291177360303758,0.7572479608330166,walk
05/08/2020, 16:48:45,-9.043594,-3.4584084,3.7098854,0.08241072,-0.6381435,-0.39925662,10.368723966089718,0.7572479608330166,walk
05/08/2020, 16:48:45,-9.043594,-3.4584084,3.7098854,0.20580545,-0.640587,-0.41880432,10.368723966089718,0.7925305098624844,walk
05/08/2020, 16:48:45,-9.115445,-3.4751735,3.7410207,0.20580545,-0.640587,-0.41880432,10.448129327313886,0.7925305098624844,walk
05/08/2020, 16:48:45,-9.115445,-3.4751735,3.7410207,0.33164367,-0.6430304,-0.438352,10.448129327313886,0.8459480434813799,walk
05/08/2020, 16:48:45,-9.268726,-3.4751735,3.666775,0.33164367,-0.6430304,-0.438352,10.556105229401597,0.8459480434813799,walk
05/08/2020, 16:48:45,-9.268726,-3.4751735,3.666775,0.44526455,-0.65646946,-0.45667794,10.556105229401597,0.9152963560362734,walk
05/08/2020, 16:48:45,-9.400452,-3.4464333,3.66438,0.44526455,-0.65646946,-0.45667794,10.661804503425383,0.9152963560362734,walk
05/08/2020, 16:48:45,-9.400452,-3.4464333,3.66438,0.5430029,-0.68090403,-0.47866908,10.661804503425383,0.9937839492336062,walk
05/08/2020, 16:48:45,-9.551338,-3.422483,3.5925295,0.5430029,-0.68090403,-0.47866908,10.763257845768784,0.9937839492336062,walk
05/08/2020, 16:48:45,-9.551338,-3.422483,3.5925295,0.63341093,-0.712669,-0.50066024,10.763257845768784,1.0769248852432916,walk
05/08/2020, 16:48:45,-9.673484,-3.4440382,3.5685792,0.63341093,-0.712669,-0.50066024,10.870715066202262,1.0769248852432916,walk
05/08/2020, 16:48:45,-9.673484,-3.4440382,3.5685792,0.72259724,-0.7480992,-0.52020794,10.870715066202262,1.1629340052394495,walk
05/08/2020, 16:48:45,-9.716595,-3.4536183,3.6548,0.72259724,-0.7480992,-0.52020794,10.94062403864489,1.1629340052394495,walk
05/08/2020, 16:48:45,-9.716595,-3.4536183,3.6548,0.81300527,-0.776199,-0.5434208,10.94062403864489,1.2485065418367178,walk
05/08/2020, 16:48:45,-9.891431,-3.420088,3.6883302,0.81300527,-0.776199,-0.5434208,11.096899842410618,1.2485065418367178,walk
05/08/2020, 16:48:45,-9.891431,-3.420088,3.6883302,0.9034133,-0.7981901,-0.56907713,11.096899842410618,1.3330835796045668,walk
05/08/2020, 16:48:45,-10.150093,-3.3841627,3.5805542,0.9034133,-0.7981901,-0.56907713,11.282611185303448,1.3330835796045668,walk
05/08/2020, 16:48:45,-10.150093,-3.3841627,3.5805542,0.96327806,-0.8287334,-0.5971769,11.282611185303448,1.4040384238171053,walk
05/08/2020, 16:48:45,-10.425521,-3.3338673,3.3482375,0.96327806,-0.8287334,-0.5971769,11.44625928746844,1.4040384238171053,walk
05/08/2020, 16:48:46,-10.322535,-3.04407,2.8213332,-0.7960132,1.074722,0.9409812,11.125691116508294,1.635270650847078,walk
05/08/2020, 16:48:46,-10.183623,-3.1063404,2.823728,-0.7960132,1.074722,0.9409812,11.014943251212681,1.635270650847078,walk
05/08/2020, 16:48:46,-10.183623,-3.1063404,2.823728,-0.84366065,1.0527308,0.9336508,11.014943251212681,1.640642932549476,walk
05/08/2020, 16:48:46,-10.097403,-3.2356715,2.8907888,-0.84366065,1.0527308,0.9336508,10.990166911818685,1.640642932549476,walk
05/08/2020, 16:48:46,-10.097403,-3.2356715,2.8907888,-0.8522128,1.0527308,0.9214335,10.990166911818685,1.6381539850524327,walk
05/08/2020, 16:48:46,-10.126143,-3.4057178,2.931504,-0.8522128,1.0527308,0.9214335,11.078420966945906,1.6381539850524327,walk
05/08/2020, 16:48:46,-10.126143,-3.4057178,2.931504,-0.81189567,1.0661699,0.905551,11.078420966945906,1.6173791719259871,walk
05/08/2020, 16:48:46,-10.2315235,-3.5949244,2.9817994,-0.81189567,1.0661699,0.905551,11.247163316216362,1.6173791719259871,walk
05/08/2020, 16:48:46,-10.2315235,-3.5949244,2.9817994,-0.7337049,1.0796089,0.87867296,11.247163316216362,1.57351342435837,walk
05/08/2020, 16:48:46,-10.243499,-3.7577858,3.0991554,-0.7337049,1.0796089,0.87867296,11.342618135248127,1.57351342435837,walk
05/08/2020, 16:48:46,-10.243499,-3.7577858,3.0991554,-0.63596654,1.0942696,0.8481297,11.342618135248127,1.5235496185230541,walk
05/08/2020, 16:48:46,-10.298584,-3.7122805,3.1997461,-0.63596654,1.0942696,0.8481297,11.405272201509323,1.5235496185230541,walk
05/08/2020, 16:48:46,-10.298584,-3.7122805,3.1997461,-0.529676,1.1028218,0.81269956,11.405272201509323,1.4687590807118664,walk
05/08/2020, 16:48:46,-10.181229,-3.6164796,3.2692018,-0.529676,1.1028218,0.81269956,11.288224911093955,1.4687590807118664,walk
05/08/2020, 16:48:46,-10.181229,-3.6164796,3.2692018,-0.43560278,1.1125957,0.76016515,11.288224911093955,1.4161461752432836,walk
05/08/2020, 16:48:46,-10.037527,-3.6308498,3.1422658,-0.43560278,1.1125957,0.76016515,11.126942745152832,1.4161461752432836,walk
05/08/2020, 16:48:46,-10.037527,-3.6308498,3.1422658,-0.3464165,1.1235912,0.6978569,11.126942745152832,1.367284096667963,walk
05/08/2020, 16:48:46,-9.946517,-3.6212697,2.9770093,-0.3464165,1.1235912,0.6978569,10.995880085636566,1.367284096667963,walk
05/08/2020, 16:48:46,-9.946517,-3.6212697,2.9770093,-0.25112155,1.1321433,0.65143114,10.995880085636566,1.330102600074284,walk
05/08/2020, 16:48:46,-9.869876,-3.6045046,2.9889846,-0.25112155,1.1321433,0.65143114,10.924327557828478,1.330102600074284,walk
05/08/2020, 16:48:47,-8.296348,-2.1100123,2.955454,-0.011662485,-0.08103459,-0.14513677,9.056282056078294,0.1666352361115486,walk
05/08/2020, 16:48:47,-8.3179035,-2.074087,2.8931837,-0.011662485,-0.08103459,-0.14513677,9.047644301301958,0.1666352361115486,walk
05/08/2020, 16:48:47,-8.3179035,-2.074087,2.8931837,-0.06664033,-0.07003902,-0.10359797,9.047644301301958,0.14170016661383775,walk
05/08/2020, 16:48:47,-8.270002,-2.0285816,2.8788135,-0.06664033,-0.07003902,-0.10359797,8.988640036320204,0.14170016661383775,walk
05/08/2020, 16:48:47,-8.270002,-2.0285816,2.8788135,-0.1142878,-0.056599993,-0.06083741,8.988640036320204,0.14130269359489622,walk
05/08/2020, 16:48:47,-8.207732,-2.095642,2.9530592,-0.1142878,-0.056599993,-0.06083741,8.971016790962436,0.14130269359489622,walk
05/08/2020, 16:48:47,-8.207732,-2.095642,2.9530592,-0.15582663,-0.038274042,-0.018076863,8.971016790962436,0.1614732589450081,walk
05/08/2020, 16:48:47,-8.186177,-2.1052222,3.0081446,-0.15582663,-0.038274042,-0.018076863,8.971866733521868,0.1614732589450081,walk
05/08/2020, 16:48:47,-8.186177,-2.1052222,3.0081446,-0.18881334,-0.015061173,0.02834888,8.971866733521868,0.1915227836337432,walk
05/08/2020, 16:48:47,-8.193362,-2.201023,3.1135256,-0.18881334,-0.015061173,0.02834888,9.037130588194724,0.1915227836337432,walk
05/08/2020, 16:48:47,-8.193362,-2.201023,3.1135256,-0.20958276,0.011816888,0.073552884,9.037130588194724,0.22242886344243043,walk
05/08/2020, 16:48:47,-8.186177,-2.2752686,3.0967603,-0.20958276,0.011816888,0.073552884,9.043244396433698,0.22242886344243043,walk
05/08/2020, 16:48:47,-8.186177,-2.2752686,3.0967603,-0.21813487,0.038694948,0.12242209,9.043244396433698,0.2531151653398782,walk
05/08/2020, 16:48:47,-8.222102,-2.3375392,3.151846,-0.21813487,0.038694948,0.12242209,9.110498684888922,0.2531151653398782,walk
05/08/2020, 16:48:47,-8.222102,-2.3375392,3.151846,-0.21080449,0.066794746,0.17373475,9.110498684888922,0.2812184859669146,walk
05/08/2020, 16:48:47,-8.258028,-2.435735,3.151846,-0.21080449,0.066794746,0.17373475,9.168531215961645,0.2812184859669146,walk
05/08/2020, 16:48:47,-8.258028,-2.435735,3.151846,-0.18514815,0.09611626,0.22626916,9.168531215961645,0.30775948980526785,walk
05/08/2020, 16:48:47,-8.188572,-2.4956105,3.171006,-0.18514815,0.09611626,0.22626916,9.128858675803032,0.30775948980526785,walk
05/08/2020, 16:48:47,-8.188572,-2.4956105,3.171006,-0.14727452,0.1303247,0.27391663,9.128858675803032,0.33720117996643695,walk
05/08/2020, 16:48:47,-8.178992,-2.5291407,3.1973512,-0.14727452,0.1303247,0.27391663,9.138682734276378,0.33720117996643695,walk
05/08/2020, 16:48:48,-10.609937,-3.1207106,3.06802,-0.2779996,-1.6143057,-0.9355961,11.477035295118636,1.8864270105131093,walk
05/08/2020, 16:48:48,-10.590776,-3.051255,3.0081446,-0.2779996,-1.6143057,-0.9355961,11.42469416278348,1.8864270105131093,walk
05/08/2020, 16:48:48,-10.590776,-3.051255,3.0081446,-0.40505955,-1.6546229,-0.96858287,11.42469416278348,1.9595925575371087,walk
05/08/2020, 16:48:48,-10.559642,-3.0201197,2.8883936,-0.40505955,-1.6546229,-0.96858287,11.356494898264373,1.9595925575371087,walk
05/08/2020, 16:48:48,-10.559642,-3.0201197,2.8883936,-0.5406716,-1.6986052,-0.9991261,11.356494898264373,2.0434867846197,walk
05/08/2020, 16:48:48,-10.583591,-2.9458742,2.8357031,-0.5406716,-1.6986052,-0.9991261,11.346003497714253,2.0434867846197,walk
05/08/2020, 16:48:48,-10.583591,-2.9458742,2.8357031,-0.67261845,-1.7364788,-1.022339,11.346003497714253,2.124370782792183,walk
